{"start_time":"2017-01-25 10:22:18","end_time":"2017-01-25 10:48:24","points_phase0":120,"points_phase1":110,"phase_order":1,"age":29,"gender":"f","tries":1,"during":"Nothing","worker_id":"118650","assignment_id":"829406","data":[{"rt":3425,"url":"\/tickets\/utils\/consent.html","trial_type":"html","trial_index":0,"time_elapsed":3433,"internal_node_id":"0.0-0.0"},{"age":29,"gender":"f","trial_type":"age","trial_index":1,"time_elapsed":62319,"internal_node_id":"0.0-1.0"},{"tries":1,"trial_type":"instructions_check","trial_index":2,"time_elapsed":79136,"internal_node_id":"0.0-2.0"},{"rt":6035,"url":"\/tickets\/utils\/start.html","trial_type":"html","trial_index":3,"time_elapsed":86280,"internal_node_id":"0.0-3.0"},{"trial_type":"number-animation","trial_index":4,"time_elapsed":110210,"internal_node_id":"0.0-4.0"},{"phase":0,"sequence":0,"avg":184,"response":205,"trial_type":"training_avg","trial_index":5,"time_elapsed":124375,"internal_node_id":"0.0-5.0"},{"trial_type":"number-animation","trial_index":6,"time_elapsed":165844,"internal_node_id":"0.0-6.0"},{"phase":0,"sequence":1,"avg":199,"response":200,"trial_type":"training_avg","trial_index":7,"time_elapsed":178523,"internal_node_id":"0.0-7.0"},{"trial_type":"number-animation","trial_index":8,"time_elapsed":191134,"internal_node_id":"0.0-8.0"},{"phase":0,"sequence":2,"avg":199,"response":190,"trial_type":"training_avg","trial_index":9,"time_elapsed":196872,"internal_node_id":"0.0-9.0"},{"trial_type":"number-animation","trial_index":10,"time_elapsed":211025,"internal_node_id":"0.0-10.0"},{"phase":0,"sequence":3,"avg":210,"response":210,"trial_type":"training_avg","trial_index":11,"time_elapsed":220328,"internal_node_id":"0.0-11.0"},{"trial_type":"number-animation","trial_index":12,"time_elapsed":233548,"internal_node_id":"0.0-12.0"},{"phase":0,"sequence":4,"avg":202,"response":190,"trial_type":"training_avg","trial_index":13,"time_elapsed":239409,"internal_node_id":"0.0-13.0"},{"responses":[{"value":1,"offby":0,"category":"$105 - $130","category_index":0},{"value":2,"offby":0,"category":"$131 - $155","category_index":1},{"value":4,"offby":2,"category":"$156 - $180","category_index":2},{"value":5,"offby":0,"category":"$181 - $205","category_index":3},{"value":4,"offby":-1,"category":"$206 - $230","category_index":4},{"value":2,"offby":-1,"category":"$231 - $255","category_index":5},{"value":1,"offby":-1,"category":"$256 - $280","category_index":6}],"phase":0,"number":0,"trial_type":"bar-choose","trial_index":14,"time_elapsed":304371,"internal_node_id":"0.0-14.0"},{"rt":17904,"url":"\/tickets\/\/utils\/testing.html","trial_type":"html","trial_index":15,"time_elapsed":323394,"internal_node_id":"0.0-15.0"},{"phase":0,"order":[4,9,42,47,14,34,39,6,30,11,16,44,15,36,18,13,26,7,38,20,23,10,27,19,8,29,0,3,12,49,45,5,28,1,48,17,35,46,31,37,32,21,40,33,22,43,25,2,24,41],"trial_type":"store_order","trial_index":16,"time_elapsed":324395,"internal_node_id":"0.0-16.0"},{"result":165,"points":2,"place":1,"phase":0,"sequence":-1,"times":[2251,1219,1028,2333],"next_num":4,"trial_type":"ticket-choose","trial_index":17,"time_elapsed":334745,"internal_node_id":"0.0-17.0"},{"rt":15260,"url":"\/tickets\/utils\/testing_after.html","trial_type":"html","trial_index":18,"time_elapsed":351126,"internal_node_id":"0.0-18.0"},{"result":170,"points":3,"place":0,"phase":0,"sequence":0,"times":[1963,734,1039,870,1241,892,1657,1344,1006,961],"next_num":10,"trial_type":"ticket-choose","trial_index":19,"time_elapsed":368980,"internal_node_id":"0.0-19.0"},{"result":147,"points":3,"place":0,"phase":0,"sequence":1,"times":[1331,881,3403,1333,1433,1095,960,1299,1006,1062],"next_num":10,"trial_type":"ticket-choose","trial_index":20,"time_elapsed":387250,"internal_node_id":"0.0-20.0"},{"result":158,"points":3,"place":0,"phase":0,"sequence":2,"times":[3470],"next_num":1,"trial_type":"ticket-choose","trial_index":21,"time_elapsed":393235,"internal_node_id":"0.0-21.0"},{"result":166,"points":1,"place":2,"phase":0,"sequence":3,"times":[962,995],"next_num":2,"trial_type":"ticket-choose","trial_index":22,"time_elapsed":399086,"internal_node_id":"0.0-22.0"},{"result":140,"points":3,"place":0,"phase":0,"sequence":4,"times":[1183,1173],"next_num":2,"trial_type":"ticket-choose","trial_index":23,"time_elapsed":404950,"internal_node_id":"0.0-23.0"},{"result":141,"points":3,"place":0,"phase":0,"sequence":5,"times":[1297],"next_num":1,"trial_type":"ticket-choose","trial_index":24,"time_elapsed":408693,"internal_node_id":"0.0-24.0"},{"result":157,"points":2,"place":1,"phase":0,"sequence":6,"times":[4784,734,1051],"next_num":3,"trial_type":"ticket-choose","trial_index":25,"time_elapsed":417952,"internal_node_id":"0.0-25.0"},{"result":169,"points":3,"place":0,"phase":0,"sequence":7,"times":[1141,1027,757,644,2636,646,871,1456],"next_num":8,"trial_type":"ticket-choose","trial_index":26,"time_elapsed":431284,"internal_node_id":"0.0-26.0"},{"result":167,"points":2,"place":1,"phase":0,"sequence":8,"times":[1739,1478,758,5112],"next_num":4,"trial_type":"ticket-choose","trial_index":27,"time_elapsed":443356,"internal_node_id":"0.0-27.0"},{"result":148,"points":3,"place":0,"phase":0,"sequence":9,"times":[915,1018,949,904,1366,1061,1231,1251],"next_num":8,"trial_type":"ticket-choose","trial_index":28,"time_elapsed":455968,"internal_node_id":"0.0-28.0"},{"result":151,"points":3,"place":0,"phase":0,"sequence":10,"times":[1274,1084],"next_num":2,"trial_type":"ticket-choose","trial_index":29,"time_elapsed":460828,"internal_node_id":"0.0-29.0"},{"result":166,"points":3,"place":0,"phase":0,"sequence":11,"times":[1227,658,713,826,826,769,1061,1185,1276],"next_num":9,"trial_type":"ticket-choose","trial_index":30,"time_elapsed":473540,"internal_node_id":"0.0-30.0"},{"result":155,"points":3,"place":0,"phase":0,"sequence":12,"times":[1064,1241,1006],"next_num":3,"trial_type":"ticket-choose","trial_index":31,"time_elapsed":479538,"internal_node_id":"0.0-31.0"},{"result":145,"points":3,"place":0,"phase":0,"sequence":13,"times":[1082],"next_num":1,"trial_type":"ticket-choose","trial_index":32,"time_elapsed":482687,"internal_node_id":"0.0-32.0"},{"result":133,"points":3,"place":0,"phase":0,"sequence":14,"times":[1030,645,1005],"next_num":3,"trial_type":"ticket-choose","trial_index":33,"time_elapsed":487997,"internal_node_id":"0.0-33.0"},{"result":162,"points":3,"place":0,"phase":0,"sequence":15,"times":[1802],"next_num":1,"trial_type":"ticket-choose","trial_index":34,"time_elapsed":491901,"internal_node_id":"0.0-34.0"},{"result":142,"points":3,"place":0,"phase":0,"sequence":16,"times":[963,600,1005,643,701,677,916,1242,848,939],"next_num":10,"trial_type":"ticket-choose","trial_index":35,"time_elapsed":504423,"internal_node_id":"0.0-35.0"},{"result":167,"points":3,"place":0,"phase":0,"sequence":17,"times":[1275,692,668,713,690,747,780,1061],"next_num":8,"trial_type":"ticket-choose","trial_index":36,"time_elapsed":516922,"internal_node_id":"0.0-36.0"},{"result":170,"points":2,"place":1,"phase":0,"sequence":18,"times":[996,645,927,756,632,735,2646],"next_num":7,"trial_type":"ticket-choose","trial_index":37,"time_elapsed":527711,"internal_node_id":"0.0-37.0"},{"result":126,"points":3,"place":0,"phase":0,"sequence":19,"times":[1590,837,1061,770,1017],"next_num":5,"trial_type":"ticket-choose","trial_index":38,"time_elapsed":535879,"internal_node_id":"0.0-38.0"},{"result":140,"points":2,"place":1,"phase":0,"sequence":20,"times":[1152,646,1208],"next_num":3,"trial_type":"ticket-choose","trial_index":39,"time_elapsed":541414,"internal_node_id":"0.0-39.0"},{"result":154,"points":3,"place":0,"phase":0,"sequence":21,"times":[1964],"next_num":1,"trial_type":"ticket-choose","trial_index":40,"time_elapsed":545442,"internal_node_id":"0.0-40.0"},{"result":148,"points":2,"place":1,"phase":0,"sequence":22,"times":[1093,925,972],"next_num":3,"trial_type":"ticket-choose","trial_index":41,"time_elapsed":551134,"internal_node_id":"0.0-41.0"},{"result":129,"points":3,"place":0,"phase":0,"sequence":23,"times":[963,748,1746,1433,690,1118],"next_num":6,"trial_type":"ticket-choose","trial_index":42,"time_elapsed":561271,"internal_node_id":"0.0-42.0"},{"result":134,"points":3,"place":0,"phase":0,"sequence":24,"times":[1177,713,1547,633,725,803,838,1362,893,815],"next_num":10,"trial_type":"ticket-choose","trial_index":43,"time_elapsed":574749,"internal_node_id":"0.0-43.0"},{"result":153,"points":3,"place":0,"phase":0,"sequence":25,"times":[1164],"next_num":1,"trial_type":"ticket-choose","trial_index":44,"time_elapsed":577933,"internal_node_id":"0.0-44.0"},{"result":212,"points":1,"place":4,"phase":0,"sequence":26,"times":[892,655,870,848,690,938,1702,871,713,1445],"next_num":10,"trial_type":"ticket-choose","trial_index":45,"time_elapsed":592401,"internal_node_id":"0.0-45.0"},{"result":183,"points":1,"place":3,"phase":0,"sequence":27,"times":[1050,1265,634,665,1242,1163,1523,789,792,902],"next_num":10,"trial_type":"ticket-choose","trial_index":46,"time_elapsed":608804,"internal_node_id":"0.0-46.0"},{"result":144,"points":3,"place":0,"phase":0,"sequence":28,"times":[869,646,792,995],"next_num":4,"trial_type":"ticket-choose","trial_index":47,"time_elapsed":615329,"internal_node_id":"0.0-47.0"},{"result":156,"points":3,"place":0,"phase":0,"sequence":29,"times":[1075,848,767,713,1094,645,1207,792,1029],"next_num":9,"trial_type":"ticket-choose","trial_index":48,"time_elapsed":627558,"internal_node_id":"0.0-48.0"},{"result":137,"points":3,"place":0,"phase":0,"sequence":30,"times":[1163],"next_num":1,"trial_type":"ticket-choose","trial_index":49,"time_elapsed":631372,"internal_node_id":"0.0-49.0"},{"result":163,"points":3,"place":0,"phase":0,"sequence":31,"times":[1446],"next_num":1,"trial_type":"ticket-choose","trial_index":50,"time_elapsed":634905,"internal_node_id":"0.0-50.0"},{"result":150,"points":2,"place":1,"phase":0,"sequence":32,"times":[973,1119],"next_num":2,"trial_type":"ticket-choose","trial_index":51,"time_elapsed":639472,"internal_node_id":"0.0-51.0"},{"result":162,"points":1,"place":3,"phase":0,"sequence":33,"times":[3706,690,927],"next_num":3,"trial_type":"ticket-choose","trial_index":52,"time_elapsed":648484,"internal_node_id":"0.0-52.0"},{"result":136,"points":3,"place":0,"phase":0,"sequence":34,"times":[1118,1365,735,657,725,690,2061,1343,1018],"next_num":9,"trial_type":"ticket-choose","trial_index":53,"time_elapsed":662097,"internal_node_id":"0.0-53.0"},{"result":165,"points":2,"place":1,"phase":0,"sequence":35,"times":[1701,566,1758],"next_num":3,"trial_type":"ticket-choose","trial_index":54,"time_elapsed":668611,"internal_node_id":"0.0-54.0"},{"result":140,"points":2,"place":1,"phase":0,"sequence":36,"times":[860,792,825,813,1085,779,1118],"next_num":7,"trial_type":"ticket-choose","trial_index":55,"time_elapsed":793659,"internal_node_id":"0.0-55.0"},{"result":135,"points":3,"place":0,"phase":0,"sequence":37,"times":[1230,1130,1073,961],"next_num":4,"trial_type":"ticket-choose","trial_index":56,"time_elapsed":800757,"internal_node_id":"0.0-56.0"},{"result":210,"points":1,"place":4,"phase":0,"sequence":38,"times":[857,1106,925,556,645,657,904,735,735,815],"next_num":11,"trial_type":"ticket-choose","trial_index":57,"time_elapsed":815045,"internal_node_id":"0.0-57.0"},{"result":184,"points":1,"place":2,"phase":0,"sequence":39,"times":[996,635,1061,710,736,1118,2232],"next_num":7,"trial_type":"ticket-choose","trial_index":58,"time_elapsed":825992,"internal_node_id":"0.0-58.0"},{"result":167,"points":1,"place":3,"phase":0,"sequence":40,"times":[962,622,1061],"next_num":3,"trial_type":"ticket-choose","trial_index":59,"time_elapsed":831325,"internal_node_id":"0.0-59.0"},{"result":116,"points":3,"place":0,"phase":0,"sequence":41,"times":[1071,579,678,757,724,1027],"next_num":6,"trial_type":"ticket-choose","trial_index":60,"time_elapsed":839346,"internal_node_id":"0.0-60.0"},{"result":165,"points":1,"place":2,"phase":0,"sequence":42,"times":[1903],"next_num":1,"trial_type":"ticket-choose","trial_index":61,"time_elapsed":843319,"internal_node_id":"0.0-61.0"},{"result":150,"points":3,"place":0,"phase":0,"sequence":43,"times":[802,567,916,848,668,960,1364,759,657,939],"next_num":10,"trial_type":"ticket-choose","trial_index":62,"time_elapsed":856189,"internal_node_id":"0.0-62.0"},{"result":151,"points":2,"place":1,"phase":0,"sequence":44,"times":[771,692,1444],"next_num":3,"trial_type":"ticket-choose","trial_index":63,"time_elapsed":862108,"internal_node_id":"0.0-63.0"},{"result":165,"points":2,"place":1,"phase":0,"sequence":45,"times":[825,566,3987,620,701,645,1063],"next_num":7,"trial_type":"ticket-choose","trial_index":64,"time_elapsed":873772,"internal_node_id":"0.0-64.0"},{"result":173,"points":2,"place":1,"phase":0,"sequence":46,"times":[1143,714,645,668,669,815,1152],"next_num":7,"trial_type":"ticket-choose","trial_index":65,"time_elapsed":882907,"internal_node_id":"0.0-65.0"},{"result":158,"points":1,"place":2,"phase":0,"sequence":47,"times":[1129,915],"next_num":2,"trial_type":"ticket-choose","trial_index":66,"time_elapsed":887340,"internal_node_id":"0.0-66.0"},{"result":175,"points":2,"place":1,"phase":0,"sequence":48,"times":[893,960,1085,781,1016,781,1737],"next_num":7,"trial_type":"ticket-choose","trial_index":67,"time_elapsed":898073,"internal_node_id":"0.0-67.0"},{"result":156,"points":3,"place":0,"phase":0,"sequence":49,"times":[971,669,645,779,724,1040],"next_num":6,"trial_type":"ticket-choose","trial_index":68,"time_elapsed":906444,"internal_node_id":"0.0-68.0"},{"responses":[{"value":1,"offby":0,"category":"$105 - $130","category_index":0},{"value":3,"offby":1,"category":"$131 - $155","category_index":1},{"value":4,"offby":2,"category":"$156 - $180","category_index":2},{"value":5,"offby":0,"category":"$181 - $205","category_index":3},{"value":5,"offby":0,"category":"$206 - $230","category_index":4},{"value":1,"offby":-2,"category":"$231 - $255","category_index":5},{"value":1,"offby":-1,"category":"$256 - $280","category_index":6}],"phase":0,"number":1,"trial_type":"bar-choose","trial_index":69,"time_elapsed":943301,"internal_node_id":"0.0-69.0"},{"rt":29012,"url":"\/tickets\/utils\/start2.html","trial_type":"html","trial_index":70,"time_elapsed":973417,"internal_node_id":"0.0-70.0"},{"trial_type":"number-animation","trial_index":71,"time_elapsed":989269,"internal_node_id":"0.0-71.0"},{"phase":1,"sequence":0,"avg":181,"response":178,"trial_type":"training_avg","trial_index":72,"time_elapsed":996593,"internal_node_id":"0.0-72.0"},{"trial_type":"number-animation","trial_index":73,"time_elapsed":1011173,"internal_node_id":"0.0-73.0"},{"phase":1,"sequence":1,"avg":188,"response":182,"trial_type":"training_avg","trial_index":74,"time_elapsed":1018621,"internal_node_id":"0.0-74.0"},{"trial_type":"number-animation","trial_index":75,"time_elapsed":1034743,"internal_node_id":"0.0-75.0"},{"phase":1,"sequence":2,"avg":188,"response":180,"trial_type":"training_avg","trial_index":76,"time_elapsed":1039963,"internal_node_id":"0.0-76.0"},{"trial_type":"number-animation","trial_index":77,"time_elapsed":1054668,"internal_node_id":"0.0-77.0"},{"phase":1,"sequence":3,"avg":177,"response":176,"trial_type":"training_avg","trial_index":78,"time_elapsed":1060788,"internal_node_id":"0.0-78.0"},{"trial_type":"number-animation","trial_index":79,"time_elapsed":1074164,"internal_node_id":"0.0-79.0"},{"phase":1,"sequence":4,"avg":182,"response":177,"trial_type":"training_avg","trial_index":80,"time_elapsed":1079553,"internal_node_id":"0.0-80.0"},{"responses":[{"value":2,"offby":2,"category":"$106 - $134","category_index":0},{"value":3,"offby":2,"category":"$135 - $150","category_index":1},{"value":5,"offby":2,"category":"$151 - $165","category_index":2},{"value":5,"offby":-1,"category":"$166 - $180","category_index":3},{"value":3,"offby":-3,"category":"$181 - $195","category_index":4},{"value":1,"offby":-2,"category":"$196 - $210","category_index":5},{"value":1,"offby":0,"category":"$211 - $225","category_index":6}],"phase":1,"number":0,"trial_type":"bar-choose","trial_index":81,"time_elapsed":1139462,"internal_node_id":"0.0-81.0"},{"rt":6462,"url":"\/tickets\/utils\/testing2.html","trial_type":"html","trial_index":82,"time_elapsed":1147033,"internal_node_id":"0.0-82.0"},{"phase":1,"order":[9,2,29,49,40,25,0,45,37,36,33,14,43,22,32,20,4,38,18,42,5,26,3,35,8,21,23,39,47,19,27,28,34,10,12,1,17,48,24,7,13,30,31,6,41,16,15,44,11,46],"trial_type":"store_order","trial_index":83,"time_elapsed":1148035,"internal_node_id":"0.0-83.0"},{"result":170,"points":2,"place":1,"phase":1,"sequence":0,"times":[4077,1579,1388],"next_num":3,"trial_type":"ticket-choose","trial_index":84,"time_elapsed":1157766,"internal_node_id":"0.0-84.0"},{"result":166,"points":2,"place":1,"phase":1,"sequence":1,"times":[1060,565,1096],"next_num":3,"trial_type":"ticket-choose","trial_index":85,"time_elapsed":1163098,"internal_node_id":"0.0-85.0"},{"result":143,"points":3,"place":0,"phase":1,"sequence":2,"times":[927,973,612,767,1038],"next_num":5,"trial_type":"ticket-choose","trial_index":86,"time_elapsed":1170523,"internal_node_id":"0.0-86.0"},{"result":152,"points":3,"place":0,"phase":1,"sequence":3,"times":[939,656,667,1051],"next_num":4,"trial_type":"ticket-choose","trial_index":87,"time_elapsed":1176407,"internal_node_id":"0.0-87.0"},{"result":163,"points":3,"place":0,"phase":1,"sequence":4,"times":[814,927,624,623,714,937,1591,1175,916],"next_num":9,"trial_type":"ticket-choose","trial_index":88,"time_elapsed":1188445,"internal_node_id":"0.0-88.0"},{"result":155,"points":2,"place":1,"phase":1,"sequence":5,"times":[1140,960],"next_num":2,"trial_type":"ticket-choose","trial_index":89,"time_elapsed":1192675,"internal_node_id":"0.0-89.0"},{"result":167,"points":2,"place":1,"phase":1,"sequence":6,"times":[1006,2997],"next_num":2,"trial_type":"ticket-choose","trial_index":90,"time_elapsed":1198852,"internal_node_id":"0.0-90.0"},{"result":165,"points":2,"place":1,"phase":1,"sequence":7,"times":[939,644,1107],"next_num":3,"trial_type":"ticket-choose","trial_index":91,"time_elapsed":1203982,"internal_node_id":"0.0-91.0"},{"result":138,"points":3,"place":0,"phase":1,"sequence":8,"times":[992,689,3583,646,655,1073],"next_num":6,"trial_type":"ticket-choose","trial_index":92,"time_elapsed":1214917,"internal_node_id":"0.0-92.0"},{"result":167,"points":2,"place":1,"phase":1,"sequence":9,"times":[1286,815,3772,645,870,836,938],"next_num":7,"trial_type":"ticket-choose","trial_index":93,"time_elapsed":1227608,"internal_node_id":"0.0-93.0"},{"result":167,"points":1,"place":3,"phase":1,"sequence":10,"times":[2662,622,2208],"next_num":3,"trial_type":"ticket-choose","trial_index":94,"time_elapsed":1235541,"internal_node_id":"0.0-94.0"},{"result":159,"points":1,"place":2,"phase":1,"sequence":11,"times":[811,1016],"next_num":2,"trial_type":"ticket-choose","trial_index":95,"time_elapsed":1239544,"internal_node_id":"0.0-95.0"},{"result":166,"points":2,"place":1,"phase":1,"sequence":12,"times":[1052,653,770,984,657,780,1049],"next_num":7,"trial_type":"ticket-choose","trial_index":96,"time_elapsed":1248803,"internal_node_id":"0.0-96.0"},{"result":154,"points":3,"place":0,"phase":1,"sequence":13,"times":[1065,577,1376,1646,700,1005,1116,1096],"next_num":8,"trial_type":"ticket-choose","trial_index":97,"time_elapsed":1261000,"internal_node_id":"0.0-97.0"},{"result":165,"points":2,"place":1,"phase":1,"sequence":14,"times":[1307,836,725,622,702,714,1061],"next_num":7,"trial_type":"ticket-choose","trial_index":98,"time_elapsed":1270370,"internal_node_id":"0.0-98.0"},{"result":163,"points":1,"place":3,"phase":1,"sequence":15,"times":[1106,677,1085],"next_num":3,"trial_type":"ticket-choose","trial_index":99,"time_elapsed":1275637,"internal_node_id":"0.0-99.0"},{"result":157,"points":3,"place":0,"phase":1,"sequence":16,"times":[1038],"next_num":1,"trial_type":"ticket-choose","trial_index":100,"time_elapsed":1278797,"internal_node_id":"0.0-100.0"},{"result":172,"points":1,"place":2,"phase":1,"sequence":17,"times":[1006,589,747,813,745,1006,2838],"next_num":7,"trial_type":"ticket-choose","trial_index":101,"time_elapsed":1289800,"internal_node_id":"0.0-101.0"},{"result":163,"points":3,"place":0,"phase":1,"sequence":18,"times":[1229,826,680,623,701,724,1029,969],"next_num":8,"trial_type":"ticket-choose","trial_index":102,"time_elapsed":1300150,"internal_node_id":"0.0-102.0"},{"result":161,"points":3,"place":0,"phase":1,"sequence":19,"times":[1389],"next_num":1,"trial_type":"ticket-choose","trial_index":103,"time_elapsed":1303649,"internal_node_id":"0.0-103.0"},{"result":186,"points":1,"place":4,"phase":1,"sequence":20,"times":[1209,789,769,914,758,972,1760,927,815,1028],"next_num":10,"trial_type":"ticket-choose","trial_index":104,"time_elapsed":1317577,"internal_node_id":"0.0-104.0"},{"result":164,"points":1,"place":4,"phase":1,"sequence":21,"times":[1429],"next_num":1,"trial_type":"ticket-choose","trial_index":105,"time_elapsed":1321188,"internal_node_id":"0.0-105.0"},{"result":148,"points":3,"place":0,"phase":1,"sequence":22,"times":[1558],"next_num":1,"trial_type":"ticket-choose","trial_index":106,"time_elapsed":1324788,"internal_node_id":"0.0-106.0"},{"result":175,"points":2,"place":1,"phase":1,"sequence":23,"times":[1005,1702,837,792,1086,1025,4764],"next_num":7,"trial_type":"ticket-choose","trial_index":107,"time_elapsed":1339335,"internal_node_id":"0.0-107.0"},{"result":167,"points":2,"place":1,"phase":1,"sequence":24,"times":[828,654,1646],"next_num":3,"trial_type":"ticket-choose","trial_index":108,"time_elapsed":1344960,"internal_node_id":"0.0-108.0"},{"result":159,"points":3,"place":0,"phase":1,"sequence":25,"times":[1063],"next_num":1,"trial_type":"ticket-choose","trial_index":109,"time_elapsed":1348065,"internal_node_id":"0.0-109.0"},{"result":158,"points":2,"place":1,"phase":1,"sequence":26,"times":[826,713,1096],"next_num":3,"trial_type":"ticket-choose","trial_index":110,"time_elapsed":1353938,"internal_node_id":"0.0-110.0"},{"result":154,"points":2,"place":1,"phase":1,"sequence":27,"times":[1275,669,882],"next_num":3,"trial_type":"ticket-choose","trial_index":111,"time_elapsed":1359102,"internal_node_id":"0.0-111.0"},{"result":170,"points":2,"place":1,"phase":1,"sequence":28,"times":[2189,2120,1119,668,714,702,1083],"next_num":7,"trial_type":"ticket-choose","trial_index":112,"time_elapsed":1370937,"internal_node_id":"0.0-112.0"},{"result":163,"points":1,"place":2,"phase":1,"sequence":29,"times":[1569,1006],"next_num":2,"trial_type":"ticket-choose","trial_index":113,"time_elapsed":1375775,"internal_node_id":"0.0-113.0"},{"result":167,"points":2,"place":1,"phase":1,"sequence":30,"times":[815,712,971,2255,1816],"next_num":5,"trial_type":"ticket-choose","trial_index":114,"time_elapsed":1385124,"internal_node_id":"0.0-114.0"},{"result":150,"points":2,"place":1,"phase":1,"sequence":31,"times":[2626,1601,928],"next_num":3,"trial_type":"ticket-choose","trial_index":115,"time_elapsed":1392752,"internal_node_id":"0.0-115.0"},{"result":188,"points":1,"place":4,"phase":1,"sequence":32,"times":[2277,668,871,690,711,928,1140,893,712,914],"next_num":10,"trial_type":"ticket-choose","trial_index":116,"time_elapsed":1406545,"internal_node_id":"0.0-116.0"},{"result":162,"points":2,"place":1,"phase":1,"sequence":33,"times":[1150,701,959],"next_num":3,"trial_type":"ticket-choose","trial_index":117,"time_elapsed":1411810,"internal_node_id":"0.0-117.0"},{"result":147,"points":3,"place":0,"phase":1,"sequence":34,"times":[1149,781,2874,1038],"next_num":4,"trial_type":"ticket-choose","trial_index":118,"time_elapsed":1420182,"internal_node_id":"0.0-118.0"},{"result":150,"points":2,"place":1,"phase":1,"sequence":35,"times":[2094,1015,1883,668,689,1073,903],"next_num":7,"trial_type":"ticket-choose","trial_index":119,"time_elapsed":1431847,"internal_node_id":"0.0-119.0"},{"result":154,"points":2,"place":1,"phase":1,"sequence":36,"times":[1053,1016],"next_num":2,"trial_type":"ticket-choose","trial_index":120,"time_elapsed":1436055,"internal_node_id":"0.0-120.0"},{"result":158,"points":3,"place":0,"phase":1,"sequence":37,"times":[849,657,702,668,702,1073],"next_num":6,"trial_type":"ticket-choose","trial_index":121,"time_elapsed":1444110,"internal_node_id":"0.0-121.0"},{"result":162,"points":1,"place":2,"phase":1,"sequence":38,"times":[2975],"next_num":1,"trial_type":"ticket-choose","trial_index":122,"time_elapsed":1449218,"internal_node_id":"0.0-122.0"},{"result":163,"points":2,"place":1,"phase":1,"sequence":39,"times":[712,611,1060,2322],"next_num":4,"trial_type":"ticket-choose","trial_index":123,"time_elapsed":1456496,"internal_node_id":"0.0-123.0"},{"result":146,"points":3,"place":0,"phase":1,"sequence":40,"times":[1018,633,1028],"next_num":3,"trial_type":"ticket-choose","trial_index":124,"time_elapsed":1461525,"internal_node_id":"0.0-124.0"},{"result":156,"points":3,"place":0,"phase":1,"sequence":41,"times":[993],"next_num":1,"trial_type":"ticket-choose","trial_index":125,"time_elapsed":1464372,"internal_node_id":"0.0-125.0"},{"result":150,"points":3,"place":0,"phase":1,"sequence":42,"times":[1793,983],"next_num":2,"trial_type":"ticket-choose","trial_index":126,"time_elapsed":1469490,"internal_node_id":"0.0-126.0"},{"result":155,"points":3,"place":0,"phase":1,"sequence":43,"times":[894,893],"next_num":2,"trial_type":"ticket-choose","trial_index":127,"time_elapsed":1473417,"internal_node_id":"0.0-127.0"},{"result":152,"points":3,"place":0,"phase":1,"sequence":44,"times":[1061],"next_num":1,"trial_type":"ticket-choose","trial_index":128,"time_elapsed":1476443,"internal_node_id":"0.0-128.0"},{"result":157,"points":3,"place":0,"phase":1,"sequence":45,"times":[1230,802,1208],"next_num":3,"trial_type":"ticket-choose","trial_index":129,"time_elapsed":1482136,"internal_node_id":"0.0-129.0"},{"result":150,"points":3,"place":0,"phase":1,"sequence":46,"times":[1210],"next_num":1,"trial_type":"ticket-choose","trial_index":130,"time_elapsed":1485331,"internal_node_id":"0.0-130.0"},{"result":153,"points":3,"place":0,"phase":1,"sequence":47,"times":[1105,668,633,893,712,960,2457,724,905,859],"next_num":10,"trial_type":"ticket-choose","trial_index":131,"time_elapsed":1499799,"internal_node_id":"0.0-131.0"},{"result":185,"points":1,"place":4,"phase":1,"sequence":48,"times":[1061,645,849,1118,679,758,2761,623,735,745],"next_num":10,"trial_type":"ticket-choose","trial_index":132,"time_elapsed":1513704,"internal_node_id":"0.0-132.0"},{"result":155,"points":2,"place":1,"phase":1,"sequence":49,"times":[828,634,1062],"next_num":3,"trial_type":"ticket-choose","trial_index":133,"time_elapsed":1518542,"internal_node_id":"0.0-133.0"},{"responses":[{"value":1,"offby":1,"category":"$106 - $134","category_index":0},{"value":2,"offby":1,"category":"$135 - $150","category_index":1},{"value":4,"offby":1,"category":"$151 - $165","category_index":2},{"value":5,"offby":-1,"category":"$166 - $180","category_index":3},{"value":5,"offby":-1,"category":"$181 - $195","category_index":4},{"value":2,"offby":-1,"category":"$196 - $210","category_index":5},{"value":1,"offby":0,"category":"$211 - $225","category_index":6}],"phase":1,"number":1,"trial_type":"bar-choose","trial_index":134,"time_elapsed":1545196,"internal_node_id":"0.0-134.0"},{"during":"Nothing","bonus":308,"trial_type":"final","trial_index":135,"time_elapsed":1564125,"internal_node_id":"0.0-135.0"}],"bonus":308}