{"start_time":"2017-01-24 11:13:39","end_time":"2017-01-24 11:20:57","points_phase0":54,"points_phase1":53,"phase_order":0,"age":33,"gender":"m","tries":1,"during":"Nothing","worker_id":"238103","assignment_id":"904065","data":[{"rt":21073,"url":"\/tickets\/utils\/consent.html","trial_type":"html","trial_index":0,"time_elapsed":21171,"internal_node_id":"0.0-0.0"},{"age":33,"gender":"m","trial_type":"age","trial_index":1,"time_elapsed":24988,"internal_node_id":"0.0-1.0"},{"tries":1,"trial_type":"instructions_check","trial_index":2,"time_elapsed":30853,"internal_node_id":"0.0-2.0"},{"rt":3557,"url":"\/tickets\/utils\/start.html","trial_type":"html","trial_index":3,"time_elapsed":35598,"internal_node_id":"0.0-3.0"},{"trial_type":"number-animation","trial_index":4,"time_elapsed":45492,"internal_node_id":"0.0-4.0"},{"phase":0,"sequence":0,"avg":181,"response":160,"trial_type":"training_avg","trial_index":5,"time_elapsed":49697,"internal_node_id":"0.0-5.0"},{"trial_type":"number-animation","trial_index":6,"time_elapsed":56069,"internal_node_id":"0.0-6.0"},{"phase":0,"sequence":1,"avg":188,"response":160,"trial_type":"training_avg","trial_index":7,"time_elapsed":58464,"internal_node_id":"0.0-7.0"},{"trial_type":"number-animation","trial_index":8,"time_elapsed":71525,"internal_node_id":"0.0-8.0"},{"phase":0,"sequence":2,"avg":188,"response":160,"trial_type":"training_avg","trial_index":9,"time_elapsed":74844,"internal_node_id":"0.0-9.0"},{"trial_type":"number-animation","trial_index":10,"time_elapsed":81869,"internal_node_id":"0.0-10.0"},{"phase":0,"sequence":3,"avg":177,"response":160,"trial_type":"training_avg","trial_index":11,"time_elapsed":85367,"internal_node_id":"0.0-11.0"},{"trial_type":"number-animation","trial_index":12,"time_elapsed":93196,"internal_node_id":"0.0-12.0"},{"phase":0,"sequence":4,"avg":182,"response":160,"trial_type":"training_avg","trial_index":13,"time_elapsed":96584,"internal_node_id":"0.0-13.0"},{"responses":[{"value":0,"offby":0,"category":"$106 - $134","category_index":0},{"value":0,"offby":-1,"category":"$135 - $150","category_index":1},{"value":0,"offby":-3,"category":"$151 - $165","category_index":2},{"value":5,"offby":-1,"category":"$166 - $180","category_index":3},{"value":5,"offby":-1,"category":"$181 - $195","category_index":4},{"value":0,"offby":-3,"category":"$196 - $210","category_index":5},{"value":0,"offby":-1,"category":"$211 - $225","category_index":6}],"phase":0,"number":0,"trial_type":"bar-choose","trial_index":14,"time_elapsed":106270,"internal_node_id":"0.0-14.0"},{"rt":1053,"url":"\/tickets\/\/utils\/testing.html","trial_type":"html","trial_index":15,"time_elapsed":108517,"internal_node_id":"0.0-15.0"},{"phase":0,"order":[4,30,1,17,39,19,46,36,23,29,42,7,47,28,12,14,26,21,49,31,25,20,11,37,18,9,35,5,0,33,2,8,32,44,24,22,13,27,6,43,38,40,34,41,16,15,48,10,3,45],"trial_type":"store_order","trial_index":16,"time_elapsed":109520,"internal_node_id":"0.0-16.0"},{"result":184,"points":1,"place":4,"phase":0,"sequence":-1,"times":[1235],"next_num":1,"trial_type":"ticket-choose","trial_index":17,"time_elapsed":113117,"internal_node_id":"0.0-17.0"},{"rt":1494,"url":"\/tickets\/utils\/testing_after.html","trial_type":"html","trial_index":18,"time_elapsed":115802,"internal_node_id":"0.0-18.0"},{"result":201,"points":0,"place":7,"phase":0,"sequence":0,"times":[1954,523,277,554,228,363],"next_num":6,"trial_type":"ticket-choose","trial_index":19,"time_elapsed":122902,"internal_node_id":"0.0-19.0"},{"result":174,"points":1,"place":3,"phase":0,"sequence":1,"times":[2138,287,861],"next_num":3,"trial_type":"ticket-choose","trial_index":20,"time_elapsed":128763,"internal_node_id":"0.0-20.0"},{"result":216,"points":0,"place":9,"phase":0,"sequence":2,"times":[794,458,277,577],"next_num":4,"trial_type":"ticket-choose","trial_index":21,"time_elapsed":133257,"internal_node_id":"0.0-21.0"},{"result":187,"points":0,"place":6,"phase":0,"sequence":3,"times":[656,533],"next_num":2,"trial_type":"ticket-choose","trial_index":22,"time_elapsed":136508,"internal_node_id":"0.0-22.0"},{"result":167,"points":2,"place":1,"phase":0,"sequence":4,"times":[479,403],"next_num":2,"trial_type":"ticket-choose","trial_index":23,"time_elapsed":139348,"internal_node_id":"0.0-23.0"},{"result":188,"points":1,"place":4,"phase":0,"sequence":5,"times":[1109],"next_num":1,"trial_type":"ticket-choose","trial_index":24,"time_elapsed":142225,"internal_node_id":"0.0-24.0"},{"result":210,"points":0,"place":7,"phase":0,"sequence":6,"times":[599],"next_num":1,"trial_type":"ticket-choose","trial_index":25,"time_elapsed":144355,"internal_node_id":"0.0-25.0"},{"result":188,"points":0,"place":6,"phase":0,"sequence":7,"times":[1124],"next_num":1,"trial_type":"ticket-choose","trial_index":26,"time_elapsed":146947,"internal_node_id":"0.0-26.0"},{"result":168,"points":3,"place":0,"phase":0,"sequence":8,"times":[412],"next_num":1,"trial_type":"ticket-choose","trial_index":27,"time_elapsed":148699,"internal_node_id":"0.0-27.0"},{"result":159,"points":3,"place":0,"phase":0,"sequence":9,"times":[548],"next_num":1,"trial_type":"ticket-choose","trial_index":28,"time_elapsed":150579,"internal_node_id":"0.0-28.0"},{"result":222,"points":0,"place":9,"phase":0,"sequence":10,"times":[374],"next_num":1,"trial_type":"ticket-choose","trial_index":29,"time_elapsed":152227,"internal_node_id":"0.0-29.0"},{"result":183,"points":1,"place":4,"phase":0,"sequence":11,"times":[348],"next_num":1,"trial_type":"ticket-choose","trial_index":30,"time_elapsed":153866,"internal_node_id":"0.0-30.0"},{"result":200,"points":0,"place":8,"phase":0,"sequence":12,"times":[404],"next_num":1,"trial_type":"ticket-choose","trial_index":31,"time_elapsed":155570,"internal_node_id":"0.0-31.0"},{"result":161,"points":3,"place":0,"phase":0,"sequence":13,"times":[342],"next_num":1,"trial_type":"ticket-choose","trial_index":32,"time_elapsed":157205,"internal_node_id":"0.0-32.0"},{"result":181,"points":1,"place":4,"phase":0,"sequence":14,"times":[353],"next_num":1,"trial_type":"ticket-choose","trial_index":33,"time_elapsed":158890,"internal_node_id":"0.0-33.0"},{"result":184,"points":1,"place":4,"phase":0,"sequence":15,"times":[262],"next_num":1,"trial_type":"ticket-choose","trial_index":34,"time_elapsed":160474,"internal_node_id":"0.0-34.0"},{"result":157,"points":3,"place":0,"phase":0,"sequence":16,"times":[276],"next_num":1,"trial_type":"ticket-choose","trial_index":35,"time_elapsed":162074,"internal_node_id":"0.0-35.0"},{"result":156,"points":3,"place":0,"phase":0,"sequence":17,"times":[292],"next_num":1,"trial_type":"ticket-choose","trial_index":36,"time_elapsed":163683,"internal_node_id":"0.0-36.0"},{"result":183,"points":0,"place":6,"phase":0,"sequence":18,"times":[256],"next_num":1,"trial_type":"ticket-choose","trial_index":37,"time_elapsed":165226,"internal_node_id":"0.0-37.0"},{"result":162,"points":1,"place":2,"phase":0,"sequence":19,"times":[246],"next_num":1,"trial_type":"ticket-choose","trial_index":38,"time_elapsed":166740,"internal_node_id":"0.0-38.0"},{"result":150,"points":3,"place":0,"phase":0,"sequence":20,"times":[341],"next_num":1,"trial_type":"ticket-choose","trial_index":39,"time_elapsed":168341,"internal_node_id":"0.0-39.0"},{"result":161,"points":3,"place":0,"phase":0,"sequence":21,"times":[303],"next_num":1,"trial_type":"ticket-choose","trial_index":40,"time_elapsed":169909,"internal_node_id":"0.0-40.0"},{"result":175,"points":1,"place":4,"phase":0,"sequence":22,"times":[301],"next_num":1,"trial_type":"ticket-choose","trial_index":41,"time_elapsed":171466,"internal_node_id":"0.0-41.0"},{"result":198,"points":0,"place":8,"phase":0,"sequence":23,"times":[320],"next_num":1,"trial_type":"ticket-choose","trial_index":42,"time_elapsed":173050,"internal_node_id":"0.0-42.0"},{"result":186,"points":1,"place":4,"phase":0,"sequence":24,"times":[251],"next_num":1,"trial_type":"ticket-choose","trial_index":43,"time_elapsed":174618,"internal_node_id":"0.0-43.0"},{"result":177,"points":1,"place":4,"phase":0,"sequence":25,"times":[352],"next_num":1,"trial_type":"ticket-choose","trial_index":44,"time_elapsed":176217,"internal_node_id":"0.0-44.0"},{"result":168,"points":1,"place":2,"phase":0,"sequence":26,"times":[354],"next_num":1,"trial_type":"ticket-choose","trial_index":45,"time_elapsed":177802,"internal_node_id":"0.0-45.0"},{"result":175,"points":1,"place":4,"phase":0,"sequence":27,"times":[340],"next_num":1,"trial_type":"ticket-choose","trial_index":46,"time_elapsed":179386,"internal_node_id":"0.0-46.0"},{"result":178,"points":1,"place":4,"phase":0,"sequence":28,"times":[292],"next_num":1,"trial_type":"ticket-choose","trial_index":47,"time_elapsed":180911,"internal_node_id":"0.0-47.0"},{"result":197,"points":0,"place":7,"phase":0,"sequence":29,"times":[355],"next_num":1,"trial_type":"ticket-choose","trial_index":48,"time_elapsed":182538,"internal_node_id":"0.0-48.0"},{"result":182,"points":1,"place":4,"phase":0,"sequence":30,"times":[303],"next_num":1,"trial_type":"ticket-choose","trial_index":49,"time_elapsed":184059,"internal_node_id":"0.0-49.0"},{"result":178,"points":1,"place":4,"phase":0,"sequence":31,"times":[322],"next_num":1,"trial_type":"ticket-choose","trial_index":50,"time_elapsed":185644,"internal_node_id":"0.0-50.0"},{"result":182,"points":1,"place":3,"phase":0,"sequence":32,"times":[298],"next_num":1,"trial_type":"ticket-choose","trial_index":51,"time_elapsed":187202,"internal_node_id":"0.0-51.0"},{"result":180,"points":0,"place":6,"phase":0,"sequence":33,"times":[322],"next_num":1,"trial_type":"ticket-choose","trial_index":52,"time_elapsed":188770,"internal_node_id":"0.0-52.0"},{"result":169,"points":3,"place":0,"phase":0,"sequence":34,"times":[342],"next_num":1,"trial_type":"ticket-choose","trial_index":53,"time_elapsed":190386,"internal_node_id":"0.0-53.0"},{"result":152,"points":3,"place":0,"phase":0,"sequence":35,"times":[356],"next_num":1,"trial_type":"ticket-choose","trial_index":54,"time_elapsed":191994,"internal_node_id":"0.0-54.0"},{"result":170,"points":1,"place":4,"phase":0,"sequence":36,"times":[322],"next_num":1,"trial_type":"ticket-choose","trial_index":55,"time_elapsed":193553,"internal_node_id":"0.0-55.0"},{"result":148,"points":3,"place":0,"phase":0,"sequence":37,"times":[311],"next_num":1,"trial_type":"ticket-choose","trial_index":56,"time_elapsed":196562,"internal_node_id":"0.0-56.0"},{"result":173,"points":1,"place":4,"phase":0,"sequence":38,"times":[2742],"next_num":1,"trial_type":"ticket-choose","trial_index":57,"time_elapsed":201428,"internal_node_id":"0.0-57.0"},{"result":187,"points":0,"place":6,"phase":0,"sequence":39,"times":[380,1173],"next_num":2,"trial_type":"ticket-choose","trial_index":58,"time_elapsed":204946,"internal_node_id":"0.0-58.0"},{"result":168,"points":1,"place":2,"phase":0,"sequence":40,"times":[344],"next_num":1,"trial_type":"ticket-choose","trial_index":59,"time_elapsed":206537,"internal_node_id":"0.0-59.0"},{"result":189,"points":0,"place":5,"phase":0,"sequence":41,"times":[389],"next_num":1,"trial_type":"ticket-choose","trial_index":60,"time_elapsed":208185,"internal_node_id":"0.0-60.0"},{"result":181,"points":0,"place":6,"phase":0,"sequence":42,"times":[406],"next_num":1,"trial_type":"ticket-choose","trial_index":61,"time_elapsed":210705,"internal_node_id":"0.0-61.0"},{"result":201,"points":0,"place":7,"phase":0,"sequence":43,"times":[629],"next_num":1,"trial_type":"ticket-choose","trial_index":62,"time_elapsed":212665,"internal_node_id":"0.0-62.0"},{"result":169,"points":1,"place":4,"phase":0,"sequence":44,"times":[377],"next_num":1,"trial_type":"ticket-choose","trial_index":63,"time_elapsed":214338,"internal_node_id":"0.0-63.0"},{"result":178,"points":1,"place":4,"phase":0,"sequence":45,"times":[400],"next_num":1,"trial_type":"ticket-choose","trial_index":64,"time_elapsed":216010,"internal_node_id":"0.0-64.0"},{"result":181,"points":0,"place":5,"phase":0,"sequence":46,"times":[386],"next_num":1,"trial_type":"ticket-choose","trial_index":65,"time_elapsed":217681,"internal_node_id":"0.0-65.0"},{"result":164,"points":1,"place":4,"phase":0,"sequence":47,"times":[381],"next_num":1,"trial_type":"ticket-choose","trial_index":66,"time_elapsed":219321,"internal_node_id":"0.0-66.0"},{"result":180,"points":1,"place":4,"phase":0,"sequence":48,"times":[356],"next_num":1,"trial_type":"ticket-choose","trial_index":67,"time_elapsed":220920,"internal_node_id":"0.0-67.0"},{"result":212,"points":0,"place":9,"phase":0,"sequence":49,"times":[392],"next_num":1,"trial_type":"ticket-choose","trial_index":68,"time_elapsed":222553,"internal_node_id":"0.0-68.0"},{"responses":[{"value":0,"offby":0,"category":"$106 - $134","category_index":0},{"value":0,"offby":-1,"category":"$135 - $150","category_index":1},{"value":0,"offby":-3,"category":"$151 - $165","category_index":2},{"value":0,"offby":-6,"category":"$166 - $180","category_index":3},{"value":0,"offby":-6,"category":"$181 - $195","category_index":4},{"value":0,"offby":-3,"category":"$196 - $210","category_index":5},{"value":0,"offby":-1,"category":"$211 - $225","category_index":6}],"phase":0,"number":1,"trial_type":"bar-choose","trial_index":69,"time_elapsed":228409,"internal_node_id":"0.0-69.0"},{"rt":1113,"url":"\/tickets\/utils\/start2.html","trial_type":"html","trial_index":70,"time_elapsed":230703,"internal_node_id":"0.0-70.0"},{"result":"error","trial_type":"number-animation","trial_index":71,"time_elapsed":231705,"internal_node_id":"0.0-71.0"},{"trial_type":"number-animation","trial_index":72,"time_elapsed":233376,"internal_node_id":"0.0-72.0"},{"phase":1,"sequence":0,"avg":184,"response":170,"trial_type":"training_avg","trial_index":73,"time_elapsed":241314,"internal_node_id":"0.0-73.0"},{"trial_type":"number-animation","trial_index":74,"time_elapsed":274936,"internal_node_id":"0.0-74.0"},{"phase":1,"sequence":1,"avg":199,"response":170,"trial_type":"training_avg","trial_index":75,"time_elapsed":277273,"internal_node_id":"0.0-75.0"},{"trial_type":"number-animation","trial_index":76,"time_elapsed":283751,"internal_node_id":"0.0-76.0"},{"phase":1,"sequence":2,"avg":199,"response":170,"trial_type":"training_avg","trial_index":77,"time_elapsed":285952,"internal_node_id":"0.0-77.0"},{"trial_type":"number-animation","trial_index":78,"time_elapsed":291999,"internal_node_id":"0.0-78.0"},{"phase":1,"sequence":3,"avg":210,"response":170,"trial_type":"training_avg","trial_index":79,"time_elapsed":294351,"internal_node_id":"0.0-79.0"},{"trial_type":"number-animation","trial_index":80,"time_elapsed":300143,"internal_node_id":"0.0-80.0"},{"phase":1,"sequence":4,"avg":202,"response":170,"trial_type":"training_avg","trial_index":81,"time_elapsed":302711,"internal_node_id":"0.0-81.0"},{"responses":[{"value":0,"offby":-1,"category":"$105 - $130","category_index":0},{"value":0,"offby":-2,"category":"$131 - $155","category_index":1},{"value":0,"offby":-2,"category":"$156 - $180","category_index":2},{"value":0,"offby":-5,"category":"$181 - $205","category_index":3},{"value":0,"offby":-5,"category":"$206 - $230","category_index":4},{"value":0,"offby":-3,"category":"$231 - $255","category_index":5},{"value":0,"offby":-2,"category":"$256 - $280","category_index":6}],"phase":1,"number":0,"trial_type":"bar-choose","trial_index":82,"time_elapsed":308383,"internal_node_id":"0.0-82.0"},{"rt":890,"url":"\/tickets\/utils\/testing2.html","trial_type":"html","trial_index":83,"time_elapsed":310468,"internal_node_id":"0.0-83.0"},{"phase":1,"order":[1,19,37,17,24,42,2,4,12,34,8,46,3,15,16,27,5,9,39,30,20,43,32,48,7,26,38,49,35,25,0,13,33,44,40,11,10,29,31,18,41,47,23,45,6,36,21,14,28,22],"trial_type":"store_order","trial_index":84,"time_elapsed":311472,"internal_node_id":"0.0-84.0"},{"result":200,"points":0,"place":6,"phase":1,"sequence":0,"times":[415,662],"next_num":2,"trial_type":"ticket-choose","trial_index":85,"time_elapsed":314303,"internal_node_id":"0.0-85.0"},{"result":217,"points":1,"place":4,"phase":1,"sequence":1,"times":[1214],"next_num":1,"trial_type":"ticket-choose","trial_index":86,"time_elapsed":316806,"internal_node_id":"0.0-86.0"},{"result":236,"points":0,"place":8,"phase":1,"sequence":2,"times":[477],"next_num":1,"trial_type":"ticket-choose","trial_index":87,"time_elapsed":318567,"internal_node_id":"0.0-87.0"},{"result":179,"points":1,"place":4,"phase":1,"sequence":3,"times":[443],"next_num":1,"trial_type":"ticket-choose","trial_index":88,"time_elapsed":320246,"internal_node_id":"0.0-88.0"},{"result":178,"points":3,"place":0,"phase":1,"sequence":4,"times":[366],"next_num":1,"trial_type":"ticket-choose","trial_index":89,"time_elapsed":324422,"internal_node_id":"0.0-89.0"},{"result":284,"points":0,"place":9,"phase":1,"sequence":5,"times":[591],"next_num":1,"trial_type":"ticket-choose","trial_index":90,"time_elapsed":326279,"internal_node_id":"0.0-90.0"},{"result":205,"points":1,"place":4,"phase":1,"sequence":6,"times":[385],"next_num":1,"trial_type":"ticket-choose","trial_index":91,"time_elapsed":327896,"internal_node_id":"0.0-91.0"},{"result":198,"points":1,"place":4,"phase":1,"sequence":7,"times":[389],"next_num":1,"trial_type":"ticket-choose","trial_index":92,"time_elapsed":329566,"internal_node_id":"0.0-92.0"},{"result":203,"points":1,"place":4,"phase":1,"sequence":8,"times":[320],"next_num":1,"trial_type":"ticket-choose","trial_index":93,"time_elapsed":332600,"internal_node_id":"0.0-93.0"},{"result":202,"points":0,"place":6,"phase":1,"sequence":9,"times":[732],"next_num":1,"trial_type":"ticket-choose","trial_index":94,"time_elapsed":334630,"internal_node_id":"0.0-94.0"},{"result":197,"points":1,"place":4,"phase":1,"sequence":10,"times":[398],"next_num":1,"trial_type":"ticket-choose","trial_index":95,"time_elapsed":336358,"internal_node_id":"0.0-95.0"},{"result":261,"points":0,"place":7,"phase":1,"sequence":11,"times":[373],"next_num":1,"trial_type":"ticket-choose","trial_index":96,"time_elapsed":337990,"internal_node_id":"0.0-96.0"},{"result":200,"points":1,"place":4,"phase":1,"sequence":12,"times":[308],"next_num":1,"trial_type":"ticket-choose","trial_index":97,"time_elapsed":339590,"internal_node_id":"0.0-97.0"},{"result":196,"points":1,"place":4,"phase":1,"sequence":13,"times":[477],"next_num":1,"trial_type":"ticket-choose","trial_index":98,"time_elapsed":341527,"internal_node_id":"0.0-98.0"},{"result":179,"points":1,"place":4,"phase":1,"sequence":14,"times":[257],"next_num":1,"trial_type":"ticket-choose","trial_index":99,"time_elapsed":343006,"internal_node_id":"0.0-99.0"},{"result":137,"points":3,"place":0,"phase":1,"sequence":15,"times":[199],"next_num":1,"trial_type":"ticket-choose","trial_index":100,"time_elapsed":344614,"internal_node_id":"0.0-100.0"},{"result":190,"points":1,"place":4,"phase":1,"sequence":16,"times":[248],"next_num":1,"trial_type":"ticket-choose","trial_index":101,"time_elapsed":346109,"internal_node_id":"0.0-101.0"},{"result":194,"points":1,"place":4,"phase":1,"sequence":17,"times":[353],"next_num":1,"trial_type":"ticket-choose","trial_index":102,"time_elapsed":349326,"internal_node_id":"0.0-102.0"},{"result":218,"points":0,"place":7,"phase":1,"sequence":18,"times":[599],"next_num":1,"trial_type":"ticket-choose","trial_index":103,"time_elapsed":351174,"internal_node_id":"0.0-103.0"},{"result":247,"points":0,"place":8,"phase":1,"sequence":19,"times":[742],"next_num":1,"trial_type":"ticket-choose","trial_index":104,"time_elapsed":353334,"internal_node_id":"0.0-104.0"},{"result":162,"points":3,"place":0,"phase":1,"sequence":20,"times":[770],"next_num":1,"trial_type":"ticket-choose","trial_index":105,"time_elapsed":356302,"internal_node_id":"0.0-105.0"},{"result":242,"points":0,"place":9,"phase":1,"sequence":21,"times":[380],"next_num":1,"trial_type":"ticket-choose","trial_index":106,"time_elapsed":357901,"internal_node_id":"0.0-106.0"},{"result":205,"points":1,"place":3,"phase":1,"sequence":22,"times":[417],"next_num":1,"trial_type":"ticket-choose","trial_index":107,"time_elapsed":359573,"internal_node_id":"0.0-107.0"},{"result":202,"points":0,"place":5,"phase":1,"sequence":23,"times":[476],"next_num":1,"trial_type":"ticket-choose","trial_index":108,"time_elapsed":361310,"internal_node_id":"0.0-108.0"},{"result":207,"points":1,"place":4,"phase":1,"sequence":24,"times":[417],"next_num":1,"trial_type":"ticket-choose","trial_index":109,"time_elapsed":362986,"internal_node_id":"0.0-109.0"},{"result":154,"points":3,"place":0,"phase":1,"sequence":25,"times":[414],"next_num":1,"trial_type":"ticket-choose","trial_index":110,"time_elapsed":364613,"internal_node_id":"0.0-110.0"},{"result":177,"points":1,"place":2,"phase":1,"sequence":26,"times":[407],"next_num":1,"trial_type":"ticket-choose","trial_index":111,"time_elapsed":366237,"internal_node_id":"0.0-111.0"},{"result":206,"points":0,"place":6,"phase":1,"sequence":27,"times":[398],"next_num":1,"trial_type":"ticket-choose","trial_index":112,"time_elapsed":367869,"internal_node_id":"0.0-112.0"},{"result":177,"points":1,"place":2,"phase":1,"sequence":28,"times":[367],"next_num":1,"trial_type":"ticket-choose","trial_index":113,"time_elapsed":369453,"internal_node_id":"0.0-113.0"},{"result":141,"points":3,"place":0,"phase":1,"sequence":29,"times":[328],"next_num":1,"trial_type":"ticket-choose","trial_index":114,"time_elapsed":372341,"internal_node_id":"0.0-114.0"},{"result":196,"points":1,"place":4,"phase":1,"sequence":30,"times":[313],"next_num":1,"trial_type":"ticket-choose","trial_index":115,"time_elapsed":375029,"internal_node_id":"0.0-115.0"},{"result":181,"points":1,"place":4,"phase":1,"sequence":31,"times":[365],"next_num":1,"trial_type":"ticket-choose","trial_index":116,"time_elapsed":376685,"internal_node_id":"0.0-116.0"},{"result":235,"points":0,"place":7,"phase":1,"sequence":32,"times":[423],"next_num":1,"trial_type":"ticket-choose","trial_index":117,"time_elapsed":378357,"internal_node_id":"0.0-117.0"},{"result":201,"points":0,"place":6,"phase":1,"sequence":33,"times":[395],"next_num":1,"trial_type":"ticket-choose","trial_index":118,"time_elapsed":380901,"internal_node_id":"0.0-118.0"},{"result":218,"points":0,"place":5,"phase":1,"sequence":34,"times":[245],"next_num":1,"trial_type":"ticket-choose","trial_index":119,"time_elapsed":382389,"internal_node_id":"0.0-119.0"},{"result":190,"points":1,"place":4,"phase":1,"sequence":35,"times":[427],"next_num":1,"trial_type":"ticket-choose","trial_index":120,"time_elapsed":384076,"internal_node_id":"0.0-120.0"},{"result":169,"points":1,"place":4,"phase":1,"sequence":36,"times":[387],"next_num":1,"trial_type":"ticket-choose","trial_index":121,"time_elapsed":385688,"internal_node_id":"0.0-121.0"},{"result":158,"points":3,"place":0,"phase":1,"sequence":37,"times":[406],"next_num":1,"trial_type":"ticket-choose","trial_index":122,"time_elapsed":388453,"internal_node_id":"0.0-122.0"},{"result":165,"points":1,"place":2,"phase":1,"sequence":38,"times":[445],"next_num":1,"trial_type":"ticket-choose","trial_index":123,"time_elapsed":390133,"internal_node_id":"0.0-123.0"},{"result":213,"points":1,"place":4,"phase":1,"sequence":39,"times":[421],"next_num":1,"trial_type":"ticket-choose","trial_index":124,"time_elapsed":391796,"internal_node_id":"0.0-124.0"},{"result":242,"points":0,"place":7,"phase":1,"sequence":40,"times":[423],"next_num":1,"trial_type":"ticket-choose","trial_index":125,"time_elapsed":393471,"internal_node_id":"0.0-125.0"},{"result":240,"points":0,"place":8,"phase":1,"sequence":41,"times":[434],"next_num":1,"trial_type":"ticket-choose","trial_index":126,"time_elapsed":395916,"internal_node_id":"0.0-126.0"},{"result":176,"points":3,"place":0,"phase":1,"sequence":42,"times":[391],"next_num":1,"trial_type":"ticket-choose","trial_index":127,"time_elapsed":397621,"internal_node_id":"0.0-127.0"},{"result":265,"points":0,"place":9,"phase":1,"sequence":43,"times":[544],"next_num":1,"trial_type":"ticket-choose","trial_index":128,"time_elapsed":399949,"internal_node_id":"0.0-128.0"},{"result":186,"points":1,"place":4,"phase":1,"sequence":44,"times":[406],"next_num":1,"trial_type":"ticket-choose","trial_index":129,"time_elapsed":401733,"internal_node_id":"0.0-129.0"},{"result":216,"points":0,"place":6,"phase":1,"sequence":45,"times":[407],"next_num":1,"trial_type":"ticket-choose","trial_index":130,"time_elapsed":403438,"internal_node_id":"0.0-130.0"},{"result":153,"points":3,"place":0,"phase":1,"sequence":46,"times":[379],"next_num":1,"trial_type":"ticket-choose","trial_index":131,"time_elapsed":405164,"internal_node_id":"0.0-131.0"},{"result":209,"points":1,"place":4,"phase":1,"sequence":47,"times":[377],"next_num":1,"trial_type":"ticket-choose","trial_index":132,"time_elapsed":406773,"internal_node_id":"0.0-132.0"},{"result":163,"points":3,"place":0,"phase":1,"sequence":48,"times":[379],"next_num":1,"trial_type":"ticket-choose","trial_index":133,"time_elapsed":409748,"internal_node_id":"0.0-133.0"},{"result":145,"points":3,"place":0,"phase":1,"sequence":49,"times":[411],"next_num":1,"trial_type":"ticket-choose","trial_index":134,"time_elapsed":411444,"internal_node_id":"0.0-134.0"},{"responses":[{"value":0,"offby":-1,"category":"$105 - $130","category_index":0},{"value":0,"offby":-2,"category":"$131 - $155","category_index":1},{"value":0,"offby":-2,"category":"$156 - $180","category_index":2},{"value":0,"offby":-5,"category":"$181 - $205","category_index":3},{"value":0,"offby":-5,"category":"$206 - $230","category_index":4},{"value":0,"offby":-3,"category":"$231 - $255","category_index":5},{"value":0,"offby":-2,"category":"$256 - $280","category_index":6}],"phase":1,"number":1,"trial_type":"bar-choose","trial_index":135,"time_elapsed":416838,"internal_node_id":"0.0-135.0"},{"during":"Nothing","bonus":144,"trial_type":"final","trial_index":136,"time_elapsed":435206,"internal_node_id":"0.0-136.0"}],"bonus":144}