{"start_time":"2017-01-25 18:39:11","end_time":"2017-01-25 18:45:20","points_phase0":54,"points_phase1":54,"phase_order":1,"age":33,"gender":"m","tries":1,"during":"Nothing","worker_id":"43282","assignment_id":"104160","data":[{"rt":10873,"url":"\/tickets\/utils\/consent.html","trial_type":"html","trial_index":0,"time_elapsed":11093,"internal_node_id":"0.0-0.0"},{"age":33,"gender":"m","trial_type":"age","trial_index":1,"time_elapsed":14655,"internal_node_id":"0.0-1.0"},{"tries":1,"trial_type":"instructions_check","trial_index":2,"time_elapsed":23263,"internal_node_id":"0.0-2.0"},{"rt":2223,"url":"\/tickets\/utils\/start.html","trial_type":"html","trial_index":3,"time_elapsed":26666,"internal_node_id":"0.0-3.0"},{"trial_type":"number-animation","trial_index":4,"time_elapsed":34480,"internal_node_id":"0.0-4.0"},{"phase":0,"sequence":0,"avg":184,"response":170,"trial_type":"training_avg","trial_index":5,"time_elapsed":37374,"internal_node_id":"0.0-5.0"},{"trial_type":"number-animation","trial_index":6,"time_elapsed":44280,"internal_node_id":"0.0-6.0"},{"phase":0,"sequence":1,"avg":199,"response":170,"trial_type":"training_avg","trial_index":7,"time_elapsed":46842,"internal_node_id":"0.0-7.0"},{"trial_type":"number-animation","trial_index":8,"time_elapsed":54255,"internal_node_id":"0.0-8.0"},{"phase":0,"sequence":2,"avg":199,"response":170,"trial_type":"training_avg","trial_index":9,"time_elapsed":56820,"internal_node_id":"0.0-9.0"},{"trial_type":"number-animation","trial_index":10,"time_elapsed":63287,"internal_node_id":"0.0-10.0"},{"phase":0,"sequence":3,"avg":210,"response":170,"trial_type":"training_avg","trial_index":11,"time_elapsed":66141,"internal_node_id":"0.0-11.0"},{"trial_type":"number-animation","trial_index":12,"time_elapsed":73423,"internal_node_id":"0.0-12.0"},{"phase":0,"sequence":4,"avg":202,"response":170,"trial_type":"training_avg","trial_index":13,"time_elapsed":76367,"internal_node_id":"0.0-13.0"},{"responses":[{"value":0,"offby":-1,"category":"$105 - $130","category_index":0},{"value":0,"offby":-2,"category":"$131 - $155","category_index":1},{"value":0,"offby":-2,"category":"$156 - $180","category_index":2},{"value":0,"offby":-5,"category":"$181 - $205","category_index":3},{"value":0,"offby":-5,"category":"$206 - $230","category_index":4},{"value":0,"offby":-3,"category":"$231 - $255","category_index":5},{"value":0,"offby":-2,"category":"$256 - $280","category_index":6}],"phase":0,"number":0,"trial_type":"bar-choose","trial_index":14,"time_elapsed":81548,"internal_node_id":"0.0-14.0"},{"rt":697,"url":"\/tickets\/\/utils\/testing.html","trial_type":"html","trial_index":15,"time_elapsed":83399,"internal_node_id":"0.0-15.0"},{"phase":0,"order":[38,47,29,5,46,18,25,40,45,9,19,44,37,17,15,11,43,2,24,3,33,48,27,26,20,42,14,39,31,4,13,23,7,30,21,35,8,36,49,1,12,6,16,41,34,28,0,10,22,32],"trial_type":"store_order","trial_index":16,"time_elapsed":84400,"internal_node_id":"0.0-16.0"},{"result":184,"points":1,"place":4,"phase":0,"sequence":-1,"times":[1375],"next_num":1,"trial_type":"ticket-choose","trial_index":17,"time_elapsed":87600,"internal_node_id":"0.0-17.0"},{"rt":7901,"url":"\/tickets\/utils\/testing_after.html","trial_type":"html","trial_index":18,"time_elapsed":96690,"internal_node_id":"0.0-18.0"},{"result":162,"points":3,"place":0,"phase":0,"sequence":0,"times":[1029],"next_num":1,"trial_type":"ticket-choose","trial_index":19,"time_elapsed":100332,"internal_node_id":"0.0-19.0"},{"result":217,"points":1,"place":4,"phase":0,"sequence":1,"times":[738],"next_num":1,"trial_type":"ticket-choose","trial_index":20,"time_elapsed":102823,"internal_node_id":"0.0-20.0"},{"result":207,"points":1,"place":4,"phase":0,"sequence":2,"times":[628],"next_num":1,"trial_type":"ticket-choose","trial_index":21,"time_elapsed":104855,"internal_node_id":"0.0-21.0"},{"result":205,"points":1,"place":3,"phase":0,"sequence":3,"times":[568],"next_num":1,"trial_type":"ticket-choose","trial_index":22,"time_elapsed":106790,"internal_node_id":"0.0-22.0"},{"result":205,"points":1,"place":4,"phase":0,"sequence":4,"times":[461],"next_num":1,"trial_type":"ticket-choose","trial_index":23,"time_elapsed":108606,"internal_node_id":"0.0-23.0"},{"result":265,"points":0,"place":9,"phase":0,"sequence":5,"times":[461],"next_num":1,"trial_type":"ticket-choose","trial_index":24,"time_elapsed":110431,"internal_node_id":"0.0-24.0"},{"result":202,"points":0,"place":5,"phase":0,"sequence":6,"times":[423],"next_num":1,"trial_type":"ticket-choose","trial_index":25,"time_elapsed":112495,"internal_node_id":"0.0-25.0"},{"result":196,"points":1,"place":4,"phase":0,"sequence":7,"times":[407],"next_num":1,"trial_type":"ticket-choose","trial_index":26,"time_elapsed":114286,"internal_node_id":"0.0-26.0"},{"result":202,"points":0,"place":6,"phase":0,"sequence":8,"times":[442],"next_num":1,"trial_type":"ticket-choose","trial_index":27,"time_elapsed":116126,"internal_node_id":"0.0-27.0"},{"result":158,"points":3,"place":0,"phase":0,"sequence":9,"times":[606],"next_num":1,"trial_type":"ticket-choose","trial_index":28,"time_elapsed":118574,"internal_node_id":"0.0-28.0"},{"result":197,"points":1,"place":4,"phase":0,"sequence":10,"times":[420],"next_num":1,"trial_type":"ticket-choose","trial_index":29,"time_elapsed":120326,"internal_node_id":"0.0-29.0"},{"result":261,"points":0,"place":7,"phase":0,"sequence":11,"times":[465],"next_num":1,"trial_type":"ticket-choose","trial_index":30,"time_elapsed":122110,"internal_node_id":"0.0-30.0"},{"result":240,"points":0,"place":8,"phase":0,"sequence":12,"times":[454],"next_num":1,"trial_type":"ticket-choose","trial_index":31,"time_elapsed":123806,"internal_node_id":"0.0-31.0"},{"result":242,"points":0,"place":7,"phase":0,"sequence":13,"times":[499],"next_num":1,"trial_type":"ticket-choose","trial_index":32,"time_elapsed":125614,"internal_node_id":"0.0-32.0"},{"result":169,"points":1,"place":4,"phase":0,"sequence":14,"times":[290],"next_num":1,"trial_type":"ticket-choose","trial_index":33,"time_elapsed":127238,"internal_node_id":"0.0-33.0"},{"result":242,"points":0,"place":9,"phase":0,"sequence":15,"times":[408],"next_num":1,"trial_type":"ticket-choose","trial_index":34,"time_elapsed":128942,"internal_node_id":"0.0-34.0"},{"result":176,"points":3,"place":0,"phase":0,"sequence":16,"times":[328],"next_num":1,"trial_type":"ticket-choose","trial_index":35,"time_elapsed":130694,"internal_node_id":"0.0-35.0"},{"result":179,"points":1,"place":4,"phase":0,"sequence":17,"times":[200],"next_num":1,"trial_type":"ticket-choose","trial_index":36,"time_elapsed":132123,"internal_node_id":"0.0-36.0"},{"result":186,"points":1,"place":4,"phase":0,"sequence":18,"times":[415],"next_num":1,"trial_type":"ticket-choose","trial_index":37,"time_elapsed":133846,"internal_node_id":"0.0-37.0"},{"result":190,"points":1,"place":4,"phase":0,"sequence":19,"times":[403],"next_num":1,"trial_type":"ticket-choose","trial_index":38,"time_elapsed":135542,"internal_node_id":"0.0-38.0"},{"result":145,"points":3,"place":0,"phase":0,"sequence":20,"times":[355],"next_num":1,"trial_type":"ticket-choose","trial_index":39,"time_elapsed":137110,"internal_node_id":"0.0-39.0"},{"result":218,"points":0,"place":7,"phase":0,"sequence":21,"times":[408],"next_num":1,"trial_type":"ticket-choose","trial_index":40,"time_elapsed":138766,"internal_node_id":"0.0-40.0"},{"result":198,"points":1,"place":4,"phase":0,"sequence":22,"times":[400],"next_num":1,"trial_type":"ticket-choose","trial_index":41,"time_elapsed":140391,"internal_node_id":"0.0-41.0"},{"result":247,"points":0,"place":8,"phase":0,"sequence":23,"times":[351],"next_num":1,"trial_type":"ticket-choose","trial_index":42,"time_elapsed":141950,"internal_node_id":"0.0-42.0"},{"result":163,"points":3,"place":0,"phase":0,"sequence":24,"times":[289],"next_num":1,"trial_type":"ticket-choose","trial_index":43,"time_elapsed":143503,"internal_node_id":"0.0-43.0"},{"result":218,"points":0,"place":5,"phase":0,"sequence":25,"times":[289],"next_num":1,"trial_type":"ticket-choose","trial_index":44,"time_elapsed":145030,"internal_node_id":"0.0-44.0"},{"result":181,"points":1,"place":4,"phase":0,"sequence":26,"times":[447],"next_num":1,"trial_type":"ticket-choose","trial_index":45,"time_elapsed":146734,"internal_node_id":"0.0-45.0"},{"result":179,"points":1,"place":4,"phase":0,"sequence":27,"times":[477],"next_num":1,"trial_type":"ticket-choose","trial_index":46,"time_elapsed":148493,"internal_node_id":"0.0-46.0"},{"result":154,"points":3,"place":0,"phase":0,"sequence":28,"times":[448],"next_num":1,"trial_type":"ticket-choose","trial_index":47,"time_elapsed":150198,"internal_node_id":"0.0-47.0"},{"result":194,"points":1,"place":4,"phase":0,"sequence":29,"times":[477],"next_num":1,"trial_type":"ticket-choose","trial_index":48,"time_elapsed":152101,"internal_node_id":"0.0-48.0"},{"result":153,"points":3,"place":0,"phase":0,"sequence":30,"times":[527],"next_num":1,"trial_type":"ticket-choose","trial_index":49,"time_elapsed":154285,"internal_node_id":"0.0-49.0"},{"result":213,"points":1,"place":4,"phase":0,"sequence":31,"times":[523],"next_num":1,"trial_type":"ticket-choose","trial_index":50,"time_elapsed":156213,"internal_node_id":"0.0-50.0"},{"result":190,"points":1,"place":4,"phase":0,"sequence":32,"times":[542],"next_num":1,"trial_type":"ticket-choose","trial_index":51,"time_elapsed":158149,"internal_node_id":"0.0-51.0"},{"result":201,"points":0,"place":6,"phase":0,"sequence":33,"times":[503],"next_num":1,"trial_type":"ticket-choose","trial_index":52,"time_elapsed":159934,"internal_node_id":"0.0-52.0"},{"result":209,"points":1,"place":4,"phase":0,"sequence":34,"times":[469],"next_num":1,"trial_type":"ticket-choose","trial_index":53,"time_elapsed":161709,"internal_node_id":"0.0-53.0"},{"result":196,"points":1,"place":4,"phase":0,"sequence":35,"times":[427],"next_num":1,"trial_type":"ticket-choose","trial_index":54,"time_elapsed":163453,"internal_node_id":"0.0-54.0"},{"result":177,"points":1,"place":2,"phase":0,"sequence":36,"times":[410],"next_num":1,"trial_type":"ticket-choose","trial_index":55,"time_elapsed":165182,"internal_node_id":"0.0-55.0"},{"result":236,"points":0,"place":8,"phase":0,"sequence":37,"times":[414],"next_num":1,"trial_type":"ticket-choose","trial_index":56,"time_elapsed":166917,"internal_node_id":"0.0-56.0"},{"result":206,"points":0,"place":6,"phase":0,"sequence":38,"times":[341],"next_num":1,"trial_type":"ticket-choose","trial_index":57,"time_elapsed":168574,"internal_node_id":"0.0-57.0"},{"result":284,"points":0,"place":9,"phase":0,"sequence":39,"times":[283],"next_num":1,"trial_type":"ticket-choose","trial_index":58,"time_elapsed":170174,"internal_node_id":"0.0-58.0"},{"result":235,"points":0,"place":7,"phase":0,"sequence":40,"times":[276],"next_num":1,"trial_type":"ticket-choose","trial_index":59,"time_elapsed":171861,"internal_node_id":"0.0-59.0"},{"result":137,"points":3,"place":0,"phase":0,"sequence":41,"times":[384],"next_num":1,"trial_type":"ticket-choose","trial_index":60,"time_elapsed":173774,"internal_node_id":"0.0-60.0"},{"result":141,"points":3,"place":0,"phase":0,"sequence":42,"times":[401],"next_num":1,"trial_type":"ticket-choose","trial_index":61,"time_elapsed":175477,"internal_node_id":"0.0-61.0"},{"result":165,"points":1,"place":2,"phase":0,"sequence":43,"times":[433],"next_num":1,"trial_type":"ticket-choose","trial_index":62,"time_elapsed":177175,"internal_node_id":"0.0-62.0"},{"result":179,"points":1,"place":4,"phase":0,"sequence":44,"times":[453],"next_num":1,"trial_type":"ticket-choose","trial_index":63,"time_elapsed":178909,"internal_node_id":"0.0-63.0"},{"result":216,"points":0,"place":6,"phase":0,"sequence":45,"times":[416],"next_num":1,"trial_type":"ticket-choose","trial_index":64,"time_elapsed":180613,"internal_node_id":"0.0-64.0"},{"result":200,"points":1,"place":4,"phase":0,"sequence":46,"times":[400],"next_num":1,"trial_type":"ticket-choose","trial_index":65,"time_elapsed":182317,"internal_node_id":"0.0-65.0"},{"result":178,"points":3,"place":0,"phase":0,"sequence":47,"times":[428],"next_num":1,"trial_type":"ticket-choose","trial_index":66,"time_elapsed":184053,"internal_node_id":"0.0-66.0"},{"result":177,"points":1,"place":2,"phase":0,"sequence":48,"times":[427],"next_num":1,"trial_type":"ticket-choose","trial_index":67,"time_elapsed":185837,"internal_node_id":"0.0-67.0"},{"result":203,"points":1,"place":4,"phase":0,"sequence":49,"times":[409],"next_num":1,"trial_type":"ticket-choose","trial_index":68,"time_elapsed":187581,"internal_node_id":"0.0-68.0"},{"responses":[{"value":0,"offby":-1,"category":"$105 - $130","category_index":0},{"value":0,"offby":-2,"category":"$131 - $155","category_index":1},{"value":0,"offby":-2,"category":"$156 - $180","category_index":2},{"value":0,"offby":-5,"category":"$181 - $205","category_index":3},{"value":0,"offby":-5,"category":"$206 - $230","category_index":4},{"value":0,"offby":-3,"category":"$231 - $255","category_index":5},{"value":0,"offby":-2,"category":"$256 - $280","category_index":6}],"phase":0,"number":1,"trial_type":"bar-choose","trial_index":69,"time_elapsed":193595,"internal_node_id":"0.0-69.0"},{"rt":1405,"url":"\/tickets\/utils\/start2.html","trial_type":"html","trial_index":70,"time_elapsed":196183,"internal_node_id":"0.0-70.0"},{"trial_type":"number-animation","trial_index":71,"time_elapsed":203821,"internal_node_id":"0.0-71.0"},{"phase":1,"sequence":0,"avg":181,"response":160,"trial_type":"training_avg","trial_index":72,"time_elapsed":206551,"internal_node_id":"0.0-72.0"},{"trial_type":"number-animation","trial_index":73,"time_elapsed":212836,"internal_node_id":"0.0-73.0"},{"phase":1,"sequence":1,"avg":188,"response":160,"trial_type":"training_avg","trial_index":74,"time_elapsed":215597,"internal_node_id":"0.0-74.0"},{"trial_type":"number-animation","trial_index":75,"time_elapsed":222156,"internal_node_id":"0.0-75.0"},{"phase":1,"sequence":2,"avg":188,"response":160,"trial_type":"training_avg","trial_index":76,"time_elapsed":225564,"internal_node_id":"0.0-76.0"},{"trial_type":"number-animation","trial_index":77,"time_elapsed":232804,"internal_node_id":"0.0-77.0"},{"phase":1,"sequence":3,"avg":177,"response":160,"trial_type":"training_avg","trial_index":78,"time_elapsed":235912,"internal_node_id":"0.0-78.0"},{"trial_type":"number-animation","trial_index":79,"time_elapsed":242684,"internal_node_id":"0.0-79.0"},{"phase":1,"sequence":4,"avg":182,"response":160,"trial_type":"training_avg","trial_index":80,"time_elapsed":245780,"internal_node_id":"0.0-80.0"},{"responses":[{"value":0,"offby":0,"category":"$106 - $134","category_index":0},{"value":0,"offby":-1,"category":"$135 - $150","category_index":1},{"value":0,"offby":-3,"category":"$151 - $165","category_index":2},{"value":0,"offby":-6,"category":"$166 - $180","category_index":3},{"value":0,"offby":-6,"category":"$181 - $195","category_index":4},{"value":0,"offby":-3,"category":"$196 - $210","category_index":5},{"value":0,"offby":-1,"category":"$211 - $225","category_index":6}],"phase":1,"number":0,"trial_type":"bar-choose","trial_index":81,"time_elapsed":251216,"internal_node_id":"0.0-81.0"},{"rt":2135,"url":"\/tickets\/utils\/testing2.html","trial_type":"html","trial_index":82,"time_elapsed":254511,"internal_node_id":"0.0-82.0"},{"phase":1,"order":[20,19,7,32,2,45,48,0,34,29,8,46,47,41,10,43,23,16,6,11,22,39,4,30,28,40,13,17,26,9,21,18,5,44,14,15,38,37,49,42,33,27,25,31,1,36,3,24,35,12],"trial_type":"store_order","trial_index":83,"time_elapsed":255513,"internal_node_id":"0.0-83.0"},{"result":168,"points":1,"place":2,"phase":1,"sequence":0,"times":[1093],"next_num":1,"trial_type":"ticket-choose","trial_index":84,"time_elapsed":258172,"internal_node_id":"0.0-84.0"},{"result":200,"points":0,"place":8,"phase":1,"sequence":1,"times":[436],"next_num":1,"trial_type":"ticket-choose","trial_index":85,"time_elapsed":259900,"internal_node_id":"0.0-85.0"},{"result":159,"points":3,"place":0,"phase":1,"sequence":2,"times":[426],"next_num":1,"trial_type":"ticket-choose","trial_index":86,"time_elapsed":261605,"internal_node_id":"0.0-86.0"},{"result":175,"points":1,"place":4,"phase":1,"sequence":3,"times":[439],"next_num":1,"trial_type":"ticket-choose","trial_index":87,"time_elapsed":263316,"internal_node_id":"0.0-87.0"},{"result":210,"points":0,"place":7,"phase":1,"sequence":4,"times":[417],"next_num":1,"trial_type":"ticket-choose","trial_index":88,"time_elapsed":265005,"internal_node_id":"0.0-88.0"},{"result":186,"points":1,"place":4,"phase":1,"sequence":5,"times":[394],"next_num":1,"trial_type":"ticket-choose","trial_index":89,"time_elapsed":266651,"internal_node_id":"0.0-89.0"},{"result":150,"points":3,"place":0,"phase":1,"sequence":6,"times":[376],"next_num":1,"trial_type":"ticket-choose","trial_index":90,"time_elapsed":268331,"internal_node_id":"0.0-90.0"},{"result":189,"points":0,"place":5,"phase":1,"sequence":7,"times":[400],"next_num":1,"trial_type":"ticket-choose","trial_index":91,"time_elapsed":270035,"internal_node_id":"0.0-91.0"},{"result":212,"points":0,"place":9,"phase":1,"sequence":8,"times":[406],"next_num":1,"trial_type":"ticket-choose","trial_index":92,"time_elapsed":271739,"internal_node_id":"0.0-92.0"},{"result":177,"points":1,"place":4,"phase":1,"sequence":9,"times":[387],"next_num":1,"trial_type":"ticket-choose","trial_index":93,"time_elapsed":273467,"internal_node_id":"0.0-93.0"},{"result":188,"points":1,"place":4,"phase":1,"sequence":10,"times":[384],"next_num":1,"trial_type":"ticket-choose","trial_index":94,"time_elapsed":275115,"internal_node_id":"0.0-94.0"},{"result":180,"points":0,"place":6,"phase":1,"sequence":11,"times":[417],"next_num":1,"trial_type":"ticket-choose","trial_index":95,"time_elapsed":276819,"internal_node_id":"0.0-95.0"},{"result":198,"points":0,"place":8,"phase":1,"sequence":12,"times":[420],"next_num":1,"trial_type":"ticket-choose","trial_index":96,"time_elapsed":278563,"internal_node_id":"0.0-96.0"},{"result":169,"points":1,"place":4,"phase":1,"sequence":13,"times":[451],"next_num":1,"trial_type":"ticket-choose","trial_index":97,"time_elapsed":280356,"internal_node_id":"0.0-97.0"},{"result":178,"points":1,"place":4,"phase":1,"sequence":14,"times":[288],"next_num":1,"trial_type":"ticket-choose","trial_index":98,"time_elapsed":281923,"internal_node_id":"0.0-98.0"},{"result":175,"points":1,"place":4,"phase":1,"sequence":15,"times":[682],"next_num":1,"trial_type":"ticket-choose","trial_index":99,"time_elapsed":283940,"internal_node_id":"0.0-99.0"},{"result":201,"points":0,"place":9,"phase":1,"sequence":16,"times":[446],"next_num":1,"trial_type":"ticket-choose","trial_index":100,"time_elapsed":285731,"internal_node_id":"0.0-100.0"},{"result":182,"points":1,"place":4,"phase":1,"sequence":17,"times":[420],"next_num":1,"trial_type":"ticket-choose","trial_index":101,"time_elapsed":287483,"internal_node_id":"0.0-101.0"},{"result":169,"points":3,"place":0,"phase":1,"sequence":18,"times":[452],"next_num":1,"trial_type":"ticket-choose","trial_index":102,"time_elapsed":289251,"internal_node_id":"0.0-102.0"},{"result":180,"points":1,"place":4,"phase":1,"sequence":19,"times":[402],"next_num":1,"trial_type":"ticket-choose","trial_index":103,"time_elapsed":290971,"internal_node_id":"0.0-103.0"},{"result":197,"points":0,"place":7,"phase":1,"sequence":20,"times":[424],"next_num":1,"trial_type":"ticket-choose","trial_index":104,"time_elapsed":292699,"internal_node_id":"0.0-104.0"},{"result":181,"points":0,"place":5,"phase":1,"sequence":21,"times":[336],"next_num":1,"trial_type":"ticket-choose","trial_index":105,"time_elapsed":294331,"internal_node_id":"0.0-105.0"},{"result":148,"points":3,"place":0,"phase":1,"sequence":22,"times":[468],"next_num":1,"trial_type":"ticket-choose","trial_index":106,"time_elapsed":296050,"internal_node_id":"0.0-106.0"},{"result":157,"points":3,"place":0,"phase":1,"sequence":23,"times":[389],"next_num":1,"trial_type":"ticket-choose","trial_index":107,"time_elapsed":297676,"internal_node_id":"0.0-107.0"},{"result":161,"points":3,"place":0,"phase":1,"sequence":24,"times":[434],"next_num":1,"trial_type":"ticket-choose","trial_index":108,"time_elapsed":299395,"internal_node_id":"0.0-108.0"},{"result":222,"points":0,"place":9,"phase":1,"sequence":25,"times":[347],"next_num":1,"trial_type":"ticket-choose","trial_index":109,"time_elapsed":301019,"internal_node_id":"0.0-109.0"},{"result":184,"points":1,"place":4,"phase":1,"sequence":26,"times":[376],"next_num":1,"trial_type":"ticket-choose","trial_index":110,"time_elapsed":302746,"internal_node_id":"0.0-110.0"},{"result":189,"points":0,"place":7,"phase":1,"sequence":27,"times":[299],"next_num":1,"trial_type":"ticket-choose","trial_index":111,"time_elapsed":304347,"internal_node_id":"0.0-111.0"},{"result":162,"points":1,"place":2,"phase":1,"sequence":28,"times":[431],"next_num":1,"trial_type":"ticket-choose","trial_index":112,"time_elapsed":306067,"internal_node_id":"0.0-112.0"},{"result":179,"points":1,"place":4,"phase":1,"sequence":29,"times":[453],"next_num":1,"trial_type":"ticket-choose","trial_index":113,"time_elapsed":307802,"internal_node_id":"0.0-113.0"},{"result":170,"points":1,"place":4,"phase":1,"sequence":30,"times":[425],"next_num":1,"trial_type":"ticket-choose","trial_index":114,"time_elapsed":309628,"internal_node_id":"0.0-114.0"},{"result":168,"points":3,"place":0,"phase":1,"sequence":31,"times":[431],"next_num":1,"trial_type":"ticket-choose","trial_index":115,"time_elapsed":311307,"internal_node_id":"0.0-115.0"},{"result":183,"points":1,"place":4,"phase":1,"sequence":32,"times":[445],"next_num":1,"trial_type":"ticket-choose","trial_index":116,"time_elapsed":312994,"internal_node_id":"0.0-116.0"},{"result":203,"points":0,"place":8,"phase":1,"sequence":33,"times":[419],"next_num":1,"trial_type":"ticket-choose","trial_index":117,"time_elapsed":315698,"internal_node_id":"0.0-117.0"},{"result":156,"points":3,"place":0,"phase":1,"sequence":34,"times":[325],"next_num":1,"trial_type":"ticket-choose","trial_index":118,"time_elapsed":317546,"internal_node_id":"0.0-118.0"},{"result":168,"points":1,"place":2,"phase":1,"sequence":35,"times":[446],"next_num":1,"trial_type":"ticket-choose","trial_index":119,"time_elapsed":319306,"internal_node_id":"0.0-119.0"},{"result":178,"points":1,"place":4,"phase":1,"sequence":36,"times":[432],"next_num":1,"trial_type":"ticket-choose","trial_index":120,"time_elapsed":321034,"internal_node_id":"0.0-120.0"},{"result":188,"points":0,"place":6,"phase":1,"sequence":37,"times":[445],"next_num":1,"trial_type":"ticket-choose","trial_index":121,"time_elapsed":322730,"internal_node_id":"0.0-121.0"},{"result":183,"points":0,"place":6,"phase":1,"sequence":38,"times":[450],"next_num":1,"trial_type":"ticket-choose","trial_index":122,"time_elapsed":324395,"internal_node_id":"0.0-122.0"},{"result":169,"points":1,"place":4,"phase":1,"sequence":39,"times":[520],"next_num":1,"trial_type":"ticket-choose","trial_index":123,"time_elapsed":327426,"internal_node_id":"0.0-123.0"},{"result":181,"points":1,"place":4,"phase":1,"sequence":40,"times":[292],"next_num":1,"trial_type":"ticket-choose","trial_index":124,"time_elapsed":329106,"internal_node_id":"0.0-124.0"},{"result":173,"points":1,"place":4,"phase":1,"sequence":41,"times":[498],"next_num":1,"trial_type":"ticket-choose","trial_index":125,"time_elapsed":330858,"internal_node_id":"0.0-125.0"},{"result":169,"points":1,"place":4,"phase":1,"sequence":42,"times":[502],"next_num":1,"trial_type":"ticket-choose","trial_index":126,"time_elapsed":332594,"internal_node_id":"0.0-126.0"},{"result":201,"points":0,"place":7,"phase":1,"sequence":43,"times":[428],"next_num":1,"trial_type":"ticket-choose","trial_index":127,"time_elapsed":334298,"internal_node_id":"0.0-127.0"},{"result":181,"points":0,"place":6,"phase":1,"sequence":44,"times":[386],"next_num":1,"trial_type":"ticket-choose","trial_index":128,"time_elapsed":335919,"internal_node_id":"0.0-128.0"},{"result":161,"points":3,"place":0,"phase":1,"sequence":45,"times":[438],"next_num":1,"trial_type":"ticket-choose","trial_index":129,"time_elapsed":337594,"internal_node_id":"0.0-129.0"},{"result":178,"points":1,"place":4,"phase":1,"sequence":46,"times":[486],"next_num":1,"trial_type":"ticket-choose","trial_index":130,"time_elapsed":339303,"internal_node_id":"0.0-130.0"},{"result":164,"points":1,"place":4,"phase":1,"sequence":47,"times":[511],"next_num":1,"trial_type":"ticket-choose","trial_index":131,"time_elapsed":341036,"internal_node_id":"0.0-131.0"},{"result":152,"points":3,"place":0,"phase":1,"sequence":48,"times":[488],"next_num":1,"trial_type":"ticket-choose","trial_index":132,"time_elapsed":342826,"internal_node_id":"0.0-132.0"},{"result":182,"points":1,"place":3,"phase":1,"sequence":49,"times":[495],"next_num":1,"trial_type":"ticket-choose","trial_index":133,"time_elapsed":344626,"internal_node_id":"0.0-133.0"},{"responses":[{"value":0,"offby":0,"category":"$106 - $134","category_index":0},{"value":0,"offby":-1,"category":"$135 - $150","category_index":1},{"value":0,"offby":-3,"category":"$151 - $165","category_index":2},{"value":0,"offby":-6,"category":"$166 - $180","category_index":3},{"value":0,"offby":-6,"category":"$181 - $195","category_index":4},{"value":0,"offby":-3,"category":"$196 - $210","category_index":5},{"value":0,"offby":-1,"category":"$211 - $225","category_index":6}],"phase":1,"number":1,"trial_type":"bar-choose","trial_index":134,"time_elapsed":350142,"internal_node_id":"0.0-134.0"},{"during":"Nothing","bonus":144,"trial_type":"final","trial_index":135,"time_elapsed":365919,"internal_node_id":"0.0-135.0"}],"bonus":144}