{"start_time":"2017-01-24 15:25:25","end_time":"2017-01-24 15:46:39","points_phase0":89,"points_phase1":77,"phase_order":1,"age":34,"gender":"m","tries":1,"during":"Nothing","worker_id":"436961","assignment_id":"811778","data":[{"rt":40815,"url":"\/tickets\/utils\/consent.html","trial_type":"html","trial_index":0,"time_elapsed":40997,"internal_node_id":"0.0-0.0"},{"age":34,"gender":"m","trial_type":"age","trial_index":1,"time_elapsed":46752,"internal_node_id":"0.0-1.0"},{"tries":1,"trial_type":"instructions_check","trial_index":2,"time_elapsed":108048,"internal_node_id":"0.0-2.0"},{"rt":4791,"url":"\/tickets\/utils\/start.html","trial_type":"html","trial_index":3,"time_elapsed":114011,"internal_node_id":"0.0-3.0"},{"trial_type":"number-animation","trial_index":4,"time_elapsed":166717,"internal_node_id":"0.0-4.0"},{"phase":0,"sequence":0,"avg":184,"response":184,"trial_type":"training_avg","trial_index":5,"time_elapsed":227424,"internal_node_id":"0.0-5.0"},{"trial_type":"number-animation","trial_index":6,"time_elapsed":269382,"internal_node_id":"0.0-6.0"},{"phase":0,"sequence":1,"avg":199,"response":199,"trial_type":"training_avg","trial_index":7,"time_elapsed":288408,"internal_node_id":"0.0-7.0"},{"trial_type":"number-animation","trial_index":8,"time_elapsed":321452,"internal_node_id":"0.0-8.0"},{"phase":0,"sequence":2,"avg":199,"response":199,"trial_type":"training_avg","trial_index":9,"time_elapsed":331039,"internal_node_id":"0.0-9.0"},{"trial_type":"number-animation","trial_index":10,"time_elapsed":369953,"internal_node_id":"0.0-10.0"},{"phase":0,"sequence":3,"avg":210,"response":210,"trial_type":"training_avg","trial_index":11,"time_elapsed":387524,"internal_node_id":"0.0-11.0"},{"trial_type":"number-animation","trial_index":12,"time_elapsed":419312,"internal_node_id":"0.0-12.0"},{"phase":0,"sequence":4,"avg":202,"response":202,"trial_type":"training_avg","trial_index":13,"time_elapsed":432236,"internal_node_id":"0.0-13.0"},{"responses":[{"value":0,"offby":-1,"category":"$105 - $130","category_index":0},{"value":0,"offby":-2,"category":"$131 - $155","category_index":1},{"value":10,"offby":8,"category":"$156 - $180","category_index":2},{"value":10,"offby":5,"category":"$181 - $205","category_index":3},{"value":0,"offby":-5,"category":"$206 - $230","category_index":4},{"value":0,"offby":-3,"category":"$231 - $255","category_index":5},{"value":0,"offby":-2,"category":"$256 - $280","category_index":6}],"phase":0,"number":0,"trial_type":"bar-choose","trial_index":14,"time_elapsed":467355,"internal_node_id":"0.0-14.0"},{"rt":7747,"url":"\/tickets\/\/utils\/testing.html","trial_type":"html","trial_index":15,"time_elapsed":476993,"internal_node_id":"0.0-15.0"},{"phase":0,"order":[18,24,5,40,13,29,0,39,6,9,12,19,46,37,44,20,8,27,41,15,26,49,48,16,1,34,2,47,17,23,7,22,43,33,31,11,10,3,14,42,45,30,21,28,32,4,36,35,25,38],"trial_type":"store_order","trial_index":16,"time_elapsed":477998,"internal_node_id":"0.0-16.0"},{"result":165,"points":2,"place":1,"phase":0,"sequence":-1,"times":[4512,1308,1002,1446],"next_num":4,"trial_type":"ticket-choose","trial_index":17,"time_elapsed":489760,"internal_node_id":"0.0-17.0"},{"rt":4566,"url":"\/tickets\/utils\/testing_after.html","trial_type":"html","trial_index":18,"time_elapsed":495496,"internal_node_id":"0.0-18.0"},{"result":178,"points":1,"place":3,"phase":0,"sequence":0,"times":[1940,825,1387],"next_num":3,"trial_type":"ticket-choose","trial_index":19,"time_elapsed":503672,"internal_node_id":"0.0-19.0"},{"result":151,"points":2,"place":1,"phase":0,"sequence":1,"times":[2778,560,1098],"next_num":3,"trial_type":"ticket-choose","trial_index":20,"time_elapsed":510824,"internal_node_id":"0.0-20.0"},{"result":191,"points":2,"place":1,"phase":0,"sequence":2,"times":[779,540,572,590,931,646,1520],"next_num":7,"trial_type":"ticket-choose","trial_index":21,"time_elapsed":520160,"internal_node_id":"0.0-21.0"},{"result":137,"points":3,"place":0,"phase":0,"sequence":3,"times":[1371],"next_num":1,"trial_type":"ticket-choose","trial_index":22,"time_elapsed":525031,"internal_node_id":"0.0-22.0"},{"result":170,"points":2,"place":1,"phase":0,"sequence":4,"times":[1004,789,1860],"next_num":3,"trial_type":"ticket-choose","trial_index":23,"time_elapsed":531579,"internal_node_id":"0.0-23.0"},{"result":140,"points":3,"place":0,"phase":0,"sequence":5,"times":[871,994],"next_num":2,"trial_type":"ticket-choose","trial_index":24,"time_elapsed":536093,"internal_node_id":"0.0-24.0"},{"result":144,"points":3,"place":0,"phase":0,"sequence":6,"times":[691,655,755,1008],"next_num":4,"trial_type":"ticket-choose","trial_index":25,"time_elapsed":542064,"internal_node_id":"0.0-25.0"},{"result":157,"points":2,"place":1,"phase":0,"sequence":7,"times":[1018,742,905],"next_num":3,"trial_type":"ticket-choose","trial_index":26,"time_elapsed":547701,"internal_node_id":"0.0-26.0"},{"result":182,"points":1,"place":2,"phase":0,"sequence":8,"times":[1399,843,773,813,804,734,1068],"next_num":7,"trial_type":"ticket-choose","trial_index":27,"time_elapsed":557691,"internal_node_id":"0.0-27.0"},{"result":175,"points":2,"place":1,"phase":0,"sequence":9,"times":[4009,630,1232],"next_num":3,"trial_type":"ticket-choose","trial_index":28,"time_elapsed":566256,"internal_node_id":"0.0-28.0"},{"result":156,"points":3,"place":0,"phase":0,"sequence":10,"times":[694,564,612,713,595,880],"next_num":6,"trial_type":"ticket-choose","trial_index":29,"time_elapsed":574136,"internal_node_id":"0.0-29.0"},{"result":155,"points":3,"place":0,"phase":0,"sequence":11,"times":[899,1732,968],"next_num":3,"trial_type":"ticket-choose","trial_index":30,"time_elapsed":580375,"internal_node_id":"0.0-30.0"},{"result":173,"points":2,"place":1,"phase":0,"sequence":12,"times":[628,699,921],"next_num":3,"trial_type":"ticket-choose","trial_index":31,"time_elapsed":585015,"internal_node_id":"0.0-31.0"},{"result":189,"points":1,"place":3,"phase":0,"sequence":13,"times":[844,695,1303],"next_num":3,"trial_type":"ticket-choose","trial_index":32,"time_elapsed":590459,"internal_node_id":"0.0-32.0"},{"result":177,"points":1,"place":2,"phase":0,"sequence":14,"times":[1329],"next_num":1,"trial_type":"ticket-choose","trial_index":33,"time_elapsed":594151,"internal_node_id":"0.0-33.0"},{"result":169,"points":1,"place":4,"phase":0,"sequence":15,"times":[1087],"next_num":1,"trial_type":"ticket-choose","trial_index":34,"time_elapsed":597296,"internal_node_id":"0.0-34.0"},{"result":189,"points":1,"place":2,"phase":0,"sequence":16,"times":[880,679,722,665,681,720,1111],"next_num":7,"trial_type":"ticket-choose","trial_index":35,"time_elapsed":606415,"internal_node_id":"0.0-35.0"},{"result":175,"points":2,"place":1,"phase":0,"sequence":17,"times":[870,1019],"next_num":2,"trial_type":"ticket-choose","trial_index":36,"time_elapsed":610730,"internal_node_id":"0.0-36.0"},{"result":177,"points":1,"place":2,"phase":0,"sequence":18,"times":[1246],"next_num":1,"trial_type":"ticket-choose","trial_index":37,"time_elapsed":614064,"internal_node_id":"0.0-37.0"},{"result":191,"points":2,"place":1,"phase":0,"sequence":19,"times":[657,600,957],"next_num":3,"trial_type":"ticket-choose","trial_index":38,"time_elapsed":618767,"internal_node_id":"0.0-38.0"},{"result":145,"points":3,"place":0,"phase":0,"sequence":20,"times":[1944],"next_num":1,"trial_type":"ticket-choose","trial_index":39,"time_elapsed":622783,"internal_node_id":"0.0-39.0"},{"result":174,"points":1,"place":3,"phase":0,"sequence":21,"times":[1170,575,821],"next_num":3,"trial_type":"ticket-choose","trial_index":40,"time_elapsed":627760,"internal_node_id":"0.0-40.0"},{"result":175,"points":1,"place":2,"phase":0,"sequence":22,"times":[651,755,971,1341,769,1098,1310],"next_num":7,"trial_type":"ticket-choose","trial_index":41,"time_elapsed":638399,"internal_node_id":"0.0-41.0"},{"result":150,"points":2,"place":1,"phase":0,"sequence":23,"times":[723,828],"next_num":2,"trial_type":"ticket-choose","trial_index":42,"time_elapsed":642595,"internal_node_id":"0.0-42.0"},{"result":162,"points":3,"place":0,"phase":0,"sequence":24,"times":[890],"next_num":1,"trial_type":"ticket-choose","trial_index":43,"time_elapsed":645695,"internal_node_id":"0.0-43.0"},{"result":141,"points":3,"place":0,"phase":0,"sequence":25,"times":[984],"next_num":1,"trial_type":"ticket-choose","trial_index":44,"time_elapsed":648887,"internal_node_id":"0.0-44.0"},{"result":181,"points":1,"place":3,"phase":0,"sequence":26,"times":[768,625,773],"next_num":3,"trial_type":"ticket-choose","trial_index":45,"time_elapsed":653471,"internal_node_id":"0.0-45.0"},{"result":171,"points":2,"place":1,"phase":0,"sequence":27,"times":[509,696,838],"next_num":3,"trial_type":"ticket-choose","trial_index":46,"time_elapsed":657809,"internal_node_id":"0.0-46.0"},{"result":208,"points":1,"place":4,"phase":0,"sequence":28,"times":[797,672,909,994],"next_num":4,"trial_type":"ticket-choose","trial_index":47,"time_elapsed":663727,"internal_node_id":"0.0-47.0"},{"result":176,"points":3,"place":0,"phase":0,"sequence":29,"times":[912],"next_num":1,"trial_type":"ticket-choose","trial_index":48,"time_elapsed":666927,"internal_node_id":"0.0-48.0"},{"result":154,"points":3,"place":0,"phase":0,"sequence":30,"times":[924],"next_num":1,"trial_type":"ticket-choose","trial_index":49,"time_elapsed":669871,"internal_node_id":"0.0-49.0"},{"result":153,"points":3,"place":0,"phase":0,"sequence":31,"times":[788],"next_num":1,"trial_type":"ticket-choose","trial_index":50,"time_elapsed":672799,"internal_node_id":"0.0-50.0"},{"result":207,"points":1,"place":3,"phase":0,"sequence":32,"times":[873,788,1991],"next_num":3,"trial_type":"ticket-choose","trial_index":51,"time_elapsed":678936,"internal_node_id":"0.0-51.0"},{"result":179,"points":1,"place":4,"phase":0,"sequence":33,"times":[980],"next_num":1,"trial_type":"ticket-choose","trial_index":52,"time_elapsed":681969,"internal_node_id":"0.0-52.0"},{"result":179,"points":1,"place":2,"phase":0,"sequence":34,"times":[664,685,869],"next_num":3,"trial_type":"ticket-choose","trial_index":53,"time_elapsed":686495,"internal_node_id":"0.0-53.0"},{"result":188,"points":1,"place":3,"phase":0,"sequence":35,"times":[965,634,826],"next_num":3,"trial_type":"ticket-choose","trial_index":54,"time_elapsed":691255,"internal_node_id":"0.0-54.0"},{"result":166,"points":1,"place":2,"phase":0,"sequence":36,"times":[522,844],"next_num":2,"trial_type":"ticket-choose","trial_index":55,"time_elapsed":694814,"internal_node_id":"0.0-55.0"},{"result":187,"points":1,"place":2,"phase":0,"sequence":37,"times":[636,804],"next_num":2,"trial_type":"ticket-choose","trial_index":56,"time_elapsed":698375,"internal_node_id":"0.0-56.0"},{"result":182,"points":2,"place":1,"phase":0,"sequence":38,"times":[785,734,816],"next_num":3,"trial_type":"ticket-choose","trial_index":57,"time_elapsed":703054,"internal_node_id":"0.0-57.0"},{"result":158,"points":1,"place":2,"phase":0,"sequence":39,"times":[808,873],"next_num":2,"trial_type":"ticket-choose","trial_index":58,"time_elapsed":706855,"internal_node_id":"0.0-58.0"},{"result":198,"points":1,"place":4,"phase":0,"sequence":40,"times":[1120],"next_num":1,"trial_type":"ticket-choose","trial_index":59,"time_elapsed":709950,"internal_node_id":"0.0-59.0"},{"result":148,"points":2,"place":1,"phase":0,"sequence":41,"times":[895,829,841],"next_num":3,"trial_type":"ticket-choose","trial_index":60,"time_elapsed":714894,"internal_node_id":"0.0-60.0"},{"result":151,"points":3,"place":0,"phase":0,"sequence":42,"times":[1462,807],"next_num":2,"trial_type":"ticket-choose","trial_index":61,"time_elapsed":719368,"internal_node_id":"0.0-61.0"},{"result":190,"points":1,"place":4,"phase":0,"sequence":43,"times":[1078],"next_num":1,"trial_type":"ticket-choose","trial_index":62,"time_elapsed":722464,"internal_node_id":"0.0-62.0"},{"result":179,"points":1,"place":4,"phase":0,"sequence":44,"times":[1300],"next_num":1,"trial_type":"ticket-choose","trial_index":63,"time_elapsed":725854,"internal_node_id":"0.0-63.0"},{"result":133,"points":3,"place":0,"phase":0,"sequence":45,"times":[651,635,918],"next_num":3,"trial_type":"ticket-choose","trial_index":64,"time_elapsed":730614,"internal_node_id":"0.0-64.0"},{"result":184,"points":1,"place":3,"phase":0,"sequence":46,"times":[1245,672,971],"next_num":3,"trial_type":"ticket-choose","trial_index":65,"time_elapsed":736150,"internal_node_id":"0.0-65.0"},{"result":181,"points":1,"place":4,"phase":0,"sequence":47,"times":[936],"next_num":1,"trial_type":"ticket-choose","trial_index":66,"time_elapsed":739118,"internal_node_id":"0.0-66.0"},{"result":182,"points":2,"place":1,"phase":0,"sequence":48,"times":[739,660,591,649,686,695,866],"next_num":7,"trial_type":"ticket-choose","trial_index":67,"time_elapsed":747751,"internal_node_id":"0.0-67.0"},{"result":165,"points":1,"place":2,"phase":0,"sequence":49,"times":[875],"next_num":1,"trial_type":"ticket-choose","trial_index":68,"time_elapsed":750751,"internal_node_id":"0.0-68.0"},{"responses":[{"value":0,"offby":-1,"category":"$105 - $130","category_index":0},{"value":0,"offby":-2,"category":"$131 - $155","category_index":1},{"value":0,"offby":-2,"category":"$156 - $180","category_index":2},{"value":5,"offby":0,"category":"$181 - $205","category_index":3},{"value":5,"offby":0,"category":"$206 - $230","category_index":4},{"value":5,"offby":2,"category":"$231 - $255","category_index":5},{"value":0,"offby":-2,"category":"$256 - $280","category_index":6}],"phase":0,"number":1,"trial_type":"bar-choose","trial_index":69,"time_elapsed":771140,"internal_node_id":"0.0-69.0"},{"rt":5158,"url":"\/tickets\/utils\/start2.html","trial_type":"html","trial_index":70,"time_elapsed":777463,"internal_node_id":"0.0-70.0"},{"trial_type":"number-animation","trial_index":71,"time_elapsed":810913,"internal_node_id":"0.0-71.0"},{"phase":1,"sequence":0,"avg":181,"response":181,"trial_type":"training_avg","trial_index":72,"time_elapsed":820185,"internal_node_id":"0.0-72.0"},{"trial_type":"number-animation","trial_index":73,"time_elapsed":858672,"internal_node_id":"0.0-73.0"},{"phase":1,"sequence":1,"avg":188,"response":188,"trial_type":"training_avg","trial_index":74,"time_elapsed":870216,"internal_node_id":"0.0-74.0"},{"trial_type":"number-animation","trial_index":75,"time_elapsed":899740,"internal_node_id":"0.0-75.0"},{"phase":1,"sequence":2,"avg":188,"response":188,"trial_type":"training_avg","trial_index":76,"time_elapsed":906783,"internal_node_id":"0.0-76.0"},{"trial_type":"number-animation","trial_index":77,"time_elapsed":937928,"internal_node_id":"0.0-77.0"},{"phase":1,"sequence":3,"avg":177,"response":177,"trial_type":"training_avg","trial_index":78,"time_elapsed":945947,"internal_node_id":"0.0-78.0"},{"trial_type":"number-animation","trial_index":79,"time_elapsed":979157,"internal_node_id":"0.0-79.0"},{"phase":1,"sequence":4,"avg":182,"response":182,"trial_type":"training_avg","trial_index":80,"time_elapsed":986378,"internal_node_id":"0.0-80.0"},{"responses":[{"value":0,"offby":0,"category":"$106 - $134","category_index":0},{"value":0,"offby":-1,"category":"$135 - $150","category_index":1},{"value":0,"offby":-3,"category":"$151 - $165","category_index":2},{"value":10,"offby":4,"category":"$166 - $180","category_index":3},{"value":10,"offby":4,"category":"$181 - $195","category_index":4},{"value":0,"offby":-3,"category":"$196 - $210","category_index":5},{"value":0,"offby":-1,"category":"$211 - $225","category_index":6}],"phase":1,"number":0,"trial_type":"bar-choose","trial_index":81,"time_elapsed":1015564,"internal_node_id":"0.0-81.0"},{"rt":8225,"url":"\/tickets\/utils\/testing2.html","trial_type":"html","trial_index":82,"time_elapsed":1024969,"internal_node_id":"0.0-82.0"},{"phase":1,"order":[37,41,19,27,6,40,47,0,24,8,46,43,9,11,35,10,28,39,38,2,22,16,29,34,20,25,15,36,45,23,26,21,18,1,48,30,49,42,7,44,4,3,33,5,17,32,12,13,14,31],"trial_type":"store_order","trial_index":83,"time_elapsed":1025977,"internal_node_id":"0.0-83.0"},{"result":186,"points":1,"place":4,"phase":1,"sequence":0,"times":[1864],"next_num":1,"trial_type":"ticket-choose","trial_index":84,"time_elapsed":1030103,"internal_node_id":"0.0-84.0"},{"result":169,"points":3,"place":0,"phase":1,"sequence":1,"times":[1040],"next_num":1,"trial_type":"ticket-choose","trial_index":85,"time_elapsed":1033141,"internal_node_id":"0.0-85.0"},{"result":150,"points":2,"place":1,"phase":1,"sequence":2,"times":[1594,766,764],"next_num":3,"trial_type":"ticket-choose","trial_index":86,"time_elapsed":1039061,"internal_node_id":"0.0-86.0"},{"result":150,"points":3,"place":0,"phase":1,"sequence":3,"times":[1039,820],"next_num":2,"trial_type":"ticket-choose","trial_index":87,"time_elapsed":1043070,"internal_node_id":"0.0-87.0"},{"result":170,"points":1,"place":4,"phase":1,"sequence":4,"times":[880],"next_num":1,"trial_type":"ticket-choose","trial_index":88,"time_elapsed":1045867,"internal_node_id":"0.0-88.0"},{"result":159,"points":3,"place":0,"phase":1,"sequence":5,"times":[1035],"next_num":1,"trial_type":"ticket-choose","trial_index":89,"time_elapsed":1048790,"internal_node_id":"0.0-89.0"},{"result":158,"points":2,"place":1,"phase":1,"sequence":6,"times":[682,565,744],"next_num":3,"trial_type":"ticket-choose","trial_index":90,"time_elapsed":1053158,"internal_node_id":"0.0-90.0"},{"result":167,"points":2,"place":1,"phase":1,"sequence":7,"times":[734,878],"next_num":2,"trial_type":"ticket-choose","trial_index":91,"time_elapsed":1056824,"internal_node_id":"0.0-91.0"},{"result":165,"points":2,"place":1,"phase":1,"sequence":8,"times":[852,700,1049],"next_num":3,"trial_type":"ticket-choose","trial_index":92,"time_elapsed":1061890,"internal_node_id":"0.0-92.0"},{"result":166,"points":2,"place":1,"phase":1,"sequence":9,"times":[1082,694,827],"next_num":3,"trial_type":"ticket-choose","trial_index":93,"time_elapsed":1066918,"internal_node_id":"0.0-93.0"},{"result":172,"points":1,"place":3,"phase":1,"sequence":10,"times":[504,650,935],"next_num":3,"trial_type":"ticket-choose","trial_index":94,"time_elapsed":1071367,"internal_node_id":"0.0-94.0"},{"result":184,"points":1,"place":3,"phase":1,"sequence":11,"times":[555,970,926],"next_num":3,"trial_type":"ticket-choose","trial_index":95,"time_elapsed":1076293,"internal_node_id":"0.0-95.0"},{"result":184,"points":1,"place":3,"phase":1,"sequence":12,"times":[630,974],"next_num":2,"trial_type":"ticket-choose","trial_index":96,"time_elapsed":1079976,"internal_node_id":"0.0-96.0"},{"result":169,"points":1,"place":3,"phase":1,"sequence":13,"times":[618,786,848],"next_num":3,"trial_type":"ticket-choose","trial_index":97,"time_elapsed":1084557,"internal_node_id":"0.0-97.0"},{"result":159,"points":1,"place":2,"phase":1,"sequence":14,"times":[705,819],"next_num":2,"trial_type":"ticket-choose","trial_index":98,"time_elapsed":1088269,"internal_node_id":"0.0-98.0"},{"result":184,"points":1,"place":4,"phase":1,"sequence":15,"times":[543,757,632,630,648,685,812,827,882,644],"next_num":10,"trial_type":"ticket-choose","trial_index":99,"time_elapsed":1099181,"internal_node_id":"0.0-99.0"},{"result":178,"points":1,"place":4,"phase":1,"sequence":16,"times":[891],"next_num":1,"trial_type":"ticket-choose","trial_index":100,"time_elapsed":1102104,"internal_node_id":"0.0-100.0"},{"result":148,"points":3,"place":0,"phase":1,"sequence":17,"times":[782],"next_num":1,"trial_type":"ticket-choose","trial_index":101,"time_elapsed":1104701,"internal_node_id":"0.0-101.0"},{"result":155,"points":2,"place":1,"phase":1,"sequence":18,"times":[1246,642,766],"next_num":3,"trial_type":"ticket-choose","trial_index":102,"time_elapsed":1109868,"internal_node_id":"0.0-102.0"},{"result":178,"points":1,"place":4,"phase":1,"sequence":19,"times":[996],"next_num":1,"trial_type":"ticket-choose","trial_index":103,"time_elapsed":1112947,"internal_node_id":"0.0-103.0"},{"result":157,"points":3,"place":0,"phase":1,"sequence":20,"times":[795],"next_num":1,"trial_type":"ticket-choose","trial_index":104,"time_elapsed":1115798,"internal_node_id":"0.0-104.0"},{"result":183,"points":0,"place":6,"phase":1,"sequence":21,"times":[891],"next_num":1,"trial_type":"ticket-choose","trial_index":105,"time_elapsed":1118724,"internal_node_id":"0.0-105.0"},{"result":169,"points":1,"place":2,"phase":1,"sequence":22,"times":[897,586,852],"next_num":3,"trial_type":"ticket-choose","trial_index":106,"time_elapsed":1123436,"internal_node_id":"0.0-106.0"},{"result":169,"points":1,"place":4,"phase":1,"sequence":23,"times":[893],"next_num":1,"trial_type":"ticket-choose","trial_index":107,"time_elapsed":1126293,"internal_node_id":"0.0-107.0"},{"result":169,"points":1,"place":4,"phase":1,"sequence":24,"times":[809],"next_num":1,"trial_type":"ticket-choose","trial_index":108,"time_elapsed":1129275,"internal_node_id":"0.0-108.0"},{"result":155,"points":2,"place":1,"phase":1,"sequence":25,"times":[696,812],"next_num":2,"trial_type":"ticket-choose","trial_index":109,"time_elapsed":1133054,"internal_node_id":"0.0-109.0"},{"result":175,"points":2,"place":1,"phase":1,"sequence":26,"times":[732,683,848],"next_num":3,"trial_type":"ticket-choose","trial_index":110,"time_elapsed":1138291,"internal_node_id":"0.0-110.0"},{"result":181,"points":0,"place":5,"phase":1,"sequence":27,"times":[526,754],"next_num":2,"trial_type":"ticket-choose","trial_index":111,"time_elapsed":1141751,"internal_node_id":"0.0-111.0"},{"result":169,"points":1,"place":4,"phase":1,"sequence":28,"times":[1025],"next_num":1,"trial_type":"ticket-choose","trial_index":112,"time_elapsed":1144829,"internal_node_id":"0.0-112.0"},{"result":171,"points":2,"place":1,"phase":1,"sequence":29,"times":[2189,860,749],"next_num":3,"trial_type":"ticket-choose","trial_index":113,"time_elapsed":1150957,"internal_node_id":"0.0-113.0"},{"result":171,"points":2,"place":1,"phase":1,"sequence":30,"times":[1101,739,734],"next_num":3,"trial_type":"ticket-choose","trial_index":114,"time_elapsed":1155902,"internal_node_id":"0.0-114.0"},{"result":152,"points":3,"place":0,"phase":1,"sequence":31,"times":[898],"next_num":1,"trial_type":"ticket-choose","trial_index":115,"time_elapsed":1159045,"internal_node_id":"0.0-115.0"},{"result":187,"points":0,"place":6,"phase":1,"sequence":32,"times":[768,708],"next_num":2,"trial_type":"ticket-choose","trial_index":116,"time_elapsed":1162909,"internal_node_id":"0.0-116.0"},{"result":155,"points":3,"place":0,"phase":1,"sequence":33,"times":[667,701],"next_num":2,"trial_type":"ticket-choose","trial_index":117,"time_elapsed":1166364,"internal_node_id":"0.0-117.0"},{"result":183,"points":0,"place":5,"phase":1,"sequence":34,"times":[549,675],"next_num":2,"trial_type":"ticket-choose","trial_index":118,"time_elapsed":1170040,"internal_node_id":"0.0-118.0"},{"result":174,"points":1,"place":3,"phase":1,"sequence":35,"times":[693,592,796],"next_num":3,"trial_type":"ticket-choose","trial_index":119,"time_elapsed":1174565,"internal_node_id":"0.0-119.0"},{"result":164,"points":1,"place":4,"phase":1,"sequence":36,"times":[1067],"next_num":1,"trial_type":"ticket-choose","trial_index":120,"time_elapsed":1177765,"internal_node_id":"0.0-120.0"},{"result":154,"points":2,"place":1,"phase":1,"sequence":37,"times":[791,614,808],"next_num":3,"trial_type":"ticket-choose","trial_index":121,"time_elapsed":1182364,"internal_node_id":"0.0-121.0"},{"result":180,"points":1,"place":3,"phase":1,"sequence":38,"times":[498,848,930],"next_num":3,"trial_type":"ticket-choose","trial_index":122,"time_elapsed":1186997,"internal_node_id":"0.0-122.0"},{"result":173,"points":1,"place":2,"phase":1,"sequence":39,"times":[1057,874],"next_num":2,"trial_type":"ticket-choose","trial_index":123,"time_elapsed":1191175,"internal_node_id":"0.0-123.0"},{"result":192,"points":0,"place":7,"phase":1,"sequence":40,"times":[690,1164],"next_num":2,"trial_type":"ticket-choose","trial_index":124,"time_elapsed":1195274,"internal_node_id":"0.0-124.0"},{"result":174,"points":1,"place":3,"phase":1,"sequence":41,"times":[586,657,915],"next_num":3,"trial_type":"ticket-choose","trial_index":125,"time_elapsed":1199841,"internal_node_id":"0.0-125.0"},{"result":156,"points":3,"place":0,"phase":1,"sequence":42,"times":[876],"next_num":1,"trial_type":"ticket-choose","trial_index":126,"time_elapsed":1202655,"internal_node_id":"0.0-126.0"},{"result":161,"points":3,"place":0,"phase":1,"sequence":43,"times":[862],"next_num":1,"trial_type":"ticket-choose","trial_index":127,"time_elapsed":1205450,"internal_node_id":"0.0-127.0"},{"result":182,"points":1,"place":3,"phase":1,"sequence":44,"times":[849],"next_num":1,"trial_type":"ticket-choose","trial_index":128,"time_elapsed":1208230,"internal_node_id":"0.0-128.0"},{"result":179,"points":1,"place":4,"phase":1,"sequence":45,"times":[734],"next_num":1,"trial_type":"ticket-choose","trial_index":129,"time_elapsed":1210876,"internal_node_id":"0.0-129.0"},{"result":165,"points":2,"place":1,"phase":1,"sequence":46,"times":[940,746,879],"next_num":3,"trial_type":"ticket-choose","trial_index":130,"time_elapsed":1215916,"internal_node_id":"0.0-130.0"},{"result":168,"points":1,"place":2,"phase":1,"sequence":47,"times":[819],"next_num":1,"trial_type":"ticket-choose","trial_index":131,"time_elapsed":1218704,"internal_node_id":"0.0-131.0"},{"result":150,"points":3,"place":0,"phase":1,"sequence":48,"times":[829],"next_num":1,"trial_type":"ticket-choose","trial_index":132,"time_elapsed":1221590,"internal_node_id":"0.0-132.0"},{"result":168,"points":1,"place":2,"phase":1,"sequence":49,"times":[824],"next_num":1,"trial_type":"ticket-choose","trial_index":133,"time_elapsed":1224458,"internal_node_id":"0.0-133.0"},{"responses":[{"value":0,"offby":0,"category":"$106 - $134","category_index":0},{"value":0,"offby":-1,"category":"$135 - $150","category_index":1},{"value":5,"offby":2,"category":"$151 - $165","category_index":2},{"value":5,"offby":-1,"category":"$166 - $180","category_index":3},{"value":5,"offby":-1,"category":"$181 - $195","category_index":4},{"value":5,"offby":2,"category":"$196 - $210","category_index":5},{"value":0,"offby":-1,"category":"$211 - $225","category_index":6}],"phase":1,"number":1,"trial_type":"bar-choose","trial_index":134,"time_elapsed":1250190,"internal_node_id":"0.0-134.0"},{"during":"Nothing","bonus":220,"trial_type":"final","trial_index":135,"time_elapsed":1270481,"internal_node_id":"0.0-135.0"}],"bonus":220}