{"start_time":"2017-01-25 10:25:44","end_time":"2017-01-25 10:47:33","points_phase0":122,"points_phase1":121,"phase_order":0,"age":26,"gender":"m","tries":1,"during":"Nothing","worker_id":"512562","assignment_id":"700846","data":[{"rt":4096,"url":"\/tickets\/utils\/consent.html","trial_type":"html","trial_index":0,"time_elapsed":4165,"internal_node_id":"0.0-0.0"},{"age":26,"gender":"m","trial_type":"age","trial_index":1,"time_elapsed":9321,"internal_node_id":"0.0-1.0"},{"tries":1,"trial_type":"instructions_check","trial_index":2,"time_elapsed":79683,"internal_node_id":"0.0-2.0"},{"rt":8235,"url":"\/tickets\/utils\/start.html","trial_type":"html","trial_index":3,"time_elapsed":89002,"internal_node_id":"0.0-3.0"},{"trial_type":"number-animation","trial_index":4,"time_elapsed":101580,"internal_node_id":"0.0-4.0"},{"phase":0,"sequence":0,"avg":181,"response":180,"trial_type":"training_avg","trial_index":5,"time_elapsed":111478,"internal_node_id":"0.0-5.0"},{"trial_type":"number-animation","trial_index":6,"time_elapsed":119870,"internal_node_id":"0.0-6.0"},{"phase":0,"sequence":1,"avg":188,"response":190,"trial_type":"training_avg","trial_index":7,"time_elapsed":132663,"internal_node_id":"0.0-7.0"},{"trial_type":"number-animation","trial_index":8,"time_elapsed":140118,"internal_node_id":"0.0-8.0"},{"phase":0,"sequence":2,"avg":188,"response":185,"trial_type":"training_avg","trial_index":9,"time_elapsed":145574,"internal_node_id":"0.0-9.0"},{"trial_type":"number-animation","trial_index":10,"time_elapsed":153063,"internal_node_id":"0.0-10.0"},{"phase":0,"sequence":3,"avg":177,"response":160,"trial_type":"training_avg","trial_index":11,"time_elapsed":156573,"internal_node_id":"0.0-11.0"},{"trial_type":"number-animation","trial_index":12,"time_elapsed":163597,"internal_node_id":"0.0-12.0"},{"phase":0,"sequence":4,"avg":182,"response":180,"trial_type":"training_avg","trial_index":13,"time_elapsed":168176,"internal_node_id":"0.0-13.0"},{"responses":[{"value":1,"offby":1,"category":"$106 - $134","category_index":0},{"value":2,"offby":1,"category":"$135 - $150","category_index":1},{"value":3,"offby":0,"category":"$151 - $165","category_index":2},{"value":4,"offby":-2,"category":"$166 - $180","category_index":3},{"value":5,"offby":-1,"category":"$181 - $195","category_index":4},{"value":4,"offby":1,"category":"$196 - $210","category_index":5},{"value":1,"offby":0,"category":"$211 - $225","category_index":6}],"phase":0,"number":0,"trial_type":"bar-choose","trial_index":14,"time_elapsed":244956,"internal_node_id":"0.0-14.0"},{"rt":25360,"url":"\/tickets\/\/utils\/testing.html","trial_type":"html","trial_index":15,"time_elapsed":271402,"internal_node_id":"0.0-15.0"},{"phase":0,"order":[11,2,44,18,39,3,14,33,7,13,29,43,27,49,15,30,46,26,42,19,31,25,6,36,28,4,20,24,9,41,40,10,34,38,12,8,23,22,37,0,16,32,21,47,45,35,48,17,5,1],"trial_type":"store_order","trial_index":16,"time_elapsed":272402,"internal_node_id":"0.0-16.0"},{"result":165,"points":2,"place":1,"phase":0,"sequence":-1,"times":[1840,1048,601,1101],"next_num":4,"trial_type":"ticket-choose","trial_index":17,"time_elapsed":279945,"internal_node_id":"0.0-17.0"},{"rt":17580,"url":"\/tickets\/utils\/testing_after.html","trial_type":"html","trial_index":18,"time_elapsed":298600,"internal_node_id":"0.0-18.0"},{"result":167,"points":2,"place":1,"phase":0,"sequence":0,"times":[1532,930,622,632,1098,758,1673],"next_num":7,"trial_type":"ticket-choose","trial_index":19,"time_elapsed":310281,"internal_node_id":"0.0-19.0"},{"result":153,"points":3,"place":0,"phase":0,"sequence":1,"times":[1142,579,820,627,1125,604,1387,741,928,939],"next_num":10,"trial_type":"ticket-choose","trial_index":20,"time_elapsed":323778,"internal_node_id":"0.0-20.0"},{"result":159,"points":1,"place":2,"phase":0,"sequence":2,"times":[1465,957],"next_num":2,"trial_type":"ticket-choose","trial_index":21,"time_elapsed":329903,"internal_node_id":"0.0-21.0"},{"result":165,"points":2,"place":1,"phase":0,"sequence":3,"times":[943,544,568,553,601,588,851],"next_num":7,"trial_type":"ticket-choose","trial_index":22,"time_elapsed":337930,"internal_node_id":"0.0-22.0"},{"result":167,"points":2,"place":1,"phase":0,"sequence":4,"times":[961,1745],"next_num":2,"trial_type":"ticket-choose","trial_index":23,"time_elapsed":342910,"internal_node_id":"0.0-23.0"},{"result":154,"points":2,"place":1,"phase":0,"sequence":5,"times":[859,512,794],"next_num":3,"trial_type":"ticket-choose","trial_index":24,"time_elapsed":349622,"internal_node_id":"0.0-24.0"},{"result":163,"points":3,"place":0,"phase":0,"sequence":6,"times":[1298,455,363,538,479,534,795,730,837],"next_num":9,"trial_type":"ticket-choose","trial_index":25,"time_elapsed":359559,"internal_node_id":"0.0-25.0"},{"result":162,"points":2,"place":1,"phase":0,"sequence":7,"times":[2159,1654,446,473,517,1187],"next_num":6,"trial_type":"ticket-choose","trial_index":26,"time_elapsed":369040,"internal_node_id":"0.0-26.0"},{"result":155,"points":3,"place":0,"phase":0,"sequence":8,"times":[2264,396,1111,501,465,577,574,770,596,815],"next_num":10,"trial_type":"ticket-choose","trial_index":27,"time_elapsed":381634,"internal_node_id":"0.0-27.0"},{"result":163,"points":1,"place":3,"phase":0,"sequence":9,"times":[782,2185,1816],"next_num":3,"trial_type":"ticket-choose","trial_index":28,"time_elapsed":388717,"internal_node_id":"0.0-28.0"},{"result":159,"points":3,"place":0,"phase":0,"sequence":10,"times":[1073],"next_num":1,"trial_type":"ticket-choose","trial_index":29,"time_elapsed":392502,"internal_node_id":"0.0-29.0"},{"result":157,"points":3,"place":0,"phase":0,"sequence":11,"times":[789,481,895],"next_num":3,"trial_type":"ticket-choose","trial_index":30,"time_elapsed":397148,"internal_node_id":"0.0-30.0"},{"result":148,"points":3,"place":0,"phase":0,"sequence":12,"times":[1550],"next_num":1,"trial_type":"ticket-choose","trial_index":31,"time_elapsed":400790,"internal_node_id":"0.0-31.0"},{"result":148,"points":3,"place":0,"phase":0,"sequence":13,"times":[779,923,551,462,1660,865],"next_num":6,"trial_type":"ticket-choose","trial_index":32,"time_elapsed":408939,"internal_node_id":"0.0-32.0"},{"result":152,"points":3,"place":0,"phase":0,"sequence":14,"times":[1331,960,566,553,545,466,498,521,953],"next_num":9,"trial_type":"ticket-choose","trial_index":33,"time_elapsed":418894,"internal_node_id":"0.0-33.0"},{"result":138,"points":3,"place":0,"phase":0,"sequence":15,"times":[918,588,556,515,484,845],"next_num":6,"trial_type":"ticket-choose","trial_index":34,"time_elapsed":425798,"internal_node_id":"0.0-34.0"},{"result":158,"points":3,"place":0,"phase":0,"sequence":16,"times":[1130,565,633,632,585,903],"next_num":6,"trial_type":"ticket-choose","trial_index":35,"time_elapsed":433370,"internal_node_id":"0.0-35.0"},{"result":157,"points":3,"place":0,"phase":0,"sequence":17,"times":[1158],"next_num":1,"trial_type":"ticket-choose","trial_index":36,"time_elapsed":436701,"internal_node_id":"0.0-36.0"},{"result":143,"points":3,"place":0,"phase":0,"sequence":18,"times":[982,584,579,568,786],"next_num":5,"trial_type":"ticket-choose","trial_index":37,"time_elapsed":442920,"internal_node_id":"0.0-37.0"},{"result":175,"points":2,"place":1,"phase":0,"sequence":19,"times":[1082,583,555,679,655,571,1900],"next_num":7,"trial_type":"ticket-choose","trial_index":38,"time_elapsed":452189,"internal_node_id":"0.0-38.0"},{"result":160,"points":2,"place":1,"phase":0,"sequence":20,"times":[1829,467,564,486,585,845],"next_num":6,"trial_type":"ticket-choose","trial_index":39,"time_elapsed":459884,"internal_node_id":"0.0-39.0"},{"result":150,"points":3,"place":0,"phase":0,"sequence":21,"times":[1036],"next_num":1,"trial_type":"ticket-choose","trial_index":40,"time_elapsed":462844,"internal_node_id":"0.0-40.0"},{"result":155,"points":3,"place":0,"phase":0,"sequence":22,"times":[811,468,525,480,524,533,916,638,485,645],"next_num":10,"trial_type":"ticket-choose","trial_index":41,"time_elapsed":472730,"internal_node_id":"0.0-41.0"},{"result":154,"points":3,"place":0,"phase":0,"sequence":23,"times":[941,502,545,510,473,532,496,902],"next_num":8,"trial_type":"ticket-choose","trial_index":42,"time_elapsed":481193,"internal_node_id":"0.0-42.0"},{"result":161,"points":3,"place":0,"phase":0,"sequence":24,"times":[1513],"next_num":1,"trial_type":"ticket-choose","trial_index":43,"time_elapsed":484944,"internal_node_id":"0.0-43.0"},{"result":140,"points":3,"place":0,"phase":0,"sequence":25,"times":[996,534,505,483,535,589,592,735,539,560],"next_num":10,"trial_type":"ticket-choose","trial_index":44,"time_elapsed":494730,"internal_node_id":"0.0-44.0"},{"result":161,"points":3,"place":0,"phase":0,"sequence":26,"times":[1158],"next_num":1,"trial_type":"ticket-choose","trial_index":45,"time_elapsed":497731,"internal_node_id":"0.0-45.0"},{"result":185,"points":1,"place":4,"phase":0,"sequence":27,"times":[1232,574,624,545,523,535,512,507,470,548],"next_num":10,"trial_type":"ticket-choose","trial_index":46,"time_elapsed":507632,"internal_node_id":"0.0-46.0"},{"result":138,"points":3,"place":0,"phase":0,"sequence":28,"times":[743,569,1509,477,491,536,773,548,508,541],"next_num":10,"trial_type":"ticket-choose","trial_index":47,"time_elapsed":517940,"internal_node_id":"0.0-47.0"},{"result":155,"points":2,"place":1,"phase":0,"sequence":29,"times":[1020,480,802],"next_num":3,"trial_type":"ticket-choose","trial_index":48,"time_elapsed":522558,"internal_node_id":"0.0-48.0"},{"result":150,"points":3,"place":0,"phase":0,"sequence":30,"times":[1062,864],"next_num":2,"trial_type":"ticket-choose","trial_index":49,"time_elapsed":526580,"internal_node_id":"0.0-49.0"},{"result":161,"points":1,"place":3,"phase":0,"sequence":31,"times":[803,560,911],"next_num":3,"trial_type":"ticket-choose","trial_index":50,"time_elapsed":531117,"internal_node_id":"0.0-50.0"},{"result":155,"points":2,"place":1,"phase":0,"sequence":32,"times":[772,858],"next_num":2,"trial_type":"ticket-choose","trial_index":51,"time_elapsed":534709,"internal_node_id":"0.0-51.0"},{"result":163,"points":3,"place":0,"phase":0,"sequence":33,"times":[666,515,474,514,588,524,543,939],"next_num":8,"trial_type":"ticket-choose","trial_index":52,"time_elapsed":542706,"internal_node_id":"0.0-52.0"},{"result":148,"points":3,"place":0,"phase":0,"sequence":34,"times":[1445,713,610,633,580,549,586,530,913],"next_num":9,"trial_type":"ticket-choose","trial_index":53,"time_elapsed":552890,"internal_node_id":"0.0-53.0"},{"result":167,"points":2,"place":1,"phase":0,"sequence":35,"times":[667,543,933],"next_num":3,"trial_type":"ticket-choose","trial_index":54,"time_elapsed":557275,"internal_node_id":"0.0-54.0"},{"result":186,"points":1,"place":4,"phase":0,"sequence":36,"times":[1116,578,593,547,565,508,569,534,759,624],"next_num":10,"trial_type":"ticket-choose","trial_index":55,"time_elapsed":567466,"internal_node_id":"0.0-55.0"},{"result":152,"points":3,"place":0,"phase":0,"sequence":37,"times":[949],"next_num":1,"trial_type":"ticket-choose","trial_index":56,"time_elapsed":570209,"internal_node_id":"0.0-56.0"},{"result":163,"points":2,"place":1,"phase":0,"sequence":38,"times":[1369,635,450,826],"next_num":4,"trial_type":"ticket-choose","trial_index":57,"time_elapsed":576373,"internal_node_id":"0.0-57.0"},{"result":158,"points":2,"place":1,"phase":0,"sequence":39,"times":[980,558,973],"next_num":3,"trial_type":"ticket-choose","trial_index":58,"time_elapsed":581195,"internal_node_id":"0.0-58.0"},{"result":162,"points":2,"place":1,"phase":0,"sequence":40,"times":[882,612,665,514,552,522,843],"next_num":7,"trial_type":"ticket-choose","trial_index":59,"time_elapsed":589112,"internal_node_id":"0.0-59.0"},{"result":146,"points":3,"place":0,"phase":0,"sequence":41,"times":[715,495,2165],"next_num":3,"trial_type":"ticket-choose","trial_index":60,"time_elapsed":594779,"internal_node_id":"0.0-60.0"},{"result":179,"points":1,"place":4,"phase":0,"sequence":42,"times":[1011,578,592,585,585,734,1336,751,487,621],"next_num":10,"trial_type":"ticket-choose","trial_index":61,"time_elapsed":605792,"internal_node_id":"0.0-61.0"},{"result":152,"points":3,"place":0,"phase":0,"sequence":43,"times":[916,536,681,743],"next_num":4,"trial_type":"ticket-choose","trial_index":62,"time_elapsed":611212,"internal_node_id":"0.0-62.0"},{"result":164,"points":3,"place":0,"phase":0,"sequence":44,"times":[857,672,839,1045,1199,573,478,988],"next_num":8,"trial_type":"ticket-choose","trial_index":63,"time_elapsed":621252,"internal_node_id":"0.0-63.0"},{"result":154,"points":2,"place":1,"phase":0,"sequence":45,"times":[982,858],"next_num":2,"trial_type":"ticket-choose","trial_index":64,"time_elapsed":625227,"internal_node_id":"0.0-64.0"},{"result":147,"points":3,"place":0,"phase":0,"sequence":46,"times":[843,680,1579,1034],"next_num":4,"trial_type":"ticket-choose","trial_index":65,"time_elapsed":631833,"internal_node_id":"0.0-65.0"},{"result":150,"points":2,"place":1,"phase":0,"sequence":47,"times":[796,653,770,690,584,521,993],"next_num":7,"trial_type":"ticket-choose","trial_index":66,"time_elapsed":639957,"internal_node_id":"0.0-66.0"},{"result":150,"points":2,"place":1,"phase":0,"sequence":48,"times":[962,500,885],"next_num":3,"trial_type":"ticket-choose","trial_index":67,"time_elapsed":644587,"internal_node_id":"0.0-67.0"},{"result":154,"points":3,"place":0,"phase":0,"sequence":49,"times":[2552,4054,1170,795,579,571,1547,700,483,560],"next_num":10,"trial_type":"ticket-choose","trial_index":68,"time_elapsed":661660,"internal_node_id":"0.0-68.0"},{"responses":[{"value":0,"offby":0,"category":"$106 - $134","category_index":0},{"value":1,"offby":0,"category":"$135 - $150","category_index":1},{"value":3,"offby":0,"category":"$151 - $165","category_index":2},{"value":5,"offby":-1,"category":"$166 - $180","category_index":3},{"value":5,"offby":-1,"category":"$181 - $195","category_index":4},{"value":4,"offby":1,"category":"$196 - $210","category_index":5},{"value":2,"offby":1,"category":"$211 - $225","category_index":6}],"phase":0,"number":1,"trial_type":"bar-choose","trial_index":69,"time_elapsed":708342,"internal_node_id":"0.0-69.0"},{"rt":10108,"url":"\/tickets\/utils\/start2.html","trial_type":"html","trial_index":70,"time_elapsed":719550,"internal_node_id":"0.0-70.0"},{"trial_type":"number-animation","trial_index":71,"time_elapsed":729702,"internal_node_id":"0.0-71.0"},{"phase":1,"sequence":0,"avg":184,"response":170,"trial_type":"training_avg","trial_index":72,"time_elapsed":735416,"internal_node_id":"0.0-72.0"},{"trial_type":"number-animation","trial_index":73,"time_elapsed":744057,"internal_node_id":"0.0-73.0"},{"phase":1,"sequence":1,"avg":199,"response":205,"trial_type":"training_avg","trial_index":74,"time_elapsed":750956,"internal_node_id":"0.0-74.0"},{"trial_type":"number-animation","trial_index":75,"time_elapsed":759450,"internal_node_id":"0.0-75.0"},{"phase":1,"sequence":2,"avg":199,"response":195,"trial_type":"training_avg","trial_index":76,"time_elapsed":765670,"internal_node_id":"0.0-76.0"},{"trial_type":"number-animation","trial_index":77,"time_elapsed":772588,"internal_node_id":"0.0-77.0"},{"phase":1,"sequence":3,"avg":210,"response":215,"trial_type":"training_avg","trial_index":78,"time_elapsed":779627,"internal_node_id":"0.0-78.0"},{"trial_type":"number-animation","trial_index":79,"time_elapsed":786666,"internal_node_id":"0.0-79.0"},{"phase":1,"sequence":4,"avg":202,"response":190,"trial_type":"training_avg","trial_index":80,"time_elapsed":791452,"internal_node_id":"0.0-80.0"},{"responses":[{"value":0,"offby":-1,"category":"$105 - $130","category_index":0},{"value":2,"offby":0,"category":"$131 - $155","category_index":1},{"value":3,"offby":1,"category":"$156 - $180","category_index":2},{"value":5,"offby":0,"category":"$181 - $205","category_index":3},{"value":5,"offby":0,"category":"$206 - $230","category_index":4},{"value":4,"offby":1,"category":"$231 - $255","category_index":5},{"value":1,"offby":-1,"category":"$256 - $280","category_index":6}],"phase":1,"number":0,"trial_type":"bar-choose","trial_index":81,"time_elapsed":820365,"internal_node_id":"0.0-81.0"},{"rt":12428,"url":"\/tickets\/utils\/testing2.html","trial_type":"html","trial_index":82,"time_elapsed":833885,"internal_node_id":"0.0-82.0"},{"phase":1,"order":[17,29,40,11,3,1,12,26,45,48,32,20,4,35,22,21,13,38,44,18,8,46,10,37,43,9,31,15,30,41,36,49,0,24,16,23,14,5,2,7,6,25,47,39,28,27,33,42,34,19],"trial_type":"store_order","trial_index":83,"time_elapsed":834894,"internal_node_id":"0.0-83.0"},{"result":140,"points":2,"place":1,"phase":1,"sequence":0,"times":[2446,639,3053,642,668,604,915],"next_num":7,"trial_type":"ticket-choose","trial_index":84,"time_elapsed":847143,"internal_node_id":"0.0-84.0"},{"result":158,"points":3,"place":0,"phase":1,"sequence":1,"times":[2177],"next_num":1,"trial_type":"ticket-choose","trial_index":85,"time_elapsed":851200,"internal_node_id":"0.0-85.0"},{"result":140,"points":3,"place":0,"phase":1,"sequence":2,"times":[927,854],"next_num":2,"trial_type":"ticket-choose","trial_index":86,"time_elapsed":855171,"internal_node_id":"0.0-86.0"},{"result":139,"points":3,"place":0,"phase":1,"sequence":3,"times":[744,523,473,577,578,628,712,562,860],"next_num":9,"trial_type":"ticket-choose","trial_index":87,"time_elapsed":864287,"internal_node_id":"0.0-87.0"},{"result":148,"points":2,"place":1,"phase":1,"sequence":4,"times":[999,898,824],"next_num":3,"trial_type":"ticket-choose","trial_index":88,"time_elapsed":869260,"internal_node_id":"0.0-88.0"},{"result":148,"points":3,"place":0,"phase":1,"sequence":5,"times":[935,518,1240,491,467,542,565,530,622,740],"next_num":10,"trial_type":"ticket-choose","trial_index":89,"time_elapsed":880106,"internal_node_id":"0.0-89.0"},{"result":136,"points":3,"place":0,"phase":1,"sequence":6,"times":[985,565,309,536,495,511,473,619,802],"next_num":9,"trial_type":"ticket-choose","trial_index":90,"time_elapsed":889053,"internal_node_id":"0.0-90.0"},{"result":193,"points":1,"place":4,"phase":1,"sequence":7,"times":[1016,621,505,489,508,514,564,562,599,752],"next_num":10,"trial_type":"ticket-choose","trial_index":91,"time_elapsed":898973,"internal_node_id":"0.0-91.0"},{"result":175,"points":2,"place":1,"phase":1,"sequence":8,"times":[1033,552,531,589,1902],"next_num":5,"trial_type":"ticket-choose","trial_index":92,"time_elapsed":906233,"internal_node_id":"0.0-92.0"},{"result":135,"points":3,"place":0,"phase":1,"sequence":9,"times":[1193,529,1756,947],"next_num":4,"trial_type":"ticket-choose","trial_index":93,"time_elapsed":913248,"internal_node_id":"0.0-93.0"},{"result":133,"points":3,"place":0,"phase":1,"sequence":10,"times":[2716,649,847],"next_num":3,"trial_type":"ticket-choose","trial_index":94,"time_elapsed":919752,"internal_node_id":"0.0-94.0"},{"result":208,"points":1,"place":4,"phase":1,"sequence":11,"times":[1408,694,600,889,612,987,1087,533,507,605],"next_num":10,"trial_type":"ticket-choose","trial_index":95,"time_elapsed":931484,"internal_node_id":"0.0-95.0"},{"result":142,"points":3,"place":0,"phase":1,"sequence":12,"times":[1051,547,641,582,589,535,763,524,505,590],"next_num":10,"trial_type":"ticket-choose","trial_index":96,"time_elapsed":941443,"internal_node_id":"0.0-96.0"},{"result":129,"points":3,"place":0,"phase":1,"sequence":13,"times":[823,506,591,598,570,830],"next_num":6,"trial_type":"ticket-choose","trial_index":97,"time_elapsed":948588,"internal_node_id":"0.0-97.0"},{"result":145,"points":3,"place":0,"phase":1,"sequence":14,"times":[1249],"next_num":1,"trial_type":"ticket-choose","trial_index":98,"time_elapsed":951680,"internal_node_id":"0.0-98.0"},{"result":153,"points":3,"place":0,"phase":1,"sequence":15,"times":[1216],"next_num":1,"trial_type":"ticket-choose","trial_index":99,"time_elapsed":954669,"internal_node_id":"0.0-99.0"},{"result":148,"points":2,"place":1,"phase":1,"sequence":16,"times":[955,469,892,569,538,509,801],"next_num":7,"trial_type":"ticket-choose","trial_index":100,"time_elapsed":962691,"internal_node_id":"0.0-100.0"},{"result":167,"points":3,"place":0,"phase":1,"sequence":17,"times":[870,562,2912,474,589,555,546,879],"next_num":8,"trial_type":"ticket-choose","trial_index":101,"time_elapsed":973648,"internal_node_id":"0.0-101.0"},{"result":158,"points":1,"place":2,"phase":1,"sequence":18,"times":[1794,824],"next_num":2,"trial_type":"ticket-choose","trial_index":102,"time_elapsed":978371,"internal_node_id":"0.0-102.0"},{"result":117,"points":3,"place":0,"phase":1,"sequence":19,"times":[860,504,495,531,555,571,2102,613,779],"next_num":9,"trial_type":"ticket-choose","trial_index":103,"time_elapsed":989204,"internal_node_id":"0.0-103.0"},{"result":134,"points":3,"place":0,"phase":1,"sequence":20,"times":[809,568,749,547,562,524,684,670,487,541],"next_num":10,"trial_type":"ticket-choose","trial_index":104,"time_elapsed":999090,"internal_node_id":"0.0-104.0"},{"result":156,"points":3,"place":0,"phase":1,"sequence":21,"times":[1225,689,841,462,514,903],"next_num":6,"trial_type":"ticket-choose","trial_index":105,"time_elapsed":1006604,"internal_node_id":"0.0-105.0"},{"result":162,"points":1,"place":3,"phase":1,"sequence":22,"times":[2834,563,1325],"next_num":3,"trial_type":"ticket-choose","trial_index":106,"time_elapsed":1013544,"internal_node_id":"0.0-106.0"},{"result":145,"points":3,"place":0,"phase":1,"sequence":23,"times":[779,501,579,664,501,707,849],"next_num":7,"trial_type":"ticket-choose","trial_index":107,"time_elapsed":1021260,"internal_node_id":"0.0-107.0"},{"result":155,"points":3,"place":0,"phase":1,"sequence":24,"times":[10414,865,1098],"next_num":3,"trial_type":"ticket-choose","trial_index":108,"time_elapsed":1035935,"internal_node_id":"0.0-108.0"},{"result":170,"points":3,"place":0,"phase":1,"sequence":25,"times":[3733,1007,898,540,499,466,669,488,474,758],"next_num":10,"trial_type":"ticket-choose","trial_index":109,"time_elapsed":1050212,"internal_node_id":"0.0-109.0"},{"result":161,"points":2,"place":1,"phase":1,"sequence":26,"times":[1549,514,452,574,547,888],"next_num":6,"trial_type":"ticket-choose","trial_index":110,"time_elapsed":1057946,"internal_node_id":"0.0-110.0"},{"result":144,"points":3,"place":0,"phase":1,"sequence":27,"times":[833,1703,596,542,473,502,549,577,766],"next_num":9,"trial_type":"ticket-choose","trial_index":111,"time_elapsed":1068030,"internal_node_id":"0.0-111.0"},{"result":116,"points":3,"place":0,"phase":1,"sequence":28,"times":[1769,497,607,471,505,860],"next_num":6,"trial_type":"ticket-choose","trial_index":112,"time_elapsed":1076254,"internal_node_id":"0.0-112.0"},{"result":153,"points":1,"place":2,"phase":1,"sequence":29,"times":[1128,480,919,512,1369],"next_num":5,"trial_type":"ticket-choose","trial_index":113,"time_elapsed":1083425,"internal_node_id":"0.0-113.0"},{"result":148,"points":3,"place":0,"phase":1,"sequence":30,"times":[927,1093,980,509,645,642,645,795],"next_num":8,"trial_type":"ticket-choose","trial_index":114,"time_elapsed":1092870,"internal_node_id":"0.0-114.0"},{"result":136,"points":3,"place":0,"phase":1,"sequence":31,"times":[7627,1284,490,476,539,746],"next_num":6,"trial_type":"ticket-choose","trial_index":115,"time_elapsed":1106901,"internal_node_id":"0.0-115.0"},{"result":157,"points":2,"place":1,"phase":1,"sequence":32,"times":[852,524,840],"next_num":3,"trial_type":"ticket-choose","trial_index":116,"time_elapsed":1111258,"internal_node_id":"0.0-116.0"},{"result":210,"points":1,"place":4,"phase":1,"sequence":33,"times":[2947,533,566,440,542,497,585,577,487,949],"next_num":10,"trial_type":"ticket-choose","trial_index":117,"time_elapsed":1123158,"internal_node_id":"0.0-117.0"},{"result":165,"points":2,"place":1,"phase":1,"sequence":34,"times":[1835,480,458,496,610,523,822],"next_num":7,"trial_type":"ticket-choose","trial_index":118,"time_elapsed":1131848,"internal_node_id":"0.0-118.0"},{"result":212,"points":1,"place":4,"phase":1,"sequence":35,"times":[1934,528,621,640,672,597,751,558,464,599],"next_num":10,"trial_type":"ticket-choose","trial_index":119,"time_elapsed":1142957,"internal_node_id":"0.0-119.0"},{"result":182,"points":2,"place":1,"phase":1,"sequence":36,"times":[1337,611,510,490,574,547,1088],"next_num":7,"trial_type":"ticket-choose","trial_index":120,"time_elapsed":1151261,"internal_node_id":"0.0-120.0"},{"result":165,"points":1,"place":2,"phase":1,"sequence":37,"times":[5479,1081,452,656,573,626,985],"next_num":7,"trial_type":"ticket-choose","trial_index":121,"time_elapsed":1164206,"internal_node_id":"0.0-121.0"},{"result":147,"points":3,"place":0,"phase":1,"sequence":38,"times":[1743,706,623,495,507,488,492,501,474,629],"next_num":10,"trial_type":"ticket-choose","trial_index":122,"time_elapsed":1174592,"internal_node_id":"0.0-122.0"},{"result":150,"points":3,"place":0,"phase":1,"sequence":39,"times":[761,505,747,597,537,504,1847,722,501,528],"next_num":10,"trial_type":"ticket-choose","trial_index":123,"time_elapsed":1185809,"internal_node_id":"0.0-123.0"},{"result":150,"points":3,"place":0,"phase":1,"sequence":40,"times":[1299,523,481,471,507,484,578,463,585,493],"next_num":10,"trial_type":"ticket-choose","trial_index":124,"time_elapsed":1195344,"internal_node_id":"0.0-124.0"},{"result":141,"points":3,"place":0,"phase":1,"sequence":41,"times":[5876],"next_num":1,"trial_type":"ticket-choose","trial_index":125,"time_elapsed":1203080,"internal_node_id":"0.0-125.0"},{"result":144,"points":3,"place":0,"phase":1,"sequence":42,"times":[883,1050,1154,819],"next_num":4,"trial_type":"ticket-choose","trial_index":126,"time_elapsed":1209353,"internal_node_id":"0.0-126.0"},{"result":183,"points":1,"place":3,"phase":1,"sequence":43,"times":[1015,623,523,614,653,517,498,485,593,475],"next_num":10,"trial_type":"ticket-choose","trial_index":127,"time_elapsed":1219019,"internal_node_id":"0.0-127.0"},{"result":217,"points":1,"place":4,"phase":1,"sequence":44,"times":[1482,483,532,495,662,540,618,539,493,778],"next_num":10,"trial_type":"ticket-choose","trial_index":128,"time_elapsed":1230242,"internal_node_id":"0.0-128.0"},{"result":137,"points":3,"place":0,"phase":1,"sequence":45,"times":[1307],"next_num":1,"trial_type":"ticket-choose","trial_index":129,"time_elapsed":1233281,"internal_node_id":"0.0-129.0"},{"result":151,"points":3,"place":0,"phase":1,"sequence":46,"times":[1417,822],"next_num":2,"trial_type":"ticket-choose","trial_index":130,"time_elapsed":1237928,"internal_node_id":"0.0-130.0"},{"result":126,"points":3,"place":0,"phase":1,"sequence":47,"times":[1103,1356,563,1042,841],"next_num":5,"trial_type":"ticket-choose","trial_index":131,"time_elapsed":1246076,"internal_node_id":"0.0-131.0"},{"result":150,"points":2,"place":1,"phase":1,"sequence":48,"times":[1131,855],"next_num":2,"trial_type":"ticket-choose","trial_index":132,"time_elapsed":1250513,"internal_node_id":"0.0-132.0"},{"result":156,"points":3,"place":0,"phase":1,"sequence":49,"times":[1061,652,454,730,502,555,1099,677,756],"next_num":9,"trial_type":"ticket-choose","trial_index":133,"time_elapsed":1261275,"internal_node_id":"0.0-133.0"},{"responses":[{"value":0,"offby":-1,"category":"$105 - $130","category_index":0},{"value":2,"offby":0,"category":"$131 - $155","category_index":1},{"value":3,"offby":1,"category":"$156 - $180","category_index":2},{"value":5,"offby":0,"category":"$181 - $205","category_index":3},{"value":5,"offby":0,"category":"$206 - $230","category_index":4},{"value":3,"offby":0,"category":"$231 - $255","category_index":5},{"value":2,"offby":0,"category":"$256 - $280","category_index":6}],"phase":1,"number":1,"trial_type":"bar-choose","trial_index":134,"time_elapsed":1284797,"internal_node_id":"0.0-134.0"},{"during":"Nothing","bonus":324,"trial_type":"final","trial_index":135,"time_elapsed":1307574,"internal_node_id":"0.0-135.0"}],"bonus":324}