{"start_time":"2017-01-26 09:06:06","end_time":"2017-01-26 09:32:14","points_phase0":115,"points_phase1":118,"phase_order":0,"age":30,"gender":"m","tries":1,"during":"Nothing","worker_id":"569681","assignment_id":"36638","data":[{"rt":13349,"url":"\/tickets\/utils\/consent.html","trial_type":"html","trial_index":0,"time_elapsed":13442,"internal_node_id":"0.0-0.0"},{"age":30,"gender":"m","trial_type":"age","trial_index":1,"time_elapsed":31858,"internal_node_id":"0.0-1.0"},{"tries":1,"trial_type":"instructions_check","trial_index":2,"time_elapsed":64031,"internal_node_id":"0.0-2.0"},{"rt":8067,"url":"\/tickets\/utils\/start.html","trial_type":"html","trial_index":3,"time_elapsed":73321,"internal_node_id":"0.0-3.0"},{"trial_type":"number-animation","trial_index":4,"time_elapsed":121809,"internal_node_id":"0.0-4.0"},{"phase":0,"sequence":0,"avg":181,"response":181,"trial_type":"training_avg","trial_index":5,"time_elapsed":138049,"internal_node_id":"0.0-5.0"},{"trial_type":"number-animation","trial_index":6,"time_elapsed":172481,"internal_node_id":"0.0-6.0"},{"phase":0,"sequence":1,"avg":188,"response":188,"trial_type":"training_avg","trial_index":7,"time_elapsed":184352,"internal_node_id":"0.0-7.0"},{"trial_type":"number-animation","trial_index":8,"time_elapsed":219401,"internal_node_id":"0.0-8.0"},{"phase":0,"sequence":2,"avg":188,"response":188,"trial_type":"training_avg","trial_index":9,"time_elapsed":230162,"internal_node_id":"0.0-9.0"},{"trial_type":"number-animation","trial_index":10,"time_elapsed":261180,"internal_node_id":"0.0-10.0"},{"phase":0,"sequence":3,"avg":177,"response":177,"trial_type":"training_avg","trial_index":11,"time_elapsed":273994,"internal_node_id":"0.0-11.0"},{"trial_type":"number-animation","trial_index":12,"time_elapsed":298334,"internal_node_id":"0.0-12.0"},{"phase":0,"sequence":4,"avg":182,"response":182,"trial_type":"training_avg","trial_index":13,"time_elapsed":309334,"internal_node_id":"0.0-13.0"},{"responses":[{"value":0,"offby":0,"category":"$106 - $134","category_index":0},{"value":0,"offby":-1,"category":"$135 - $150","category_index":1},{"value":2,"offby":-1,"category":"$151 - $165","category_index":2},{"value":4,"offby":-2,"category":"$166 - $180","category_index":3},{"value":8,"offby":2,"category":"$181 - $195","category_index":4},{"value":5,"offby":2,"category":"$196 - $210","category_index":5},{"value":1,"offby":0,"category":"$211 - $225","category_index":6}],"phase":0,"number":0,"trial_type":"bar-choose","trial_index":14,"time_elapsed":407225,"internal_node_id":"0.0-14.0"},{"rt":17254,"url":"\/tickets\/\/utils\/testing.html","trial_type":"html","trial_index":15,"time_elapsed":425625,"internal_node_id":"0.0-15.0"},{"phase":0,"order":[6,31,1,38,49,30,4,7,24,0,26,44,29,22,5,43,40,36,12,35,33,13,46,27,17,37,3,45,32,19,11,47,28,9,10,20,16,41,25,34,14,23,18,8,42,48,39,15,21,2],"trial_type":"store_order","trial_index":16,"time_elapsed":426631,"internal_node_id":"0.0-16.0"},{"result":165,"points":2,"place":1,"phase":0,"sequence":-1,"times":[3540,2166,1344,3780],"next_num":4,"trial_type":"ticket-choose","trial_index":17,"time_elapsed":440673,"internal_node_id":"0.0-17.0"},{"rt":18464,"url":"\/tickets\/utils\/testing_after.html","trial_type":"html","trial_index":18,"time_elapsed":460257,"internal_node_id":"0.0-18.0"},{"result":165,"points":2,"place":1,"phase":0,"sequence":0,"times":[1760,1275,2575],"next_num":3,"trial_type":"ticket-choose","trial_index":19,"time_elapsed":469613,"internal_node_id":"0.0-19.0"},{"result":162,"points":1,"place":2,"phase":0,"sequence":1,"times":[1945],"next_num":1,"trial_type":"ticket-choose","trial_index":20,"time_elapsed":474362,"internal_node_id":"0.0-20.0"},{"result":162,"points":2,"place":1,"phase":0,"sequence":2,"times":[1263,739,3573],"next_num":3,"trial_type":"ticket-choose","trial_index":21,"time_elapsed":482737,"internal_node_id":"0.0-21.0"},{"result":163,"points":3,"place":0,"phase":0,"sequence":3,"times":[1443,727,716,786,806,698,919,1294],"next_num":8,"trial_type":"ticket-choose","trial_index":22,"time_elapsed":494650,"internal_node_id":"0.0-22.0"},{"result":163,"points":1,"place":2,"phase":0,"sequence":4,"times":[1546,1475],"next_num":2,"trial_type":"ticket-choose","trial_index":23,"time_elapsed":501413,"internal_node_id":"0.0-23.0"},{"result":138,"points":3,"place":0,"phase":0,"sequence":5,"times":[3126,824,690,632,604,1233],"next_num":6,"trial_type":"ticket-choose","trial_index":24,"time_elapsed":512192,"internal_node_id":"0.0-24.0"},{"result":140,"points":3,"place":0,"phase":0,"sequence":6,"times":[1366,587,603,741,800,708,670,1007,908,1195],"next_num":10,"trial_type":"ticket-choose","trial_index":25,"time_elapsed":525392,"internal_node_id":"0.0-25.0"},{"result":155,"points":3,"place":0,"phase":0,"sequence":7,"times":[1560,711,789,754,969,635,1071,929,1015,1231],"next_num":10,"trial_type":"ticket-choose","trial_index":26,"time_elapsed":539673,"internal_node_id":"0.0-26.0"},{"result":185,"points":1,"place":4,"phase":0,"sequence":8,"times":[1446,652,1442,798,811,730,1432,780,1293,3810],"next_num":11,"trial_type":"ticket-choose","trial_index":27,"time_elapsed":557712,"internal_node_id":"0.0-27.0"},{"result":158,"points":2,"place":1,"phase":0,"sequence":9,"times":[1363,833,1289],"next_num":3,"trial_type":"ticket-choose","trial_index":28,"time_elapsed":563801,"internal_node_id":"0.0-28.0"},{"result":157,"points":3,"place":0,"phase":0,"sequence":10,"times":[2110],"next_num":1,"trial_type":"ticket-choose","trial_index":29,"time_elapsed":568402,"internal_node_id":"0.0-29.0"},{"result":149,"points":2,"place":1,"phase":0,"sequence":11,"times":[1110,1717,1142],"next_num":3,"trial_type":"ticket-choose","trial_index":30,"time_elapsed":575273,"internal_node_id":"0.0-30.0"},{"result":170,"points":1,"place":4,"phase":0,"sequence":12,"times":[1955,631,611,667,771,737,1188,816,820,659],"next_num":11,"trial_type":"ticket-choose","trial_index":31,"time_elapsed":588621,"internal_node_id":"0.0-31.0"},{"result":152,"points":3,"place":0,"phase":0,"sequence":13,"times":[1157],"next_num":1,"trial_type":"ticket-choose","trial_index":32,"time_elapsed":592322,"internal_node_id":"0.0-32.0"},{"result":150,"points":2,"place":1,"phase":0,"sequence":14,"times":[1409,574,1052],"next_num":3,"trial_type":"ticket-choose","trial_index":33,"time_elapsed":598009,"internal_node_id":"0.0-33.0"},{"result":157,"points":3,"place":0,"phase":0,"sequence":15,"times":[1099,640,2338],"next_num":3,"trial_type":"ticket-choose","trial_index":34,"time_elapsed":605017,"internal_node_id":"0.0-34.0"},{"result":150,"points":3,"place":0,"phase":0,"sequence":16,"times":[960,967],"next_num":2,"trial_type":"ticket-choose","trial_index":35,"time_elapsed":609481,"internal_node_id":"0.0-35.0"},{"result":154,"points":3,"place":0,"phase":0,"sequence":17,"times":[1047,896,1300,593,591,639,599,883],"next_num":8,"trial_type":"ticket-choose","trial_index":36,"time_elapsed":620017,"internal_node_id":"0.0-36.0"},{"result":148,"points":3,"place":0,"phase":0,"sequence":18,"times":[1549,865,853,1049,632,904,820,748,1069],"next_num":9,"trial_type":"ticket-choose","trial_index":37,"time_elapsed":632217,"internal_node_id":"0.0-37.0"},{"result":154,"points":2,"place":1,"phase":0,"sequence":19,"times":[2697,1237],"next_num":2,"trial_type":"ticket-choose","trial_index":38,"time_elapsed":638489,"internal_node_id":"0.0-38.0"},{"result":155,"points":3,"place":0,"phase":0,"sequence":20,"times":[1183,1545],"next_num":2,"trial_type":"ticket-choose","trial_index":39,"time_elapsed":643721,"internal_node_id":"0.0-39.0"},{"result":154,"points":2,"place":1,"phase":0,"sequence":21,"times":[757,662,1253,569,668,692,980],"next_num":7,"trial_type":"ticket-choose","trial_index":40,"time_elapsed":652537,"internal_node_id":"0.0-40.0"},{"result":208,"points":0,"place":6,"phase":0,"sequence":22,"times":[1264,638,635,743,664,2650,647,569,1121,828],"next_num":11,"trial_type":"ticket-choose","trial_index":41,"time_elapsed":666545,"internal_node_id":"0.0-41.0"},{"result":148,"points":3,"place":0,"phase":0,"sequence":23,"times":[1207],"next_num":1,"trial_type":"ticket-choose","trial_index":42,"time_elapsed":669913,"internal_node_id":"0.0-42.0"},{"result":168,"points":1,"place":3,"phase":0,"sequence":24,"times":[1238,573,3502],"next_num":3,"trial_type":"ticket-choose","trial_index":43,"time_elapsed":677649,"internal_node_id":"0.0-43.0"},{"result":163,"points":2,"place":1,"phase":0,"sequence":25,"times":[897,547,894,1524],"next_num":4,"trial_type":"ticket-choose","trial_index":44,"time_elapsed":684209,"internal_node_id":"0.0-44.0"},{"result":154,"points":2,"place":1,"phase":0,"sequence":26,"times":[1143,759,1003],"next_num":3,"trial_type":"ticket-choose","trial_index":45,"time_elapsed":689617,"internal_node_id":"0.0-45.0"},{"result":164,"points":3,"place":0,"phase":0,"sequence":27,"times":[1010,647,652,586,1006,739,674,1043],"next_num":8,"trial_type":"ticket-choose","trial_index":46,"time_elapsed":699418,"internal_node_id":"0.0-46.0"},{"result":146,"points":3,"place":0,"phase":0,"sequence":28,"times":[946,524,1095],"next_num":3,"trial_type":"ticket-choose","trial_index":47,"time_elapsed":704561,"internal_node_id":"0.0-47.0"},{"result":158,"points":3,"place":0,"phase":0,"sequence":29,"times":[1225,657,628,693,635,637,796,688,973],"next_num":9,"trial_type":"ticket-choose","trial_index":48,"time_elapsed":715049,"internal_node_id":"0.0-48.0"},{"result":167,"points":2,"place":1,"phase":0,"sequence":30,"times":[893,561,586,593,606,1053,2399],"next_num":7,"trial_type":"ticket-choose","trial_index":49,"time_elapsed":724874,"internal_node_id":"0.0-49.0"},{"result":152,"points":3,"place":0,"phase":0,"sequence":31,"times":[1243,650,552,1571],"next_num":4,"trial_type":"ticket-choose","trial_index":50,"time_elapsed":731522,"internal_node_id":"0.0-50.0"},{"result":161,"points":3,"place":0,"phase":0,"sequence":32,"times":[1803],"next_num":1,"trial_type":"ticket-choose","trial_index":51,"time_elapsed":735411,"internal_node_id":"0.0-51.0"},{"result":166,"points":2,"place":1,"phase":0,"sequence":33,"times":[896,577,1405],"next_num":3,"trial_type":"ticket-choose","trial_index":52,"time_elapsed":740682,"internal_node_id":"0.0-52.0"},{"result":164,"points":1,"place":4,"phase":0,"sequence":34,"times":[1096],"next_num":1,"trial_type":"ticket-choose","trial_index":53,"time_elapsed":743829,"internal_node_id":"0.0-53.0"},{"result":161,"points":3,"place":0,"phase":0,"sequence":35,"times":[982],"next_num":1,"trial_type":"ticket-choose","trial_index":54,"time_elapsed":747594,"internal_node_id":"0.0-54.0"},{"result":167,"points":1,"place":3,"phase":0,"sequence":36,"times":[1240,621,1834],"next_num":3,"trial_type":"ticket-choose","trial_index":55,"time_elapsed":753578,"internal_node_id":"0.0-55.0"},{"result":155,"points":2,"place":1,"phase":0,"sequence":37,"times":[730,516,952],"next_num":3,"trial_type":"ticket-choose","trial_index":56,"time_elapsed":758091,"internal_node_id":"0.0-56.0"},{"result":150,"points":3,"place":0,"phase":0,"sequence":38,"times":[832],"next_num":1,"trial_type":"ticket-choose","trial_index":57,"time_elapsed":761086,"internal_node_id":"0.0-57.0"},{"result":155,"points":2,"place":1,"phase":0,"sequence":39,"times":[1227,1226],"next_num":2,"trial_type":"ticket-choose","trial_index":58,"time_elapsed":765722,"internal_node_id":"0.0-58.0"},{"result":163,"points":3,"place":0,"phase":0,"sequence":40,"times":[1433,586,672,831,612,608,2190,755,1318],"next_num":9,"trial_type":"ticket-choose","trial_index":59,"time_elapsed":778418,"internal_node_id":"0.0-59.0"},{"result":186,"points":1,"place":4,"phase":0,"sequence":41,"times":[2618,540,564,526,517,657,591,756,626,1752],"next_num":11,"trial_type":"ticket-choose","trial_index":60,"time_elapsed":791906,"internal_node_id":"0.0-60.0"},{"result":165,"points":2,"place":1,"phase":0,"sequence":42,"times":[1198,533,564,629,759,554,1560],"next_num":7,"trial_type":"ticket-choose","trial_index":61,"time_elapsed":801033,"internal_node_id":"0.0-61.0"},{"result":147,"points":3,"place":0,"phase":0,"sequence":43,"times":[1286,835,1190,504,717,684,886,597,707,1030],"next_num":10,"trial_type":"ticket-choose","trial_index":62,"time_elapsed":813440,"internal_node_id":"0.0-62.0"},{"result":143,"points":3,"place":0,"phase":0,"sequence":44,"times":[1245,572,416,627,937],"next_num":5,"trial_type":"ticket-choose","trial_index":63,"time_elapsed":820307,"internal_node_id":"0.0-63.0"},{"result":147,"points":3,"place":0,"phase":0,"sequence":45,"times":[1186,1006,981,1671],"next_num":4,"trial_type":"ticket-choose","trial_index":64,"time_elapsed":827762,"internal_node_id":"0.0-64.0"},{"result":167,"points":2,"place":1,"phase":0,"sequence":46,"times":[1207,1953],"next_num":2,"trial_type":"ticket-choose","trial_index":65,"time_elapsed":833450,"internal_node_id":"0.0-65.0"},{"result":166,"points":2,"place":1,"phase":0,"sequence":47,"times":[1297,596,557,564,559,594,1103],"next_num":7,"trial_type":"ticket-choose","trial_index":66,"time_elapsed":842249,"internal_node_id":"0.0-66.0"},{"result":156,"points":3,"place":0,"phase":0,"sequence":48,"times":[1375],"next_num":1,"trial_type":"ticket-choose","trial_index":67,"time_elapsed":845993,"internal_node_id":"0.0-67.0"},{"result":153,"points":3,"place":0,"phase":0,"sequence":49,"times":[1117,614,1149,586,614,698,693,669,855,1020],"next_num":10,"trial_type":"ticket-choose","trial_index":68,"time_elapsed":860063,"internal_node_id":"0.0-68.0"},{"responses":[{"value":0,"offby":0,"category":"$106 - $134","category_index":0},{"value":0,"offby":-1,"category":"$135 - $150","category_index":1},{"value":4,"offby":1,"category":"$151 - $165","category_index":2},{"value":5,"offby":-1,"category":"$166 - $180","category_index":3},{"value":6,"offby":0,"category":"$181 - $195","category_index":4},{"value":3,"offby":0,"category":"$196 - $210","category_index":5},{"value":1,"offby":0,"category":"$211 - $225","category_index":6}],"phase":0,"number":1,"trial_type":"bar-choose","trial_index":69,"time_elapsed":925365,"internal_node_id":"0.0-69.0"},{"rt":9220,"url":"\/tickets\/utils\/start2.html","trial_type":"html","trial_index":70,"time_elapsed":935738,"internal_node_id":"0.0-70.0"},{"trial_type":"number-animation","trial_index":71,"time_elapsed":966865,"internal_node_id":"0.0-71.0"},{"phase":1,"sequence":0,"avg":184,"response":184,"trial_type":"training_avg","trial_index":72,"time_elapsed":975936,"internal_node_id":"0.0-72.0"},{"trial_type":"number-animation","trial_index":73,"time_elapsed":1001062,"internal_node_id":"0.0-73.0"},{"phase":1,"sequence":1,"avg":199,"response":199,"trial_type":"training_avg","trial_index":74,"time_elapsed":1012158,"internal_node_id":"0.0-74.0"},{"trial_type":"number-animation","trial_index":75,"time_elapsed":1042458,"internal_node_id":"0.0-75.0"},{"phase":1,"sequence":2,"avg":199,"response":199,"trial_type":"training_avg","trial_index":76,"time_elapsed":1059904,"internal_node_id":"0.0-76.0"},{"trial_type":"number-animation","trial_index":77,"time_elapsed":1083829,"internal_node_id":"0.0-77.0"},{"phase":1,"sequence":3,"avg":210,"response":210,"trial_type":"training_avg","trial_index":78,"time_elapsed":1095312,"internal_node_id":"0.0-78.0"},{"trial_type":"number-animation","trial_index":79,"time_elapsed":1123502,"internal_node_id":"0.0-79.0"},{"phase":1,"sequence":4,"avg":202,"response":202,"trial_type":"training_avg","trial_index":80,"time_elapsed":1137170,"internal_node_id":"0.0-80.0"},{"responses":[{"value":0,"offby":-1,"category":"$105 - $130","category_index":0},{"value":2,"offby":0,"category":"$131 - $155","category_index":1},{"value":3,"offby":1,"category":"$156 - $180","category_index":2},{"value":4,"offby":-1,"category":"$181 - $205","category_index":3},{"value":5,"offby":0,"category":"$206 - $230","category_index":4},{"value":4,"offby":1,"category":"$231 - $255","category_index":5},{"value":2,"offby":0,"category":"$256 - $280","category_index":6}],"phase":1,"number":0,"trial_type":"bar-choose","trial_index":81,"time_elapsed":1165994,"internal_node_id":"0.0-81.0"},{"rt":7093,"url":"\/tickets\/utils\/testing2.html","trial_type":"html","trial_index":82,"time_elapsed":1174355,"internal_node_id":"0.0-82.0"},{"phase":1,"order":[38,4,37,17,22,41,9,39,0,20,24,2,10,25,14,35,6,27,29,40,15,11,48,28,13,32,7,31,42,18,45,30,26,1,5,43,19,12,46,33,34,47,44,16,8,49,21,3,36,23],"trial_type":"store_order","trial_index":83,"time_elapsed":1175364,"internal_node_id":"0.0-83.0"},{"result":167,"points":3,"place":0,"phase":1,"sequence":0,"times":[1869,605,507,544,568,526,553,1350],"next_num":8,"trial_type":"ticket-choose","trial_index":84,"time_elapsed":1185722,"internal_node_id":"0.0-84.0"},{"result":142,"points":3,"place":0,"phase":1,"sequence":1,"times":[920,546,471,513,461,510,907,607,602,915],"next_num":10,"trial_type":"ticket-choose","trial_index":85,"time_elapsed":1195978,"internal_node_id":"0.0-85.0"},{"result":167,"points":2,"place":1,"phase":1,"sequence":2,"times":[1010,482,886,1750],"next_num":4,"trial_type":"ticket-choose","trial_index":86,"time_elapsed":1202641,"internal_node_id":"0.0-86.0"},{"result":140,"points":2,"place":1,"phase":1,"sequence":3,"times":[700,390,459,478,448,503,976],"next_num":7,"trial_type":"ticket-choose","trial_index":87,"time_elapsed":1209577,"internal_node_id":"0.0-87.0"},{"result":145,"points":3,"place":0,"phase":1,"sequence":4,"times":[1193],"next_num":1,"trial_type":"ticket-choose","trial_index":88,"time_elapsed":1213184,"internal_node_id":"0.0-88.0"},{"result":151,"points":2,"place":1,"phase":1,"sequence":5,"times":[727,508,996],"next_num":3,"trial_type":"ticket-choose","trial_index":89,"time_elapsed":1217722,"internal_node_id":"0.0-89.0"},{"result":170,"points":3,"place":0,"phase":1,"sequence":6,"times":[744,425,985,575,532,571,1094,548,577,1015],"next_num":10,"trial_type":"ticket-choose","trial_index":90,"time_elapsed":1229194,"internal_node_id":"0.0-90.0"},{"result":171,"points":3,"place":0,"phase":1,"sequence":7,"times":[1004,347,408,444,1832],"next_num":5,"trial_type":"ticket-choose","trial_index":91,"time_elapsed":1236073,"internal_node_id":"0.0-91.0"},{"result":157,"points":2,"place":1,"phase":1,"sequence":8,"times":[534,521,932],"next_num":3,"trial_type":"ticket-choose","trial_index":92,"time_elapsed":1240201,"internal_node_id":"0.0-92.0"},{"result":162,"points":3,"place":0,"phase":1,"sequence":9,"times":[1016],"next_num":1,"trial_type":"ticket-choose","trial_index":93,"time_elapsed":1243226,"internal_node_id":"0.0-93.0"},{"result":210,"points":1,"place":4,"phase":1,"sequence":10,"times":[917,549,820,535,570,481,643,557,499,750],"next_num":11,"trial_type":"ticket-choose","trial_index":94,"time_elapsed":1253394,"internal_node_id":"0.0-94.0"},{"result":147,"points":3,"place":0,"phase":1,"sequence":11,"times":[880,466,871,570,589,531,543,569,880,671],"next_num":10,"trial_type":"ticket-choose","trial_index":95,"time_elapsed":1263962,"internal_node_id":"0.0-95.0"},{"result":161,"points":1,"place":2,"phase":1,"sequence":12,"times":[943,521,522,780,403,446,432,1157],"next_num":8,"trial_type":"ticket-choose","trial_index":96,"time_elapsed":1272507,"internal_node_id":"0.0-96.0"},{"result":141,"points":3,"place":0,"phase":1,"sequence":13,"times":[1047],"next_num":1,"trial_type":"ticket-choose","trial_index":97,"time_elapsed":1275419,"internal_node_id":"0.0-97.0"},{"result":166,"points":3,"place":0,"phase":1,"sequence":14,"times":[1178,420,533,496,500,557,723,546,980],"next_num":9,"trial_type":"ticket-choose","trial_index":98,"time_elapsed":1284731,"internal_node_id":"0.0-98.0"},{"result":149,"points":2,"place":1,"phase":1,"sequence":15,"times":[977,1440],"next_num":2,"trial_type":"ticket-choose","trial_index":99,"time_elapsed":1289146,"internal_node_id":"0.0-99.0"},{"result":170,"points":2,"place":1,"phase":1,"sequence":16,"times":[814,497,1074],"next_num":3,"trial_type":"ticket-choose","trial_index":100,"time_elapsed":1293842,"internal_node_id":"0.0-100.0"},{"result":137,"points":3,"place":0,"phase":1,"sequence":17,"times":[923],"next_num":1,"trial_type":"ticket-choose","trial_index":101,"time_elapsed":1296515,"internal_node_id":"0.0-101.0"},{"result":158,"points":3,"place":0,"phase":1,"sequence":18,"times":[982],"next_num":1,"trial_type":"ticket-choose","trial_index":102,"time_elapsed":1299419,"internal_node_id":"0.0-102.0"},{"result":140,"points":3,"place":0,"phase":1,"sequence":19,"times":[890,781],"next_num":2,"trial_type":"ticket-choose","trial_index":103,"time_elapsed":1302971,"internal_node_id":"0.0-103.0"},{"result":144,"points":3,"place":0,"phase":1,"sequence":20,"times":[807,548,838,544,1083,544,923,694,1039],"next_num":9,"trial_type":"ticket-choose","trial_index":104,"time_elapsed":1313419,"internal_node_id":"0.0-104.0"},{"result":139,"points":3,"place":0,"phase":1,"sequence":21,"times":[1192,578,493,553,654,490,420,585,971],"next_num":9,"trial_type":"ticket-choose","trial_index":105,"time_elapsed":1322954,"internal_node_id":"0.0-105.0"},{"result":135,"points":3,"place":0,"phase":1,"sequence":22,"times":[1183,525,727,909],"next_num":4,"trial_type":"ticket-choose","trial_index":106,"time_elapsed":1328603,"internal_node_id":"0.0-106.0"},{"result":217,"points":1,"place":4,"phase":1,"sequence":23,"times":[1053,575,715,569,556,575,834,645,546,549],"next_num":11,"trial_type":"ticket-choose","trial_index":107,"time_elapsed":1339147,"internal_node_id":"0.0-107.0"},{"result":167,"points":1,"place":3,"phase":1,"sequence":24,"times":[890,526,1271],"next_num":3,"trial_type":"ticket-choose","trial_index":108,"time_elapsed":1343987,"internal_node_id":"0.0-108.0"},{"result":133,"points":3,"place":0,"phase":1,"sequence":25,"times":[694,490,1295],"next_num":3,"trial_type":"ticket-choose","trial_index":109,"time_elapsed":1348802,"internal_node_id":"0.0-109.0"},{"result":150,"points":3,"place":0,"phase":1,"sequence":26,"times":[660,453,352,374,471,527,954,903,896,876],"next_num":10,"trial_type":"ticket-choose","trial_index":110,"time_elapsed":1359035,"internal_node_id":"0.0-110.0"},{"result":165,"points":1,"place":2,"phase":1,"sequence":27,"times":[2129],"next_num":1,"trial_type":"ticket-choose","trial_index":111,"time_elapsed":1363267,"internal_node_id":"0.0-111.0"},{"result":126,"points":3,"place":0,"phase":1,"sequence":28,"times":[1050,755,540,524,1334],"next_num":5,"trial_type":"ticket-choose","trial_index":112,"time_elapsed":1370299,"internal_node_id":"0.0-112.0"},{"result":117,"points":3,"place":0,"phase":1,"sequence":29,"times":[947,491,547,386,466,471,1126,502,1051],"next_num":9,"trial_type":"ticket-choose","trial_index":113,"time_elapsed":1380001,"internal_node_id":"0.0-113.0"},{"result":169,"points":3,"place":0,"phase":1,"sequence":30,"times":[1023,261,294,307,726,539,515,864],"next_num":8,"trial_type":"ticket-choose","trial_index":114,"time_elapsed":1387923,"internal_node_id":"0.0-114.0"},{"result":116,"points":3,"place":0,"phase":1,"sequence":31,"times":[504,359,329,348,651,890],"next_num":6,"trial_type":"ticket-choose","trial_index":115,"time_elapsed":1394019,"internal_node_id":"0.0-115.0"},{"result":193,"points":1,"place":4,"phase":1,"sequence":32,"times":[521,397,275,398,407,606,591,656,618,928],"next_num":11,"trial_type":"ticket-choose","trial_index":116,"time_elapsed":1403410,"internal_node_id":"0.0-116.0"},{"result":165,"points":2,"place":1,"phase":1,"sequence":33,"times":[1040,539,858],"next_num":3,"trial_type":"ticket-choose","trial_index":117,"time_elapsed":1408043,"internal_node_id":"0.0-117.0"},{"result":140,"points":2,"place":1,"phase":1,"sequence":34,"times":[1284,533,939],"next_num":3,"trial_type":"ticket-choose","trial_index":118,"time_elapsed":1413139,"internal_node_id":"0.0-118.0"},{"result":155,"points":3,"place":0,"phase":1,"sequence":35,"times":[558,463,914],"next_num":3,"trial_type":"ticket-choose","trial_index":119,"time_elapsed":1417243,"internal_node_id":"0.0-119.0"},{"result":156,"points":3,"place":0,"phase":1,"sequence":36,"times":[747,468,514,738,1110,647,983,579,1063],"next_num":9,"trial_type":"ticket-choose","trial_index":120,"time_elapsed":1427515,"internal_node_id":"0.0-120.0"},{"result":136,"points":3,"place":0,"phase":1,"sequence":37,"times":[1026,1335,789,520,518,490,1779,594,922],"next_num":9,"trial_type":"ticket-choose","trial_index":121,"time_elapsed":1439451,"internal_node_id":"0.0-121.0"},{"result":156,"points":3,"place":0,"phase":1,"sequence":38,"times":[1567,471,398,351,429,1124],"next_num":6,"trial_type":"ticket-choose","trial_index":122,"time_elapsed":1446802,"internal_node_id":"0.0-122.0"},{"result":178,"points":1,"place":2,"phase":1,"sequence":39,"times":[799,215,1203,403,483,1323,494,527,614,1396],"next_num":10,"trial_type":"ticket-choose","trial_index":123,"time_elapsed":1458018,"internal_node_id":"0.0-123.0"},{"result":163,"points":1,"place":2,"phase":1,"sequence":40,"times":[980,275,427,1732],"next_num":4,"trial_type":"ticket-choose","trial_index":124,"time_elapsed":1463874,"internal_node_id":"0.0-124.0"},{"result":144,"points":3,"place":0,"phase":1,"sequence":41,"times":[534,445,533,833],"next_num":4,"trial_type":"ticket-choose","trial_index":125,"time_elapsed":1468570,"internal_node_id":"0.0-125.0"},{"result":158,"points":1,"place":2,"phase":1,"sequence":42,"times":[1120,1250],"next_num":2,"trial_type":"ticket-choose","trial_index":126,"time_elapsed":1472834,"internal_node_id":"0.0-126.0"},{"result":165,"points":2,"place":1,"phase":1,"sequence":43,"times":[984,549,510,558,605,660,886],"next_num":7,"trial_type":"ticket-choose","trial_index":127,"time_elapsed":1480658,"internal_node_id":"0.0-127.0"},{"result":134,"points":3,"place":0,"phase":1,"sequence":44,"times":[957,542,508,738,547,541,683,730,602,842],"next_num":10,"trial_type":"ticket-choose","trial_index":128,"time_elapsed":1492268,"internal_node_id":"0.0-128.0"},{"result":166,"points":1,"place":2,"phase":1,"sequence":45,"times":[724,1364],"next_num":2,"trial_type":"ticket-choose","trial_index":129,"time_elapsed":1496362,"internal_node_id":"0.0-129.0"},{"result":153,"points":3,"place":0,"phase":1,"sequence":46,"times":[887],"next_num":1,"trial_type":"ticket-choose","trial_index":130,"time_elapsed":1499050,"internal_node_id":"0.0-130.0"},{"result":148,"points":2,"place":1,"phase":1,"sequence":47,"times":[1047,407,946],"next_num":3,"trial_type":"ticket-choose","trial_index":131,"time_elapsed":1503658,"internal_node_id":"0.0-131.0"},{"result":148,"points":3,"place":0,"phase":1,"sequence":48,"times":[801,418,356,841,547,573,603,933],"next_num":8,"trial_type":"ticket-choose","trial_index":132,"time_elapsed":1512401,"internal_node_id":"0.0-132.0"},{"result":212,"points":1,"place":4,"phase":1,"sequence":49,"times":[1620,480,819,556,588,514,983,539,631,876],"next_num":11,"trial_type":"ticket-choose","trial_index":133,"time_elapsed":1524501,"internal_node_id":"0.0-133.0"},{"responses":[{"value":0,"offby":-1,"category":"$105 - $130","category_index":0},{"value":2,"offby":0,"category":"$131 - $155","category_index":1},{"value":3,"offby":1,"category":"$156 - $180","category_index":2},{"value":4,"offby":-1,"category":"$181 - $205","category_index":3},{"value":5,"offby":0,"category":"$206 - $230","category_index":4},{"value":4,"offby":1,"category":"$231 - $255","category_index":5},{"value":2,"offby":0,"category":"$256 - $280","category_index":6}],"phase":1,"number":1,"trial_type":"bar-choose","trial_index":134,"time_elapsed":1542401,"internal_node_id":"0.0-134.0"},{"during":"Nothing","bonus":312,"trial_type":"final","trial_index":135,"time_elapsed":1566102,"internal_node_id":"0.0-135.0"}],"bonus":312}