{"start_time":"2017-01-25 17:50:42","end_time":"2017-01-25 18:18:27","points_phase0":123,"points_phase1":125,"phase_order":0,"age":59,"gender":"f","tries":1,"during":"Nothing","worker_id":"609452","assignment_id":"381630","data":[{"rt":21422,"url":"\/tickets\/utils\/consent.html","trial_type":"html","trial_index":0,"time_elapsed":21598,"internal_node_id":"0.0-0.0"},{"age":59,"gender":"f","trial_type":"age","trial_index":1,"time_elapsed":28590,"internal_node_id":"0.0-1.0"},{"tries":1,"trial_type":"instructions_check","trial_index":2,"time_elapsed":76277,"internal_node_id":"0.0-2.0"},{"rt":12355,"url":"\/tickets\/utils\/start.html","trial_type":"html","trial_index":3,"time_elapsed":89812,"internal_node_id":"0.0-3.0"},{"trial_type":"number-animation","trial_index":4,"time_elapsed":117579,"internal_node_id":"0.0-4.0"},{"phase":0,"sequence":0,"avg":181,"response":172,"trial_type":"training_avg","trial_index":5,"time_elapsed":134275,"internal_node_id":"0.0-5.0"},{"trial_type":"number-animation","trial_index":6,"time_elapsed":211102,"internal_node_id":"0.0-6.0"},{"phase":0,"sequence":1,"avg":188,"response":174,"trial_type":"training_avg","trial_index":7,"time_elapsed":225874,"internal_node_id":"0.0-7.0"},{"trial_type":"number-animation","trial_index":8,"time_elapsed":291971,"internal_node_id":"0.0-8.0"},{"phase":0,"sequence":2,"avg":188,"response":188,"trial_type":"training_avg","trial_index":9,"time_elapsed":309675,"internal_node_id":"0.0-9.0"},{"trial_type":"number-animation","trial_index":10,"time_elapsed":357061,"internal_node_id":"0.0-10.0"},{"phase":0,"sequence":3,"avg":177,"response":177,"trial_type":"training_avg","trial_index":11,"time_elapsed":368762,"internal_node_id":"0.0-11.0"},{"trial_type":"number-animation","trial_index":12,"time_elapsed":384650,"internal_node_id":"0.0-12.0"},{"phase":0,"sequence":4,"avg":182,"response":173,"trial_type":"training_avg","trial_index":13,"time_elapsed":394235,"internal_node_id":"0.0-13.0"},{"responses":[{"value":0,"offby":0,"category":"$106 - $134","category_index":0},{"value":2,"offby":1,"category":"$135 - $150","category_index":1},{"value":5,"offby":2,"category":"$151 - $165","category_index":2},{"value":2,"offby":-4,"category":"$166 - $180","category_index":3},{"value":7,"offby":1,"category":"$181 - $195","category_index":4},{"value":4,"offby":1,"category":"$196 - $210","category_index":5},{"value":0,"offby":-1,"category":"$211 - $225","category_index":6}],"phase":0,"number":0,"trial_type":"bar-choose","trial_index":14,"time_elapsed":455054,"internal_node_id":"0.0-14.0"},{"rt":23955,"url":"\/tickets\/\/utils\/testing.html","trial_type":"html","trial_index":15,"time_elapsed":480202,"internal_node_id":"0.0-15.0"},{"phase":0,"order":[16,46,45,8,31,21,19,0,17,24,1,23,34,33,14,41,2,28,42,12,5,43,6,37,27,3,11,40,9,10,44,26,29,47,30,39,18,15,35,36,32,38,48,22,4,49,7,25,13,20],"trial_type":"store_order","trial_index":16,"time_elapsed":481204,"internal_node_id":"0.0-16.0"},{"result":126,"points":3,"place":0,"phase":0,"sequence":-1,"times":[2581,1293,837,2174,669,628,652,666,845,1276],"next_num":10,"trial_type":"ticket-choose","trial_index":17,"time_elapsed":497547,"internal_node_id":"0.0-17.0"},{"rt":16756,"url":"\/tickets\/utils\/testing_after.html","trial_type":"html","trial_index":18,"time_elapsed":515499,"internal_node_id":"0.0-18.0"},{"result":162,"points":2,"place":1,"phase":0,"sequence":0,"times":[3135,693,1060,693,565,717,2197],"next_num":7,"trial_type":"ticket-choose","trial_index":19,"time_elapsed":529610,"internal_node_id":"0.0-19.0"},{"result":158,"points":3,"place":0,"phase":0,"sequence":1,"times":[1050,903,692,637,602,1270],"next_num":6,"trial_type":"ticket-choose","trial_index":20,"time_elapsed":539306,"internal_node_id":"0.0-20.0"},{"result":170,"points":1,"place":2,"phase":0,"sequence":2,"times":[3659,694,541,622,1629,635,547,1246,772,700],"next_num":11,"trial_type":"ticket-choose","trial_index":21,"time_elapsed":555179,"internal_node_id":"0.0-21.0"},{"result":147,"points":3,"place":0,"phase":0,"sequence":3,"times":[605,588,979,630,558,612,597,627,677,1181],"next_num":10,"trial_type":"ticket-choose","trial_index":22,"time_elapsed":566620,"internal_node_id":"0.0-22.0"},{"result":160,"points":2,"place":1,"phase":0,"sequence":4,"times":[1085,629,549,560,605,1134],"next_num":6,"trial_type":"ticket-choose","trial_index":23,"time_elapsed":574754,"internal_node_id":"0.0-23.0"},{"result":156,"points":3,"place":0,"phase":0,"sequence":5,"times":[1448],"next_num":1,"trial_type":"ticket-choose","trial_index":24,"time_elapsed":578748,"internal_node_id":"0.0-24.0"},{"result":158,"points":3,"place":0,"phase":0,"sequence":6,"times":[845,502,461,661,532,490,549,581,1085],"next_num":9,"trial_type":"ticket-choose","trial_index":25,"time_elapsed":588443,"internal_node_id":"0.0-25.0"},{"result":158,"points":2,"place":1,"phase":0,"sequence":7,"times":[910,548,989],"next_num":3,"trial_type":"ticket-choose","trial_index":26,"time_elapsed":593650,"internal_node_id":"0.0-26.0"},{"result":150,"points":2,"place":1,"phase":0,"sequence":8,"times":[1026,555,596,661,525,533,1014],"next_num":7,"trial_type":"ticket-choose","trial_index":27,"time_elapsed":601946,"internal_node_id":"0.0-27.0"},{"result":185,"points":1,"place":4,"phase":0,"sequence":9,"times":[798,646,555,493,533,575,525,605,518,614],"next_num":11,"trial_type":"ticket-choose","trial_index":28,"time_elapsed":612331,"internal_node_id":"0.0-28.0"},{"result":154,"points":3,"place":0,"phase":0,"sequence":10,"times":[871,668,1006,5637,1453,877,963,797,620,1086],"next_num":10,"trial_type":"ticket-choose","trial_index":29,"time_elapsed":630770,"internal_node_id":"0.0-29.0"},{"result":186,"points":1,"place":4,"phase":0,"sequence":11,"times":[792,565,629,534,517,532,566,539,573,582],"next_num":11,"trial_type":"ticket-choose","trial_index":30,"time_elapsed":640660,"internal_node_id":"0.0-30.0"},{"result":155,"points":2,"place":1,"phase":0,"sequence":12,"times":[762,901],"next_num":2,"trial_type":"ticket-choose","trial_index":31,"time_elapsed":644706,"internal_node_id":"0.0-31.0"},{"result":155,"points":3,"place":0,"phase":0,"sequence":13,"times":[707,917],"next_num":2,"trial_type":"ticket-choose","trial_index":32,"time_elapsed":648723,"internal_node_id":"0.0-32.0"},{"result":208,"points":0,"place":8,"phase":0,"sequence":14,"times":[706,589,596,612,557,612,581,637,597,628],"next_num":11,"trial_type":"ticket-choose","trial_index":33,"time_elapsed":659066,"internal_node_id":"0.0-33.0"},{"result":135,"points":3,"place":0,"phase":0,"sequence":15,"times":[1369,577,486,829,2422,818,765,901],"next_num":8,"trial_type":"ticket-choose","trial_index":34,"time_elapsed":670884,"internal_node_id":"0.0-34.0"},{"result":153,"points":3,"place":0,"phase":0,"sequence":16,"times":[781,651,573,661,686,617,731,614,821,1101],"next_num":10,"trial_type":"ticket-choose","trial_index":35,"time_elapsed":682148,"internal_node_id":"0.0-35.0"},{"result":188,"points":1,"place":4,"phase":0,"sequence":17,"times":[693,547,764,619,573,565,542,589,622,622],"next_num":11,"trial_type":"ticket-choose","trial_index":36,"time_elapsed":692547,"internal_node_id":"0.0-36.0"},{"result":143,"points":3,"place":0,"phase":0,"sequence":18,"times":[795,526,579,627,964],"next_num":5,"trial_type":"ticket-choose","trial_index":37,"time_elapsed":698892,"internal_node_id":"0.0-37.0"},{"result":148,"points":3,"place":0,"phase":0,"sequence":19,"times":[694,726,571,597,580,646,549,636,989],"next_num":9,"trial_type":"ticket-choose","trial_index":38,"time_elapsed":708562,"internal_node_id":"0.0-38.0"},{"result":143,"points":3,"place":0,"phase":0,"sequence":20,"times":[680,658,734,813,581,485,549,749,597,1070],"next_num":10,"trial_type":"ticket-choose","trial_index":39,"time_elapsed":719763,"internal_node_id":"0.0-39.0"},{"result":157,"points":3,"place":0,"phase":0,"sequence":21,"times":[907,508,1038],"next_num":3,"trial_type":"ticket-choose","trial_index":40,"time_elapsed":724671,"internal_node_id":"0.0-40.0"},{"result":155,"points":3,"place":0,"phase":0,"sequence":22,"times":[699,534,1011,558,588,580,539,533,717,1174],"next_num":10,"trial_type":"ticket-choose","trial_index":41,"time_elapsed":735626,"internal_node_id":"0.0-41.0"},{"result":152,"points":3,"place":0,"phase":0,"sequence":23,"times":[604,555,568,773,618,501,1023],"next_num":7,"trial_type":"ticket-choose","trial_index":42,"time_elapsed":743548,"internal_node_id":"0.0-42.0"},{"result":148,"points":3,"place":0,"phase":0,"sequence":24,"times":[1410],"next_num":1,"trial_type":"ticket-choose","trial_index":43,"time_elapsed":747213,"internal_node_id":"0.0-43.0"},{"result":154,"points":2,"place":1,"phase":0,"sequence":25,"times":[650,557,1004],"next_num":3,"trial_type":"ticket-choose","trial_index":44,"time_elapsed":751899,"internal_node_id":"0.0-44.0"},{"result":149,"points":3,"place":0,"phase":0,"sequence":26,"times":[542,580,590,613,581,605,796,621,958],"next_num":9,"trial_type":"ticket-choose","trial_index":45,"time_elapsed":761426,"internal_node_id":"0.0-45.0"},{"result":150,"points":3,"place":0,"phase":0,"sequence":27,"times":[696,972],"next_num":2,"trial_type":"ticket-choose","trial_index":46,"time_elapsed":765459,"internal_node_id":"0.0-46.0"},{"result":138,"points":3,"place":0,"phase":0,"sequence":28,"times":[491,654,981,620,524,565,781,581,685,1046],"next_num":10,"trial_type":"ticket-choose","trial_index":47,"time_elapsed":776291,"internal_node_id":"0.0-47.0"},{"result":158,"points":2,"place":1,"phase":0,"sequence":29,"times":[523,573,916,606,828,613,1014],"next_num":7,"trial_type":"ticket-choose","trial_index":48,"time_elapsed":784595,"internal_node_id":"0.0-48.0"},{"result":149,"points":2,"place":1,"phase":0,"sequence":30,"times":[750,1365,1020],"next_num":3,"trial_type":"ticket-choose","trial_index":49,"time_elapsed":790251,"internal_node_id":"0.0-49.0"},{"result":157,"points":3,"place":0,"phase":0,"sequence":31,"times":[1793],"next_num":1,"trial_type":"ticket-choose","trial_index":50,"time_elapsed":794090,"internal_node_id":"0.0-50.0"},{"result":170,"points":1,"place":4,"phase":0,"sequence":32,"times":[1116,733,462,533,557,645,572,639,629,709],"next_num":11,"trial_type":"ticket-choose","trial_index":51,"time_elapsed":804693,"internal_node_id":"0.0-51.0"},{"result":152,"points":3,"place":0,"phase":0,"sequence":33,"times":[581,517,644,1125],"next_num":4,"trial_type":"ticket-choose","trial_index":52,"time_elapsed":810371,"internal_node_id":"0.0-52.0"},{"result":138,"points":3,"place":0,"phase":0,"sequence":34,"times":[861,509,525,539,587,1018],"next_num":6,"trial_type":"ticket-choose","trial_index":53,"time_elapsed":817541,"internal_node_id":"0.0-53.0"},{"result":171,"points":1,"place":3,"phase":0,"sequence":35,"times":[1043,589,654,539,980,557,566,653,622,694],"next_num":11,"trial_type":"ticket-choose","trial_index":54,"time_elapsed":828443,"internal_node_id":"0.0-54.0"},{"result":138,"points":3,"place":0,"phase":0,"sequence":36,"times":[1207,509,564,611,558,509,1134,598,1054],"next_num":9,"trial_type":"ticket-choose","trial_index":55,"time_elapsed":838932,"internal_node_id":"0.0-55.0"},{"result":152,"points":3,"place":0,"phase":0,"sequence":37,"times":[1019,821,516,542,651,549,924,596,981],"next_num":9,"trial_type":"ticket-choose","trial_index":56,"time_elapsed":849282,"internal_node_id":"0.0-56.0"},{"result":144,"points":3,"place":0,"phase":0,"sequence":38,"times":[1154,2244,596,565,532,1110],"next_num":6,"trial_type":"ticket-choose","trial_index":57,"time_elapsed":858571,"internal_node_id":"0.0-57.0"},{"result":154,"points":3,"place":0,"phase":0,"sequence":39,"times":[909,565,733,564,566,587,558,934],"next_num":8,"trial_type":"ticket-choose","trial_index":58,"time_elapsed":867620,"internal_node_id":"0.0-58.0"},{"result":146,"points":3,"place":0,"phase":0,"sequence":40,"times":[1132,630,1078],"next_num":3,"trial_type":"ticket-choose","trial_index":59,"time_elapsed":872915,"internal_node_id":"0.0-59.0"},{"result":166,"points":2,"place":1,"phase":0,"sequence":41,"times":[579,582,564,638,605,580,700,909,750,2575],"next_num":10,"trial_type":"ticket-choose","trial_index":60,"time_elapsed":885388,"internal_node_id":"0.0-60.0"},{"result":147,"points":3,"place":0,"phase":0,"sequence":42,"times":[1092,709,748,1052],"next_num":4,"trial_type":"ticket-choose","trial_index":61,"time_elapsed":891772,"internal_node_id":"0.0-61.0"},{"result":152,"points":3,"place":0,"phase":0,"sequence":43,"times":[1548],"next_num":1,"trial_type":"ticket-choose","trial_index":62,"time_elapsed":895332,"internal_node_id":"0.0-62.0"},{"result":140,"points":3,"place":0,"phase":0,"sequence":44,"times":[900,522,565,586,574,885,597,662,1141,1015],"next_num":10,"trial_type":"ticket-choose","trial_index":63,"time_elapsed":906900,"internal_node_id":"0.0-63.0"},{"result":148,"points":3,"place":0,"phase":0,"sequence":45,"times":[1085,782,629,574,1013,1142],"next_num":6,"trial_type":"ticket-choose","trial_index":64,"time_elapsed":915196,"internal_node_id":"0.0-64.0"},{"result":155,"points":3,"place":0,"phase":0,"sequence":46,"times":[989,677,590,598,741,661,678,822,726,982],"next_num":10,"trial_type":"ticket-choose","trial_index":65,"time_elapsed":926524,"internal_node_id":"0.0-65.0"},{"result":150,"points":3,"place":0,"phase":0,"sequence":47,"times":[1822],"next_num":1,"trial_type":"ticket-choose","trial_index":66,"time_elapsed":930412,"internal_node_id":"0.0-66.0"},{"result":154,"points":2,"place":1,"phase":0,"sequence":48,"times":[1116,555,854,621,621,587,1389],"next_num":7,"trial_type":"ticket-choose","trial_index":67,"time_elapsed":939619,"internal_node_id":"0.0-67.0"},{"result":184,"points":1,"place":4,"phase":0,"sequence":49,"times":[1302,613,533,645,588,603,684,637,797,1230],"next_num":10,"trial_type":"ticket-choose","trial_index":68,"time_elapsed":951347,"internal_node_id":"0.0-68.0"},{"responses":[{"value":0,"offby":0,"category":"$106 - $134","category_index":0},{"value":3,"offby":2,"category":"$135 - $150","category_index":1},{"value":7,"offby":4,"category":"$151 - $165","category_index":2},{"value":5,"offby":-1,"category":"$166 - $180","category_index":3},{"value":4,"offby":-2,"category":"$181 - $195","category_index":4},{"value":0,"offby":-3,"category":"$196 - $210","category_index":5},{"value":0,"offby":-1,"category":"$211 - $225","category_index":6}],"phase":0,"number":1,"trial_type":"bar-choose","trial_index":69,"time_elapsed":1002630,"internal_node_id":"0.0-69.0"},{"rt":5646,"url":"\/tickets\/utils\/start2.html","trial_type":"html","trial_index":70,"time_elapsed":1009427,"internal_node_id":"0.0-70.0"},{"trial_type":"number-animation","trial_index":71,"time_elapsed":1019651,"internal_node_id":"0.0-71.0"},{"phase":1,"sequence":0,"avg":184,"response":170,"trial_type":"training_avg","trial_index":72,"time_elapsed":1023900,"internal_node_id":"0.0-72.0"},{"trial_type":"number-animation","trial_index":73,"time_elapsed":1032204,"internal_node_id":"0.0-73.0"},{"phase":1,"sequence":1,"avg":199,"response":188,"trial_type":"training_avg","trial_index":74,"time_elapsed":1040811,"internal_node_id":"0.0-74.0"},{"trial_type":"number-animation","trial_index":75,"time_elapsed":1049061,"internal_node_id":"0.0-75.0"},{"phase":1,"sequence":2,"avg":199,"response":186,"trial_type":"training_avg","trial_index":76,"time_elapsed":1057317,"internal_node_id":"0.0-76.0"},{"trial_type":"number-animation","trial_index":77,"time_elapsed":1065501,"internal_node_id":"0.0-77.0"},{"phase":1,"sequence":3,"avg":210,"response":210,"trial_type":"training_avg","trial_index":78,"time_elapsed":1077542,"internal_node_id":"0.0-78.0"},{"trial_type":"number-animation","trial_index":79,"time_elapsed":1085476,"internal_node_id":"0.0-79.0"},{"phase":1,"sequence":4,"avg":202,"response":202,"trial_type":"training_avg","trial_index":80,"time_elapsed":1093252,"internal_node_id":"0.0-80.0"},{"responses":[{"value":0,"offby":-1,"category":"$105 - $130","category_index":0},{"value":0,"offby":-2,"category":"$131 - $155","category_index":1},{"value":3,"offby":1,"category":"$156 - $180","category_index":2},{"value":4,"offby":-1,"category":"$181 - $205","category_index":3},{"value":5,"offby":0,"category":"$206 - $230","category_index":4},{"value":8,"offby":5,"category":"$231 - $255","category_index":5},{"value":0,"offby":-2,"category":"$256 - $280","category_index":6}],"phase":1,"number":0,"trial_type":"bar-choose","trial_index":81,"time_elapsed":1128968,"internal_node_id":"0.0-81.0"},{"rt":15277,"url":"\/tickets\/utils\/testing2.html","trial_type":"html","trial_index":82,"time_elapsed":1145404,"internal_node_id":"0.0-82.0"},{"phase":1,"order":[31,49,23,17,42,18,46,44,6,26,12,1,22,35,36,9,4,15,40,25,33,30,45,20,29,8,3,19,7,34,16,2,21,38,28,41,11,47,5,24,0,37,14,32,10,43,48,39,27,13],"trial_type":"store_order","trial_index":83,"time_elapsed":1146408,"internal_node_id":"0.0-83.0"},{"result":161,"points":2,"place":1,"phase":1,"sequence":0,"times":[1227,570,724,612,533,1032],"next_num":6,"trial_type":"ticket-choose","trial_index":84,"time_elapsed":1154387,"internal_node_id":"0.0-84.0"},{"result":136,"points":3,"place":0,"phase":1,"sequence":1,"times":[826,493,413,451,566,999],"next_num":6,"trial_type":"ticket-choose","trial_index":85,"time_elapsed":1161348,"internal_node_id":"0.0-85.0"},{"result":212,"points":1,"place":4,"phase":1,"sequence":2,"times":[638,414,397,413,445,661,653,1011,651,1350],"next_num":11,"trial_type":"ticket-choose","trial_index":86,"time_elapsed":1171891,"internal_node_id":"0.0-86.0"},{"result":140,"points":2,"place":1,"phase":1,"sequence":3,"times":[675,582,492,393,590,573,1085],"next_num":7,"trial_type":"ticket-choose","trial_index":87,"time_elapsed":1179563,"internal_node_id":"0.0-87.0"},{"result":156,"points":2,"place":1,"phase":1,"sequence":4,"times":[668,789,548,477,501,1076,532,534,1309],"next_num":9,"trial_type":"ticket-choose","trial_index":88,"time_elapsed":1189732,"internal_node_id":"0.0-88.0"},{"result":170,"points":2,"place":1,"phase":1,"sequence":5,"times":[1493,685,653,645,499,910,1326],"next_num":7,"trial_type":"ticket-choose","trial_index":89,"time_elapsed":1199476,"internal_node_id":"0.0-89.0"},{"result":156,"points":3,"place":0,"phase":1,"sequence":6,"times":[1226,606,508,539,501,1085],"next_num":6,"trial_type":"ticket-choose","trial_index":90,"time_elapsed":1207035,"internal_node_id":"0.0-90.0"},{"result":138,"points":2,"place":1,"phase":1,"sequence":7,"times":[753,541,988],"next_num":3,"trial_type":"ticket-choose","trial_index":91,"time_elapsed":1211679,"internal_node_id":"0.0-91.0"},{"result":150,"points":3,"place":0,"phase":1,"sequence":8,"times":[488,597,523,565,581,555,964,717,886,1043],"next_num":10,"trial_type":"ticket-choose","trial_index":92,"time_elapsed":1222388,"internal_node_id":"0.0-92.0"},{"result":154,"points":3,"place":0,"phase":1,"sequence":9,"times":[1399],"next_num":1,"trial_type":"ticket-choose","trial_index":93,"time_elapsed":1225731,"internal_node_id":"0.0-93.0"},{"result":136,"points":3,"place":0,"phase":1,"sequence":10,"times":[825,542,670,559,541,533,828,582,1013],"next_num":9,"trial_type":"ticket-choose","trial_index":94,"time_elapsed":1235356,"internal_node_id":"0.0-94.0"},{"result":148,"points":3,"place":0,"phase":1,"sequence":11,"times":[460,757,1078,590,546,627,749,886,676,1006],"next_num":10,"trial_type":"ticket-choose","trial_index":95,"time_elapsed":1246460,"internal_node_id":"0.0-95.0"},{"result":145,"points":3,"place":0,"phase":1,"sequence":12,"times":[1500],"next_num":1,"trial_type":"ticket-choose","trial_index":96,"time_elapsed":1249837,"internal_node_id":"0.0-96.0"},{"result":149,"points":2,"place":1,"phase":1,"sequence":13,"times":[822,1149],"next_num":2,"trial_type":"ticket-choose","trial_index":97,"time_elapsed":1253878,"internal_node_id":"0.0-97.0"},{"result":148,"points":3,"place":0,"phase":1,"sequence":14,"times":[684,612,646,741,566,678,581,1038],"next_num":8,"trial_type":"ticket-choose","trial_index":98,"time_elapsed":1262757,"internal_node_id":"0.0-98.0"},{"result":170,"points":3,"place":0,"phase":1,"sequence":15,"times":[516,558,522,622,557,566,637,924,645,1053],"next_num":10,"trial_type":"ticket-choose","trial_index":99,"time_elapsed":1273244,"internal_node_id":"0.0-99.0"},{"result":142,"points":3,"place":0,"phase":1,"sequence":16,"times":[739,525,644,637,534,566,718,669,764,1038],"next_num":10,"trial_type":"ticket-choose","trial_index":100,"time_elapsed":1284012,"internal_node_id":"0.0-100.0"},{"result":144,"points":3,"place":0,"phase":1,"sequence":17,"times":[904,6740,628,518,566,550,517,581,1037],"next_num":9,"trial_type":"ticket-choose","trial_index":101,"time_elapsed":1299868,"internal_node_id":"0.0-101.0"},{"result":140,"points":3,"place":0,"phase":1,"sequence":18,"times":[1125,997],"next_num":2,"trial_type":"ticket-choose","trial_index":102,"time_elapsed":1304085,"internal_node_id":"0.0-102.0"},{"result":141,"points":3,"place":0,"phase":1,"sequence":19,"times":[1086],"next_num":1,"trial_type":"ticket-choose","trial_index":103,"time_elapsed":1306933,"internal_node_id":"0.0-103.0"},{"result":151,"points":3,"place":0,"phase":1,"sequence":20,"times":[885,1039],"next_num":2,"trial_type":"ticket-choose","trial_index":104,"time_elapsed":1310981,"internal_node_id":"0.0-104.0"},{"result":116,"points":3,"place":0,"phase":1,"sequence":21,"times":[779,556,666,548,565,1101],"next_num":6,"trial_type":"ticket-choose","trial_index":105,"time_elapsed":1318189,"internal_node_id":"0.0-105.0"},{"result":169,"points":3,"place":0,"phase":1,"sequence":22,"times":[720,582,807,573,589,605,838,1044],"next_num":8,"trial_type":"ticket-choose","trial_index":106,"time_elapsed":1327465,"internal_node_id":"0.0-106.0"},{"result":162,"points":3,"place":0,"phase":1,"sequence":23,"times":[1009],"next_num":1,"trial_type":"ticket-choose","trial_index":107,"time_elapsed":1330828,"internal_node_id":"0.0-107.0"},{"result":158,"points":3,"place":0,"phase":1,"sequence":24,"times":[1068],"next_num":1,"trial_type":"ticket-choose","trial_index":108,"time_elapsed":1334133,"internal_node_id":"0.0-108.0"},{"result":134,"points":3,"place":0,"phase":1,"sequence":25,"times":[1050,581,741,598,561,621,886,756,693,900],"next_num":10,"trial_type":"ticket-choose","trial_index":109,"time_elapsed":1345421,"internal_node_id":"0.0-109.0"},{"result":148,"points":2,"place":1,"phase":1,"sequence":26,"times":[1110,557,1078],"next_num":3,"trial_type":"ticket-choose","trial_index":110,"time_elapsed":1350525,"internal_node_id":"0.0-110.0"},{"result":156,"points":3,"place":0,"phase":1,"sequence":27,"times":[623,549,542,548,517,549,1348,677,1037],"next_num":9,"trial_type":"ticket-choose","trial_index":111,"time_elapsed":1360637,"internal_node_id":"0.0-111.0"},{"result":150,"points":3,"place":0,"phase":1,"sequence":28,"times":[1075,644,912,548,543,501,827,565,620,1075],"next_num":10,"trial_type":"ticket-choose","trial_index":112,"time_elapsed":1372037,"internal_node_id":"0.0-112.0"},{"result":150,"points":2,"place":1,"phase":1,"sequence":29,"times":[874,1148],"next_num":2,"trial_type":"ticket-choose","trial_index":113,"time_elapsed":1376292,"internal_node_id":"0.0-113.0"},{"result":130,"points":3,"place":0,"phase":1,"sequence":30,"times":[996,653,629,581,550,629,661,652,1147],"next_num":9,"trial_type":"ticket-choose","trial_index":114,"time_elapsed":1386405,"internal_node_id":"0.0-114.0"},{"result":147,"points":3,"place":0,"phase":1,"sequence":31,"times":[1150,613,1026,596,577,564,524,493,629,1540],"next_num":10,"trial_type":"ticket-choose","trial_index":115,"time_elapsed":1398092,"internal_node_id":"0.0-115.0"},{"result":153,"points":3,"place":0,"phase":1,"sequence":32,"times":[2900],"next_num":1,"trial_type":"ticket-choose","trial_index":116,"time_elapsed":1448484,"internal_node_id":"0.0-116.0"},{"result":173,"points":2,"place":1,"phase":1,"sequence":33,"times":[1297,947,717,574,520,547,582,910,573,661],"next_num":11,"trial_type":"ticket-choose","trial_index":117,"time_elapsed":1459932,"internal_node_id":"0.0-117.0"},{"result":217,"points":1,"place":4,"phase":1,"sequence":34,"times":[882,502,476,565,557,541,525,605,614,638],"next_num":11,"trial_type":"ticket-choose","trial_index":118,"time_elapsed":1469948,"internal_node_id":"0.0-118.0"},{"result":151,"points":2,"place":1,"phase":1,"sequence":35,"times":[861,584,906],"next_num":3,"trial_type":"ticket-choose","trial_index":119,"time_elapsed":1474732,"internal_node_id":"0.0-119.0"},{"result":139,"points":3,"place":0,"phase":1,"sequence":36,"times":[759,694,549,836,644,2621,1158,1166,1086],"next_num":9,"trial_type":"ticket-choose","trial_index":120,"time_elapsed":1488238,"internal_node_id":"0.0-120.0"},{"result":149,"points":2,"place":1,"phase":1,"sequence":37,"times":[1004,566,301,387,1044,589,892,1062],"next_num":8,"trial_type":"ticket-choose","trial_index":121,"time_elapsed":1499445,"internal_node_id":"0.0-121.0"},{"result":140,"points":2,"place":1,"phase":1,"sequence":38,"times":[1746,604,1082],"next_num":3,"trial_type":"ticket-choose","trial_index":122,"time_elapsed":1505781,"internal_node_id":"0.0-122.0"},{"result":210,"points":1,"place":4,"phase":1,"sequence":39,"times":[6045,813,757,654,588,10413,1807,595,581,604],"next_num":11,"trial_type":"ticket-choose","trial_index":123,"time_elapsed":1532821,"internal_node_id":"0.0-123.0"},{"result":157,"points":2,"place":1,"phase":1,"sequence":40,"times":[1423,516,1230],"next_num":3,"trial_type":"ticket-choose","trial_index":124,"time_elapsed":1538387,"internal_node_id":"0.0-124.0"},{"result":183,"points":1,"place":4,"phase":1,"sequence":41,"times":[1092,573,566,1013,629,517,502,670,605,1029],"next_num":11,"trial_type":"ticket-choose","trial_index":125,"time_elapsed":1549556,"internal_node_id":"0.0-125.0"},{"result":166,"points":3,"place":0,"phase":1,"sequence":42,"times":[862,507,485,525,575,596,1494,940,877],"next_num":9,"trial_type":"ticket-choose","trial_index":126,"time_elapsed":1559996,"internal_node_id":"0.0-126.0"},{"result":133,"points":3,"place":0,"phase":1,"sequence":43,"times":[839,605,964],"next_num":3,"trial_type":"ticket-choose","trial_index":127,"time_elapsed":1564693,"internal_node_id":"0.0-127.0"},{"result":157,"points":2,"place":1,"phase":1,"sequence":44,"times":[1158,597,853,596,685,590,1214],"next_num":7,"trial_type":"ticket-choose","trial_index":128,"time_elapsed":1573596,"internal_node_id":"0.0-128.0"},{"result":155,"points":3,"place":0,"phase":1,"sequence":45,"times":[695,629,1179],"next_num":3,"trial_type":"ticket-choose","trial_index":129,"time_elapsed":1578341,"internal_node_id":"0.0-129.0"},{"result":135,"points":3,"place":0,"phase":1,"sequence":46,"times":[1032,555,541,973],"next_num":4,"trial_type":"ticket-choose","trial_index":130,"time_elapsed":1583805,"internal_node_id":"0.0-130.0"},{"result":183,"points":1,"place":3,"phase":1,"sequence":47,"times":[881,572,730,551,708,720,901,885,758,1045],"next_num":10,"trial_type":"ticket-choose","trial_index":131,"time_elapsed":1595565,"internal_node_id":"0.0-131.0"},{"result":137,"points":3,"place":0,"phase":1,"sequence":48,"times":[1036],"next_num":1,"trial_type":"ticket-choose","trial_index":132,"time_elapsed":1598438,"internal_node_id":"0.0-132.0"},{"result":148,"points":2,"place":1,"phase":1,"sequence":49,"times":[802,606,932,573,566,598,957],"next_num":7,"trial_type":"ticket-choose","trial_index":133,"time_elapsed":1606812,"internal_node_id":"0.0-133.0"},{"responses":[{"value":0,"offby":-1,"category":"$105 - $130","category_index":0},{"value":3,"offby":1,"category":"$131 - $155","category_index":1},{"value":4,"offby":2,"category":"$156 - $180","category_index":2},{"value":5,"offby":0,"category":"$181 - $205","category_index":3},{"value":5,"offby":0,"category":"$206 - $230","category_index":4},{"value":3,"offby":0,"category":"$231 - $255","category_index":5},{"value":0,"offby":-2,"category":"$256 - $280","category_index":6}],"phase":1,"number":1,"trial_type":"bar-choose","trial_index":134,"time_elapsed":1628962,"internal_node_id":"0.0-134.0"},{"during":"Nothing","bonus":332,"trial_type":"final","trial_index":135,"time_elapsed":1661426,"internal_node_id":"0.0-135.0"}],"bonus":332}