{"start_time":"2017-01-24 10:44:44","end_time":"2017-01-24 11:03:11","points_phase0":94,"points_phase1":101,"phase_order":0,"age":44,"gender":"m","tries":1,"during":"Watching TV","worker_id":"716286","assignment_id":"895621","data":[{"rt":44521,"url":"\/tickets\/utils\/consent.html","trial_type":"html","trial_index":0,"time_elapsed":44637,"internal_node_id":"0.0-0.0"},{"age":44,"gender":"m","trial_type":"age","trial_index":1,"time_elapsed":48396,"internal_node_id":"0.0-1.0"},{"tries":1,"trial_type":"instructions_check","trial_index":2,"time_elapsed":52683,"internal_node_id":"0.0-2.0"},{"rt":887,"url":"\/tickets\/utils\/start.html","trial_type":"html","trial_index":3,"time_elapsed":54750,"internal_node_id":"0.0-3.0"},{"trial_type":"number-animation","trial_index":4,"time_elapsed":62881,"internal_node_id":"0.0-4.0"},{"phase":0,"sequence":0,"avg":181,"response":160,"trial_type":"training_avg","trial_index":5,"time_elapsed":65324,"internal_node_id":"0.0-5.0"},{"trial_type":"number-animation","trial_index":6,"time_elapsed":71872,"internal_node_id":"0.0-6.0"},{"phase":0,"sequence":1,"avg":188,"response":160,"trial_type":"training_avg","trial_index":7,"time_elapsed":74230,"internal_node_id":"0.0-7.0"},{"trial_type":"number-animation","trial_index":8,"time_elapsed":80328,"internal_node_id":"0.0-8.0"},{"phase":0,"sequence":2,"avg":188,"response":160,"trial_type":"training_avg","trial_index":9,"time_elapsed":83349,"internal_node_id":"0.0-9.0"},{"trial_type":"number-animation","trial_index":10,"time_elapsed":89263,"internal_node_id":"0.0-10.0"},{"phase":0,"sequence":3,"avg":177,"response":160,"trial_type":"training_avg","trial_index":11,"time_elapsed":91689,"internal_node_id":"0.0-11.0"},{"trial_type":"number-animation","trial_index":12,"time_elapsed":98739,"internal_node_id":"0.0-12.0"},{"phase":0,"sequence":4,"avg":182,"response":160,"trial_type":"training_avg","trial_index":13,"time_elapsed":101113,"internal_node_id":"0.0-13.0"},{"responses":[{"value":0,"offby":0,"category":"$106 - $134","category_index":0},{"value":0,"offby":-1,"category":"$135 - $150","category_index":1},{"value":0,"offby":-3,"category":"$151 - $165","category_index":2},{"value":0,"offby":-6,"category":"$166 - $180","category_index":3},{"value":0,"offby":-6,"category":"$181 - $195","category_index":4},{"value":0,"offby":-3,"category":"$196 - $210","category_index":5},{"value":0,"offby":-1,"category":"$211 - $225","category_index":6}],"phase":0,"number":0,"trial_type":"bar-choose","trial_index":14,"time_elapsed":106798,"internal_node_id":"0.0-14.0"},{"rt":809,"url":"\/tickets\/\/utils\/testing.html","trial_type":"html","trial_index":15,"time_elapsed":108770,"internal_node_id":"0.0-15.0"},{"phase":0,"order":[36,31,43,8,32,9,38,20,17,24,40,5,45,13,47,10,28,3,4,46,41,33,1,15,29,26,23,37,16,11,42,27,25,6,35,12,21,2,30,34,22,7,18,14,44,49,19,0,39,48],"trial_type":"store_order","trial_index":16,"time_elapsed":109771,"internal_node_id":"0.0-16.0"},{"result":184,"points":1,"place":4,"phase":0,"sequence":-1,"times":[1375],"next_num":1,"trial_type":"ticket-choose","trial_index":17,"time_elapsed":113566,"internal_node_id":"0.0-17.0"},{"rt":1011,"url":"\/tickets\/utils\/testing_after.html","trial_type":"html","trial_index":18,"time_elapsed":115758,"internal_node_id":"0.0-18.0"},{"result":154,"points":3,"place":0,"phase":0,"sequence":0,"times":[2933,462,415,401,503,454,433,674],"next_num":8,"trial_type":"ticket-choose","trial_index":19,"time_elapsed":128744,"internal_node_id":"0.0-19.0"},{"result":162,"points":1,"place":2,"phase":0,"sequence":1,"times":[1033],"next_num":1,"trial_type":"ticket-choose","trial_index":20,"time_elapsed":136195,"internal_node_id":"0.0-20.0"},{"result":157,"points":3,"place":0,"phase":0,"sequence":2,"times":[1369,3798,1299],"next_num":3,"trial_type":"ticket-choose","trial_index":21,"time_elapsed":148753,"internal_node_id":"0.0-21.0"},{"result":167,"points":2,"place":1,"phase":0,"sequence":3,"times":[1024,493,918],"next_num":3,"trial_type":"ticket-choose","trial_index":22,"time_elapsed":156264,"internal_node_id":"0.0-22.0"},{"result":146,"points":3,"place":0,"phase":0,"sequence":4,"times":[1962,852,1159],"next_num":3,"trial_type":"ticket-choose","trial_index":23,"time_elapsed":165761,"internal_node_id":"0.0-23.0"},{"result":166,"points":2,"place":1,"phase":0,"sequence":5,"times":[903,534,841],"next_num":3,"trial_type":"ticket-choose","trial_index":24,"time_elapsed":173453,"internal_node_id":"0.0-24.0"},{"result":168,"points":1,"place":2,"phase":0,"sequence":6,"times":[791],"next_num":1,"trial_type":"ticket-choose","trial_index":25,"time_elapsed":179071,"internal_node_id":"0.0-25.0"},{"result":161,"points":3,"place":0,"phase":0,"sequence":7,"times":[1916],"next_num":1,"trial_type":"ticket-choose","trial_index":26,"time_elapsed":185577,"internal_node_id":"0.0-26.0"},{"result":169,"points":1,"place":4,"phase":0,"sequence":8,"times":[1050],"next_num":1,"trial_type":"ticket-choose","trial_index":27,"time_elapsed":191254,"internal_node_id":"0.0-27.0"},{"result":169,"points":3,"place":0,"phase":0,"sequence":9,"times":[949],"next_num":1,"trial_type":"ticket-choose","trial_index":28,"time_elapsed":197408,"internal_node_id":"0.0-28.0"},{"result":150,"points":3,"place":0,"phase":0,"sequence":10,"times":[1159,794],"next_num":2,"trial_type":"ticket-choose","trial_index":29,"time_elapsed":204429,"internal_node_id":"0.0-29.0"},{"result":150,"points":2,"place":1,"phase":0,"sequence":11,"times":[993,596,907],"next_num":3,"trial_type":"ticket-choose","trial_index":30,"time_elapsed":212430,"internal_node_id":"0.0-30.0"},{"result":188,"points":0,"place":5,"phase":0,"sequence":12,"times":[906,744,870],"next_num":3,"trial_type":"ticket-choose","trial_index":31,"time_elapsed":220120,"internal_node_id":"0.0-31.0"},{"result":170,"points":1,"place":4,"phase":0,"sequence":13,"times":[1243],"next_num":1,"trial_type":"ticket-choose","trial_index":32,"time_elapsed":226309,"internal_node_id":"0.0-32.0"},{"result":160,"points":1,"place":2,"phase":0,"sequence":14,"times":[651,808,390,1143,382,464,1449],"next_num":7,"trial_type":"ticket-choose","trial_index":33,"time_elapsed":238109,"internal_node_id":"0.0-33.0"},{"result":164,"points":1,"place":4,"phase":0,"sequence":15,"times":[1244],"next_num":1,"trial_type":"ticket-choose","trial_index":34,"time_elapsed":244094,"internal_node_id":"0.0-34.0"},{"result":188,"points":1,"place":4,"phase":0,"sequence":16,"times":[1082,489,374,323,328,460,619,691,1022,1702],"next_num":10,"trial_type":"ticket-choose","trial_index":35,"time_elapsed":257729,"internal_node_id":"0.0-35.0"},{"result":154,"points":2,"place":1,"phase":0,"sequence":17,"times":[965,574,887],"next_num":3,"trial_type":"ticket-choose","trial_index":36,"time_elapsed":266221,"internal_node_id":"0.0-36.0"},{"result":170,"points":2,"place":1,"phase":0,"sequence":18,"times":[1498,521,879],"next_num":3,"trial_type":"ticket-choose","trial_index":37,"time_elapsed":275215,"internal_node_id":"0.0-37.0"},{"result":158,"points":3,"place":0,"phase":0,"sequence":19,"times":[945,650,552,652,499,878],"next_num":6,"trial_type":"ticket-choose","trial_index":38,"time_elapsed":286934,"internal_node_id":"0.0-38.0"},{"result":156,"points":1,"place":2,"phase":0,"sequence":20,"times":[860,437,385,380,791],"next_num":5,"trial_type":"ticket-choose","trial_index":39,"time_elapsed":295258,"internal_node_id":"0.0-39.0"},{"result":155,"points":3,"place":0,"phase":0,"sequence":21,"times":[1269,1138],"next_num":2,"trial_type":"ticket-choose","trial_index":40,"time_elapsed":303611,"internal_node_id":"0.0-40.0"},{"result":169,"points":1,"place":4,"phase":0,"sequence":22,"times":[1419],"next_num":1,"trial_type":"ticket-choose","trial_index":41,"time_elapsed":314643,"internal_node_id":"0.0-41.0"},{"result":170,"points":1,"place":3,"phase":0,"sequence":23,"times":[1433,859,1027],"next_num":3,"trial_type":"ticket-choose","trial_index":42,"time_elapsed":322776,"internal_node_id":"0.0-42.0"},{"result":159,"points":3,"place":0,"phase":0,"sequence":24,"times":[752],"next_num":1,"trial_type":"ticket-choose","trial_index":43,"time_elapsed":328716,"internal_node_id":"0.0-43.0"},{"result":176,"points":1,"place":4,"phase":0,"sequence":25,"times":[314,240,623,294,359,319,367,535,438,898],"next_num":10,"trial_type":"ticket-choose","trial_index":44,"time_elapsed":339366,"internal_node_id":"0.0-44.0"},{"result":186,"points":1,"place":4,"phase":0,"sequence":26,"times":[1585,492,487,247,424,416,448,551,463,1207],"next_num":11,"trial_type":"ticket-choose","trial_index":45,"time_elapsed":352167,"internal_node_id":"0.0-45.0"},{"result":152,"points":3,"place":0,"phase":0,"sequence":27,"times":[1171,328,239,578,448,481,829],"next_num":7,"trial_type":"ticket-choose","trial_index":46,"time_elapsed":362213,"internal_node_id":"0.0-46.0"},{"result":145,"points":3,"place":0,"phase":0,"sequence":28,"times":[841,559,447,405,424,502,488,271,828],"next_num":9,"trial_type":"ticket-choose","trial_index":47,"time_elapsed":373043,"internal_node_id":"0.0-47.0"},{"result":149,"points":3,"place":0,"phase":0,"sequence":29,"times":[1041,383,305,390,350,454,416,585,740],"next_num":9,"trial_type":"ticket-choose","trial_index":48,"time_elapsed":383139,"internal_node_id":"0.0-48.0"},{"result":143,"points":3,"place":0,"phase":0,"sequence":30,"times":[1042,615,440,400,679],"next_num":5,"trial_type":"ticket-choose","trial_index":49,"time_elapsed":391484,"internal_node_id":"0.0-49.0"},{"result":148,"points":3,"place":0,"phase":0,"sequence":31,"times":[1050],"next_num":1,"trial_type":"ticket-choose","trial_index":50,"time_elapsed":396933,"internal_node_id":"0.0-50.0"},{"result":154,"points":2,"place":1,"phase":0,"sequence":32,"times":[1915,528,890],"next_num":3,"trial_type":"ticket-choose","trial_index":51,"time_elapsed":405379,"internal_node_id":"0.0-51.0"},{"result":165,"points":2,"place":1,"phase":0,"sequence":33,"times":[1105,463,669],"next_num":3,"trial_type":"ticket-choose","trial_index":52,"time_elapsed":412712,"internal_node_id":"0.0-52.0"},{"result":154,"points":2,"place":1,"phase":0,"sequence":34,"times":[981,811],"next_num":2,"trial_type":"ticket-choose","trial_index":53,"time_elapsed":419112,"internal_node_id":"0.0-53.0"},{"result":170,"points":2,"place":1,"phase":0,"sequence":35,"times":[1289,486,479,504,464,455,694],"next_num":7,"trial_type":"ticket-choose","trial_index":54,"time_elapsed":428896,"internal_node_id":"0.0-54.0"},{"result":156,"points":3,"place":0,"phase":0,"sequence":36,"times":[3083],"next_num":1,"trial_type":"ticket-choose","trial_index":55,"time_elapsed":436248,"internal_node_id":"0.0-55.0"},{"result":175,"points":2,"place":1,"phase":0,"sequence":37,"times":[2322,447,730],"next_num":3,"trial_type":"ticket-choose","trial_index":56,"time_elapsed":445189,"internal_node_id":"0.0-56.0"},{"result":138,"points":3,"place":0,"phase":0,"sequence":38,"times":[3121,519,647,440,464,809],"next_num":6,"trial_type":"ticket-choose","trial_index":57,"time_elapsed":456413,"internal_node_id":"0.0-57.0"},{"result":181,"points":0,"place":6,"phase":0,"sequence":39,"times":[722],"next_num":1,"trial_type":"ticket-choose","trial_index":58,"time_elapsed":462251,"internal_node_id":"0.0-58.0"},{"result":152,"points":3,"place":0,"phase":0,"sequence":40,"times":[769],"next_num":1,"trial_type":"ticket-choose","trial_index":59,"time_elapsed":466539,"internal_node_id":"0.0-59.0"},{"result":183,"points":1,"place":4,"phase":0,"sequence":41,"times":[789],"next_num":1,"trial_type":"ticket-choose","trial_index":60,"time_elapsed":472111,"internal_node_id":"0.0-60.0"},{"result":186,"points":1,"place":4,"phase":0,"sequence":42,"times":[862],"next_num":1,"trial_type":"ticket-choose","trial_index":61,"time_elapsed":477095,"internal_node_id":"0.0-61.0"},{"result":163,"points":3,"place":0,"phase":0,"sequence":43,"times":[1217,471,495,503,758,448,446,1032,614],"next_num":9,"trial_type":"ticket-choose","trial_index":62,"time_elapsed":489305,"internal_node_id":"0.0-62.0"},{"result":159,"points":1,"place":2,"phase":0,"sequence":44,"times":[882,735],"next_num":2,"trial_type":"ticket-choose","trial_index":63,"time_elapsed":496752,"internal_node_id":"0.0-63.0"},{"result":166,"points":1,"place":3,"phase":0,"sequence":45,"times":[890,398,360,503,1166],"next_num":5,"trial_type":"ticket-choose","trial_index":64,"time_elapsed":504880,"internal_node_id":"0.0-64.0"},{"result":192,"points":0,"place":5,"phase":0,"sequence":46,"times":[538,2573,287,248,1306],"next_num":5,"trial_type":"ticket-choose","trial_index":65,"time_elapsed":513471,"internal_node_id":"0.0-65.0"},{"result":161,"points":1,"place":2,"phase":0,"sequence":47,"times":[900,327,279,456,462,515,848],"next_num":7,"trial_type":"ticket-choose","trial_index":66,"time_elapsed":522303,"internal_node_id":"0.0-66.0"},{"result":167,"points":2,"place":1,"phase":0,"sequence":48,"times":[1025,601],"next_num":2,"trial_type":"ticket-choose","trial_index":67,"time_elapsed":529259,"internal_node_id":"0.0-67.0"},{"result":169,"points":1,"place":2,"phase":0,"sequence":49,"times":[873,454,780],"next_num":3,"trial_type":"ticket-choose","trial_index":68,"time_elapsed":535779,"internal_node_id":"0.0-68.0"},{"responses":[{"value":0,"offby":0,"category":"$106 - $134","category_index":0},{"value":0,"offby":-1,"category":"$135 - $150","category_index":1},{"value":0,"offby":-3,"category":"$151 - $165","category_index":2},{"value":0,"offby":-6,"category":"$166 - $180","category_index":3},{"value":0,"offby":-6,"category":"$181 - $195","category_index":4},{"value":0,"offby":-3,"category":"$196 - $210","category_index":5},{"value":0,"offby":-1,"category":"$211 - $225","category_index":6}],"phase":0,"number":1,"trial_type":"bar-choose","trial_index":69,"time_elapsed":540653,"internal_node_id":"0.0-69.0"},{"rt":801,"url":"\/tickets\/utils\/start2.html","trial_type":"html","trial_index":70,"time_elapsed":542607,"internal_node_id":"0.0-70.0"},{"result":"error","trial_type":"number-animation","trial_index":71,"time_elapsed":543609,"internal_node_id":"0.0-71.0"},{"trial_type":"number-animation","trial_index":72,"time_elapsed":545699,"internal_node_id":"0.0-72.0"},{"phase":1,"sequence":0,"avg":184,"response":170,"trial_type":"training_avg","trial_index":73,"time_elapsed":565642,"internal_node_id":"0.0-73.0"},{"trial_type":"number-animation","trial_index":74,"time_elapsed":573619,"internal_node_id":"0.0-74.0"},{"phase":1,"sequence":1,"avg":199,"response":170,"trial_type":"training_avg","trial_index":75,"time_elapsed":576955,"internal_node_id":"0.0-75.0"},{"trial_type":"number-animation","trial_index":76,"time_elapsed":583051,"internal_node_id":"0.0-76.0"},{"phase":1,"sequence":2,"avg":199,"response":170,"trial_type":"training_avg","trial_index":77,"time_elapsed":585575,"internal_node_id":"0.0-77.0"},{"trial_type":"number-animation","trial_index":78,"time_elapsed":592611,"internal_node_id":"0.0-78.0"},{"phase":1,"sequence":3,"avg":210,"response":170,"trial_type":"training_avg","trial_index":79,"time_elapsed":595927,"internal_node_id":"0.0-79.0"},{"trial_type":"number-animation","trial_index":80,"time_elapsed":603371,"internal_node_id":"0.0-80.0"},{"phase":1,"sequence":4,"avg":202,"response":170,"trial_type":"training_avg","trial_index":81,"time_elapsed":606062,"internal_node_id":"0.0-81.0"},{"responses":[{"value":0,"offby":-1,"category":"$105 - $130","category_index":0},{"value":0,"offby":-2,"category":"$131 - $155","category_index":1},{"value":0,"offby":-2,"category":"$156 - $180","category_index":2},{"value":0,"offby":-5,"category":"$181 - $205","category_index":3},{"value":0,"offby":-5,"category":"$206 - $230","category_index":4},{"value":0,"offby":-3,"category":"$231 - $255","category_index":5},{"value":0,"offby":-2,"category":"$256 - $280","category_index":6}],"phase":1,"number":0,"trial_type":"bar-choose","trial_index":82,"time_elapsed":611618,"internal_node_id":"0.0-82.0"},{"rt":704,"url":"\/tickets\/utils\/testing2.html","trial_type":"html","trial_index":83,"time_elapsed":613486,"internal_node_id":"0.0-83.0"},{"phase":1,"order":[26,23,27,10,16,17,18,32,7,6,4,28,36,5,24,22,1,3,47,39,25,30,14,8,33,31,48,0,12,2,45,9,35,41,49,46,29,38,43,21,15,40,11,44,13,37,19,20,34,42],"trial_type":"store_order","trial_index":84,"time_elapsed":614488,"internal_node_id":"0.0-84.0"},{"result":154,"points":3,"place":0,"phase":1,"sequence":0,"times":[4316],"next_num":1,"trial_type":"ticket-choose","trial_index":85,"time_elapsed":623096,"internal_node_id":"0.0-85.0"},{"result":176,"points":3,"place":0,"phase":1,"sequence":1,"times":[1153],"next_num":1,"trial_type":"ticket-choose","trial_index":86,"time_elapsed":629483,"internal_node_id":"0.0-86.0"},{"result":137,"points":3,"place":0,"phase":1,"sequence":2,"times":[1620],"next_num":1,"trial_type":"ticket-choose","trial_index":87,"time_elapsed":636314,"internal_node_id":"0.0-87.0"},{"result":169,"points":1,"place":4,"phase":1,"sequence":3,"times":[1383],"next_num":1,"trial_type":"ticket-choose","trial_index":88,"time_elapsed":643152,"internal_node_id":"0.0-88.0"},{"result":165,"points":2,"place":1,"phase":1,"sequence":4,"times":[1378,587,604,539,547,580,1043],"next_num":7,"trial_type":"ticket-choose","trial_index":89,"time_elapsed":654391,"internal_node_id":"0.0-89.0"},{"result":177,"points":1,"place":3,"phase":1,"sequence":5,"times":[1354,668,870],"next_num":3,"trial_type":"ticket-choose","trial_index":90,"time_elapsed":662071,"internal_node_id":"0.0-90.0"},{"result":117,"points":3,"place":0,"phase":1,"sequence":6,"times":[839,402,318,294,296,273,425,574,708],"next_num":9,"trial_type":"ticket-choose","trial_index":91,"time_elapsed":671551,"internal_node_id":"0.0-91.0"},{"result":190,"points":1,"place":2,"phase":1,"sequence":7,"times":[1542,276,367,383,391,643,462,751],"next_num":8,"trial_type":"ticket-choose","trial_index":92,"time_elapsed":682744,"internal_node_id":"0.0-92.0"},{"result":150,"points":3,"place":0,"phase":1,"sequence":8,"times":[893,451,452,255,351,336,351,483,501,853],"next_num":10,"trial_type":"ticket-choose","trial_index":93,"time_elapsed":694454,"internal_node_id":"0.0-93.0"},{"result":150,"points":3,"place":0,"phase":1,"sequence":9,"times":[831,624,484,274,453,469,517,601,571,761],"next_num":10,"trial_type":"ticket-choose","trial_index":94,"time_elapsed":706102,"internal_node_id":"0.0-94.0"},{"result":142,"points":3,"place":0,"phase":1,"sequence":10,"times":[731,309,398,374,590,589,666,856,1047,455],"next_num":10,"trial_type":"ticket-choose","trial_index":95,"time_elapsed":717638,"internal_node_id":"0.0-95.0"},{"result":163,"points":3,"place":0,"phase":1,"sequence":11,"times":[767],"next_num":1,"trial_type":"ticket-choose","trial_index":96,"time_elapsed":722693,"internal_node_id":"0.0-96.0"},{"result":148,"points":3,"place":0,"phase":1,"sequence":12,"times":[1019,541,208,497,219,350,478,759],"next_num":8,"trial_type":"ticket-choose","trial_index":97,"time_elapsed":732285,"internal_node_id":"0.0-97.0"},{"result":126,"points":3,"place":0,"phase":1,"sequence":13,"times":[1006,390,278,503,287,218,248,481,471,1172],"next_num":10,"trial_type":"ticket-choose","trial_index":98,"time_elapsed":743397,"internal_node_id":"0.0-98.0"},{"result":210,"points":1,"place":4,"phase":1,"sequence":14,"times":[681,264,226,266,306,303,271,445,406,754],"next_num":10,"trial_type":"ticket-choose","trial_index":99,"time_elapsed":753325,"internal_node_id":"0.0-99.0"},{"result":145,"points":3,"place":0,"phase":1,"sequence":15,"times":[1318],"next_num":1,"trial_type":"ticket-choose","trial_index":100,"time_elapsed":759277,"internal_node_id":"0.0-100.0"},{"result":179,"points":1,"place":4,"phase":1,"sequence":16,"times":[722],"next_num":1,"trial_type":"ticket-choose","trial_index":101,"time_elapsed":763860,"internal_node_id":"0.0-101.0"},{"result":148,"points":2,"place":1,"phase":1,"sequence":17,"times":[781,262,974],"next_num":3,"trial_type":"ticket-choose","trial_index":102,"time_elapsed":770132,"internal_node_id":"0.0-102.0"},{"result":149,"points":2,"place":1,"phase":1,"sequence":18,"times":[664,244,242,296,462,555,509,831],"next_num":8,"trial_type":"ticket-choose","trial_index":103,"time_elapsed":779628,"internal_node_id":"0.0-103.0"},{"result":218,"points":0,"place":7,"phase":1,"sequence":19,"times":[1420],"next_num":1,"trial_type":"ticket-choose","trial_index":104,"time_elapsed":783979,"internal_node_id":"0.0-104.0"},{"result":141,"points":3,"place":0,"phase":1,"sequence":20,"times":[750],"next_num":1,"trial_type":"ticket-choose","trial_index":105,"time_elapsed":788604,"internal_node_id":"0.0-105.0"},{"result":116,"points":3,"place":0,"phase":1,"sequence":21,"times":[653,224,215,480,459,792],"next_num":6,"trial_type":"ticket-choose","trial_index":106,"time_elapsed":796340,"internal_node_id":"0.0-106.0"},{"result":256,"points":0,"place":8,"phase":1,"sequence":22,"times":[770,352,712,271,264,223,263,367,376,728],"next_num":11,"trial_type":"ticket-choose","trial_index":107,"time_elapsed":804962,"internal_node_id":"0.0-107.0"},{"result":134,"points":3,"place":0,"phase":1,"sequence":23,"times":[474,231,719,463,502,366,368,433,462,1300],"next_num":10,"trial_type":"ticket-choose","trial_index":108,"time_elapsed":816307,"internal_node_id":"0.0-108.0"},{"result":187,"points":1,"place":3,"phase":1,"sequence":24,"times":[836,239,287,453,365,369,1121],"next_num":7,"trial_type":"ticket-choose","trial_index":109,"time_elapsed":826507,"internal_node_id":"0.0-109.0"},{"result":138,"points":3,"place":0,"phase":1,"sequence":25,"times":[593,342,231,271,297,248,400,1552],"next_num":8,"trial_type":"ticket-choose","trial_index":110,"time_elapsed":836331,"internal_node_id":"0.0-110.0"},{"result":195,"points":1,"place":3,"phase":1,"sequence":26,"times":[881,256,607,295,294,369,913],"next_num":7,"trial_type":"ticket-choose","trial_index":111,"time_elapsed":846490,"internal_node_id":"0.0-111.0"},{"result":157,"points":2,"place":1,"phase":1,"sequence":27,"times":[1968,323,932],"next_num":3,"trial_type":"ticket-choose","trial_index":112,"time_elapsed":854378,"internal_node_id":"0.0-112.0"},{"result":136,"points":3,"place":0,"phase":1,"sequence":28,"times":[1178,349,424,209,400,656,329,439,599],"next_num":9,"trial_type":"ticket-choose","trial_index":113,"time_elapsed":864242,"internal_node_id":"0.0-113.0"},{"result":191,"points":2,"place":1,"phase":1,"sequence":29,"times":[769,247,1175],"next_num":3,"trial_type":"ticket-choose","trial_index":114,"time_elapsed":871685,"internal_node_id":"0.0-114.0"},{"result":216,"points":0,"place":5,"phase":1,"sequence":30,"times":[809,507,272],"next_num":3,"trial_type":"ticket-choose","trial_index":115,"time_elapsed":876445,"internal_node_id":"0.0-115.0"},{"result":194,"points":1,"place":4,"phase":1,"sequence":31,"times":[1373],"next_num":1,"trial_type":"ticket-choose","trial_index":116,"time_elapsed":882317,"internal_node_id":"0.0-116.0"},{"result":149,"points":2,"place":1,"phase":1,"sequence":32,"times":[962,947],"next_num":2,"trial_type":"ticket-choose","trial_index":117,"time_elapsed":888833,"internal_node_id":"0.0-117.0"},{"result":156,"points":1,"place":3,"phase":1,"sequence":33,"times":[864,507,256,893],"next_num":4,"trial_type":"ticket-choose","trial_index":118,"time_elapsed":896757,"internal_node_id":"0.0-118.0"},{"result":166,"points":1,"place":2,"phase":1,"sequence":34,"times":[923,721],"next_num":2,"trial_type":"ticket-choose","trial_index":119,"time_elapsed":902469,"internal_node_id":"0.0-119.0"},{"result":156,"points":3,"place":0,"phase":1,"sequence":35,"times":[1010,1004,257,519,209,1465],"next_num":6,"trial_type":"ticket-choose","trial_index":120,"time_elapsed":911956,"internal_node_id":"0.0-120.0"},{"result":158,"points":3,"place":0,"phase":1,"sequence":36,"times":[1061],"next_num":1,"trial_type":"ticket-choose","trial_index":121,"time_elapsed":917749,"internal_node_id":"0.0-121.0"},{"result":173,"points":2,"place":1,"phase":1,"sequence":37,"times":[936,481,302,264,239,654,270,209,422,321],"next_num":11,"trial_type":"ticket-choose","trial_index":122,"time_elapsed":928324,"internal_node_id":"0.0-122.0"},{"result":181,"points":1,"place":2,"phase":1,"sequence":38,"times":[1122,247,232,319,327,552,351,369,360,574],"next_num":11,"trial_type":"ticket-choose","trial_index":123,"time_elapsed":939820,"internal_node_id":"0.0-123.0"},{"result":165,"points":2,"place":1,"phase":1,"sequence":39,"times":[1113,569,616],"next_num":3,"trial_type":"ticket-choose","trial_index":124,"time_elapsed":971588,"internal_node_id":"0.0-124.0"},{"result":144,"points":3,"place":0,"phase":1,"sequence":40,"times":[5850,496,1168,399,553,448,378,448,2381],"next_num":9,"trial_type":"ticket-choose","trial_index":125,"time_elapsed":991640,"internal_node_id":"0.0-125.0"},{"result":160,"points":1,"place":2,"phase":1,"sequence":41,"times":[570,388,415,953],"next_num":4,"trial_type":"ticket-choose","trial_index":126,"time_elapsed":999616,"internal_node_id":"0.0-126.0"},{"result":139,"points":3,"place":0,"phase":1,"sequence":42,"times":[770,418,608,496,513,478,1584,616,646],"next_num":9,"trial_type":"ticket-choose","trial_index":127,"time_elapsed":1011447,"internal_node_id":"0.0-127.0"},{"result":158,"points":1,"place":2,"phase":1,"sequence":43,"times":[1540,925],"next_num":2,"trial_type":"ticket-choose","trial_index":128,"time_elapsed":1018183,"internal_node_id":"0.0-128.0"},{"result":151,"points":1,"place":2,"phase":1,"sequence":44,"times":[1085,373,271,480,457,407,377,522],"next_num":8,"trial_type":"ticket-choose","trial_index":129,"time_elapsed":1027383,"internal_node_id":"0.0-129.0"},{"result":178,"points":1,"place":3,"phase":1,"sequence":45,"times":[12832,361,853],"next_num":3,"trial_type":"ticket-choose","trial_index":130,"time_elapsed":1046608,"internal_node_id":"0.0-130.0"},{"result":156,"points":3,"place":0,"phase":1,"sequence":46,"times":[824,418,463,209,627,218,224,416,1688],"next_num":9,"trial_type":"ticket-choose","trial_index":131,"time_elapsed":1060186,"internal_node_id":"0.0-131.0"},{"result":162,"points":3,"place":0,"phase":1,"sequence":47,"times":[1396],"next_num":1,"trial_type":"ticket-choose","trial_index":132,"time_elapsed":1065938,"internal_node_id":"0.0-132.0"},{"result":163,"points":1,"place":2,"phase":1,"sequence":48,"times":[737,1846,935,654],"next_num":4,"trial_type":"ticket-choose","trial_index":133,"time_elapsed":1074874,"internal_node_id":"0.0-133.0"},{"result":126,"points":3,"place":0,"phase":1,"sequence":49,"times":[530,476,496,529,1281],"next_num":5,"trial_type":"ticket-choose","trial_index":134,"time_elapsed":1082642,"internal_node_id":"0.0-134.0"},{"responses":[{"value":0,"offby":-1,"category":"$105 - $130","category_index":0},{"value":0,"offby":-2,"category":"$131 - $155","category_index":1},{"value":0,"offby":-2,"category":"$156 - $180","category_index":2},{"value":0,"offby":-5,"category":"$181 - $205","category_index":3},{"value":0,"offby":-5,"category":"$206 - $230","category_index":4},{"value":0,"offby":-3,"category":"$231 - $255","category_index":5},{"value":0,"offby":-2,"category":"$256 - $280","category_index":6}],"phase":1,"number":1,"trial_type":"bar-choose","trial_index":135,"time_elapsed":1089372,"internal_node_id":"0.0-135.0"},{"during":"Watching TV","bonus":260,"trial_type":"final","trial_index":136,"time_elapsed":1103546,"internal_node_id":"0.0-136.0"}],"bonus":260}