{"start_time":"2017-01-24 13:47:39","end_time":"2017-01-24 14:15:47","points_phase0":79,"points_phase1":75,"phase_order":0,"age":33,"gender":"f","tries":1,"during":"Nothing","worker_id":"770574","assignment_id":"872910","data":[{"rt":26181,"url":"\/tickets\/utils\/consent.html","trial_type":"html","trial_index":0,"time_elapsed":26427,"internal_node_id":"0.0-0.0"},{"age":33,"gender":"f","trial_type":"age","trial_index":1,"time_elapsed":37600,"internal_node_id":"0.0-1.0"},{"tries":1,"trial_type":"instructions_check","trial_index":2,"time_elapsed":82482,"internal_node_id":"0.0-2.0"},{"rt":30272,"url":"\/tickets\/utils\/start.html","trial_type":"html","trial_index":3,"time_elapsed":113897,"internal_node_id":"0.0-3.0"},{"trial_type":"number-animation","trial_index":4,"time_elapsed":130940,"internal_node_id":"0.0-4.0"},{"phase":0,"sequence":0,"avg":181,"response":170,"trial_type":"training_avg","trial_index":5,"time_elapsed":143288,"internal_node_id":"0.0-5.0"},{"trial_type":"number-animation","trial_index":6,"time_elapsed":155073,"internal_node_id":"0.0-6.0"},{"phase":0,"sequence":1,"avg":188,"response":185,"trial_type":"training_avg","trial_index":7,"time_elapsed":167726,"internal_node_id":"0.0-7.0"},{"trial_type":"number-animation","trial_index":8,"time_elapsed":176332,"internal_node_id":"0.0-8.0"},{"phase":0,"sequence":2,"avg":188,"response":185,"trial_type":"training_avg","trial_index":9,"time_elapsed":187861,"internal_node_id":"0.0-9.0"},{"trial_type":"number-animation","trial_index":10,"time_elapsed":195038,"internal_node_id":"0.0-10.0"},{"phase":0,"sequence":3,"avg":177,"response":160,"trial_type":"training_avg","trial_index":11,"time_elapsed":207656,"internal_node_id":"0.0-11.0"},{"trial_type":"number-animation","trial_index":12,"time_elapsed":218670,"internal_node_id":"0.0-12.0"},{"phase":0,"sequence":4,"avg":182,"response":160,"trial_type":"training_avg","trial_index":13,"time_elapsed":226300,"internal_node_id":"0.0-13.0"},{"responses":[{"value":2,"offby":2,"category":"$106 - $134","category_index":0},{"value":1,"offby":0,"category":"$135 - $150","category_index":1},{"value":2,"offby":-1,"category":"$151 - $165","category_index":2},{"value":4,"offby":-2,"category":"$166 - $180","category_index":3},{"value":9,"offby":3,"category":"$181 - $195","category_index":4},{"value":1,"offby":-2,"category":"$196 - $210","category_index":5},{"value":1,"offby":0,"category":"$211 - $225","category_index":6}],"phase":0,"number":0,"trial_type":"bar-choose","trial_index":14,"time_elapsed":326969,"internal_node_id":"0.0-14.0"},{"rt":18758,"url":"\/tickets\/\/utils\/testing.html","trial_type":"html","trial_index":15,"time_elapsed":346897,"internal_node_id":"0.0-15.0"},{"phase":0,"order":[18,41,20,26,19,24,13,5,14,43,31,4,9,49,2,45,42,34,38,46,17,1,3,40,28,22,37,48,33,7,15,36,47,32,27,12,11,30,10,35,0,8,6,29,39,21,23,16,44,25],"trial_type":"store_order","trial_index":16,"time_elapsed":347900,"internal_node_id":"0.0-16.0"},{"result":126,"points":3,"place":0,"phase":0,"sequence":-1,"times":[4167,1306,1014,839,597,804,610,766,1097,1112],"next_num":10,"trial_type":"ticket-choose","trial_index":17,"time_elapsed":364980,"internal_node_id":"0.0-17.0"},{"rt":149446,"url":"\/tickets\/utils\/testing_after.html","trial_type":"html","trial_index":18,"time_elapsed":515530,"internal_node_id":"0.0-18.0"},{"result":138,"points":3,"place":0,"phase":0,"sequence":0,"times":[5229,472,462,449,437,451,693,720,1404],"next_num":9,"trial_type":"ticket-choose","trial_index":19,"time_elapsed":530960,"internal_node_id":"0.0-19.0"},{"result":177,"points":0,"place":6,"phase":0,"sequence":1,"times":[2416,416,413,461,462,399,767,401,767,2235],"next_num":11,"trial_type":"ticket-choose","trial_index":20,"time_elapsed":544459,"internal_node_id":"0.0-20.0"},{"result":184,"points":1,"place":4,"phase":0,"sequence":2,"times":[3606,388,377,390,474,485,523,523,548,828],"next_num":10,"trial_type":"ticket-choose","trial_index":21,"time_elapsed":556809,"internal_node_id":"0.0-21.0"},{"result":176,"points":1,"place":4,"phase":0,"sequence":3,"times":[1427,426,437,620,525,730,573,608,561,865],"next_num":10,"trial_type":"ticket-choose","trial_index":22,"time_elapsed":567557,"internal_node_id":"0.0-22.0"},{"result":158,"points":3,"place":0,"phase":0,"sequence":4,"times":[3553,621,440,548,620,510,500,570,1282],"next_num":9,"trial_type":"ticket-choose","trial_index":23,"time_elapsed":580406,"internal_node_id":"0.0-23.0"},{"result":185,"points":1,"place":4,"phase":0,"sequence":5,"times":[1282,350,376,340,376,387,389,390,450,559],"next_num":11,"trial_type":"ticket-choose","trial_index":24,"time_elapsed":589308,"internal_node_id":"0.0-24.0"},{"result":155,"points":1,"place":2,"phase":0,"sequence":6,"times":[1212,365,304,621,414,413,426,1161],"next_num":8,"trial_type":"ticket-choose","trial_index":25,"time_elapsed":597832,"internal_node_id":"0.0-25.0"},{"result":143,"points":3,"place":0,"phase":0,"sequence":7,"times":[1046,305,327,509,292,426,474,622,548,1000],"next_num":10,"trial_type":"ticket-choose","trial_index":26,"time_elapsed":607332,"internal_node_id":"0.0-26.0"},{"result":163,"points":3,"place":0,"phase":0,"sequence":8,"times":[949,377,315,426,388,413,732,499,999],"next_num":9,"trial_type":"ticket-choose","trial_index":27,"time_elapsed":616305,"internal_node_id":"0.0-27.0"},{"result":170,"points":1,"place":2,"phase":0,"sequence":9,"times":[1634,292,328,364,291,304,291,351,373,608],"next_num":11,"trial_type":"ticket-choose","trial_index":28,"time_elapsed":625474,"internal_node_id":"0.0-28.0"},{"result":149,"points":3,"place":0,"phase":0,"sequence":10,"times":[890,363,426,363,277,267,497,1038],"next_num":8,"trial_type":"ticket-choose","trial_index":29,"time_elapsed":633471,"internal_node_id":"0.0-29.0"},{"result":140,"points":3,"place":0,"phase":0,"sequence":11,"times":[963,818,364,585,302,316,463,571,608,756],"next_num":10,"trial_type":"ticket-choose","trial_index":30,"time_elapsed":643021,"internal_node_id":"0.0-30.0"},{"result":138,"points":3,"place":0,"phase":0,"sequence":12,"times":[690,657,1245,475,512,461,768,670,523,892],"next_num":10,"trial_type":"ticket-choose","trial_index":31,"time_elapsed":654319,"internal_node_id":"0.0-31.0"},{"result":148,"points":3,"place":0,"phase":0,"sequence":13,"times":[1268,267,463,476,352,1061],"next_num":6,"trial_type":"ticket-choose","trial_index":32,"time_elapsed":661094,"internal_node_id":"0.0-32.0"},{"result":153,"points":3,"place":0,"phase":0,"sequence":14,"times":[693,243,255,217,863,391,497,510,585,672],"next_num":10,"trial_type":"ticket-choose","trial_index":33,"time_elapsed":669800,"internal_node_id":"0.0-33.0"},{"result":170,"points":1,"place":2,"phase":0,"sequence":15,"times":[8104,657,292,341,290,425,316,546,597,1453],"next_num":11,"trial_type":"ticket-choose","trial_index":34,"time_elapsed":686711,"internal_node_id":"0.0-34.0"},{"result":186,"points":1,"place":4,"phase":0,"sequence":16,"times":[1463,267,279,524,340,365,473,415,522,853],"next_num":11,"trial_type":"ticket-choose","trial_index":35,"time_elapsed":696312,"internal_node_id":"0.0-35.0"},{"result":194,"points":0,"place":8,"phase":0,"sequence":17,"times":[693,328,389,523,585,546,559,426,853,1111],"next_num":11,"trial_type":"ticket-choose","trial_index":36,"time_elapsed":706315,"internal_node_id":"0.0-36.0"},{"result":166,"points":2,"place":1,"phase":0,"sequence":18,"times":[2663,692,389,303,315,499,548,559,695,890],"next_num":10,"trial_type":"ticket-choose","trial_index":37,"time_elapsed":718090,"internal_node_id":"0.0-37.0"},{"result":208,"points":0,"place":6,"phase":0,"sequence":19,"times":[914,292,267,279,449,523,439,463,523,585],"next_num":11,"trial_type":"ticket-choose","trial_index":38,"time_elapsed":726870,"internal_node_id":"0.0-38.0"},{"result":149,"points":3,"place":0,"phase":0,"sequence":20,"times":[682,266,352,524,402,448,439,694,953],"next_num":9,"trial_type":"ticket-choose","trial_index":39,"time_elapsed":735223,"internal_node_id":"0.0-39.0"},{"result":154,"points":3,"place":0,"phase":0,"sequence":21,"times":[875,317,498,413,548,487,548,1527,707,855],"next_num":10,"trial_type":"ticket-choose","trial_index":40,"time_elapsed":745922,"internal_node_id":"0.0-40.0"},{"result":149,"points":3,"place":0,"phase":0,"sequence":22,"times":[684,315,291,732,303,266,292,585,537,866],"next_num":10,"trial_type":"ticket-choose","trial_index":41,"time_elapsed":754810,"internal_node_id":"0.0-41.0"},{"result":199,"points":0,"place":8,"phase":0,"sequence":23,"times":[814,375,314,219,328,425,413,535,485,1208],"next_num":11,"trial_type":"ticket-choose","trial_index":42,"time_elapsed":763759,"internal_node_id":"0.0-42.0"},{"result":188,"points":1,"place":4,"phase":0,"sequence":24,"times":[717,1196,572,365,278,535,510,424,608,610],"next_num":11,"trial_type":"ticket-choose","trial_index":43,"time_elapsed":773422,"internal_node_id":"0.0-43.0"},{"result":180,"points":1,"place":4,"phase":0,"sequence":25,"times":[1057,292,426,303,499,1000,450,512,523,709],"next_num":11,"trial_type":"ticket-choose","trial_index":44,"time_elapsed":783175,"internal_node_id":"0.0-44.0"},{"result":171,"points":1,"place":4,"phase":0,"sequence":26,"times":[499,352,302,426,499,437,510,449,498,585],"next_num":11,"trial_type":"ticket-choose","trial_index":45,"time_elapsed":791724,"internal_node_id":"0.0-45.0"},{"result":179,"points":1,"place":4,"phase":0,"sequence":27,"times":[751,1355,389,363,463,376,462,401,389,475],"next_num":11,"trial_type":"ticket-choose","trial_index":46,"time_elapsed":801224,"internal_node_id":"0.0-46.0"},{"result":169,"points":1,"place":2,"phase":0,"sequence":28,"times":[683,279,768,523,436,451,474,437,476,597],"next_num":11,"trial_type":"ticket-choose","trial_index":47,"time_elapsed":810441,"internal_node_id":"0.0-47.0"},{"result":155,"points":3,"place":0,"phase":0,"sequence":29,"times":[3309,438,510,561,449,280,487,534,525,1012],"next_num":10,"trial_type":"ticket-choose","trial_index":48,"time_elapsed":822414,"internal_node_id":"0.0-48.0"},{"result":166,"points":2,"place":1,"phase":0,"sequence":30,"times":[937,340,352,585,449,560,1293],"next_num":7,"trial_type":"ticket-choose","trial_index":49,"time_elapsed":830338,"internal_node_id":"0.0-49.0"},{"result":180,"points":0,"place":5,"phase":0,"sequence":31,"times":[1231,256,218,425,217,304,693,377,840,549],"next_num":11,"trial_type":"ticket-choose","trial_index":50,"time_elapsed":839313,"internal_node_id":"0.0-50.0"},{"result":154,"points":2,"place":1,"phase":0,"sequence":32,"times":[681,500,427,363,447,388,463,990],"next_num":8,"trial_type":"ticket-choose","trial_index":51,"time_elapsed":847272,"internal_node_id":"0.0-51.0"},{"result":200,"points":0,"place":5,"phase":0,"sequence":33,"times":[1072,805,339,573,426,402,461,414,424,620],"next_num":11,"trial_type":"ticket-choose","trial_index":52,"time_elapsed":856704,"internal_node_id":"0.0-52.0"},{"result":148,"points":3,"place":0,"phase":0,"sequence":34,"times":[1265],"next_num":1,"trial_type":"ticket-choose","trial_index":53,"time_elapsed":859832,"internal_node_id":"0.0-53.0"},{"result":202,"points":0,"place":8,"phase":0,"sequence":35,"times":[654,278,267,265,304,475,388,413,424,707],"next_num":11,"trial_type":"ticket-choose","trial_index":54,"time_elapsed":867962,"internal_node_id":"0.0-54.0"},{"result":149,"points":3,"place":0,"phase":0,"sequence":36,"times":[670,340,304,217,291,401,695,498,1014],"next_num":9,"trial_type":"ticket-choose","trial_index":55,"time_elapsed":875838,"internal_node_id":"0.0-55.0"},{"result":188,"points":0,"place":5,"phase":0,"sequence":37,"times":[1189,352,316,363,696,401,768,401,461,720],"next_num":11,"trial_type":"ticket-choose","trial_index":56,"time_elapsed":885387,"internal_node_id":"0.0-56.0"},{"result":142,"points":3,"place":0,"phase":0,"sequence":38,"times":[755,534,450,437,450,437,438,734,948],"next_num":9,"trial_type":"ticket-choose","trial_index":57,"time_elapsed":894070,"internal_node_id":"0.0-57.0"},{"result":227,"points":0,"place":9,"phase":0,"sequence":39,"times":[934,474,510,572,488,462,681,500,475,634],"next_num":11,"trial_type":"ticket-choose","trial_index":58,"time_elapsed":903606,"internal_node_id":"0.0-58.0"},{"result":158,"points":2,"place":1,"phase":0,"sequence":40,"times":[753,3213,1173],"next_num":3,"trial_type":"ticket-choose","trial_index":59,"time_elapsed":911187,"internal_node_id":"0.0-59.0"},{"result":147,"points":3,"place":0,"phase":0,"sequence":41,"times":[650,450,475,583,451,561,462,657,549,865],"next_num":10,"trial_type":"ticket-choose","trial_index":60,"time_elapsed":920725,"internal_node_id":"0.0-60.0"},{"result":155,"points":3,"place":0,"phase":0,"sequence":42,"times":[799,280,365,572,549,500,351,499,597,1562],"next_num":10,"trial_type":"ticket-choose","trial_index":61,"time_elapsed":930545,"internal_node_id":"0.0-61.0"},{"result":170,"points":1,"place":4,"phase":0,"sequence":43,"times":[1281,388,279,292,377,386,440,426,486,475],"next_num":11,"trial_type":"ticket-choose","trial_index":62,"time_elapsed":939557,"internal_node_id":"0.0-62.0"},{"result":171,"points":1,"place":3,"phase":0,"sequence":44,"times":[1572,278,339,279,293,403,350,460,536,680],"next_num":11,"trial_type":"ticket-choose","trial_index":63,"time_elapsed":949561,"internal_node_id":"0.0-63.0"},{"result":165,"points":1,"place":2,"phase":0,"sequence":45,"times":[740,304,341,3116,390,437,1319],"next_num":7,"trial_type":"ticket-choose","trial_index":64,"time_elapsed":959318,"internal_node_id":"0.0-64.0"},{"result":186,"points":1,"place":4,"phase":0,"sequence":46,"times":[865,670,292,327,328,303,500,414,487,878],"next_num":10,"trial_type":"ticket-choose","trial_index":65,"time_elapsed":968600,"internal_node_id":"0.0-65.0"},{"result":190,"points":0,"place":8,"phase":0,"sequence":47,"times":[627,474,278,340,278,376,489,413,533,745],"next_num":11,"trial_type":"ticket-choose","trial_index":66,"time_elapsed":977000,"internal_node_id":"0.0-66.0"},{"result":207,"points":0,"place":9,"phase":0,"sequence":48,"times":[1201,415,340,633,400,389,412,536,439,645],"next_num":11,"trial_type":"ticket-choose","trial_index":67,"time_elapsed":986308,"internal_node_id":"0.0-67.0"},{"result":168,"points":1,"place":4,"phase":0,"sequence":49,"times":[848,461,326,400,451,498,525,509,780,1099],"next_num":10,"trial_type":"ticket-choose","trial_index":68,"time_elapsed":996086,"internal_node_id":"0.0-68.0"},{"responses":[{"value":0,"offby":0,"category":"$106 - $134","category_index":0},{"value":1,"offby":0,"category":"$135 - $150","category_index":1},{"value":3,"offby":0,"category":"$151 - $165","category_index":2},{"value":3,"offby":-3,"category":"$166 - $180","category_index":3},{"value":7,"offby":1,"category":"$181 - $195","category_index":4},{"value":2,"offby":-1,"category":"$196 - $210","category_index":5},{"value":4,"offby":3,"category":"$211 - $225","category_index":6}],"phase":0,"number":1,"trial_type":"bar-choose","trial_index":69,"time_elapsed":1041046,"internal_node_id":"0.0-69.0"},{"rt":12581,"url":"\/tickets\/utils\/start2.html","trial_type":"html","trial_index":70,"time_elapsed":1054751,"internal_node_id":"0.0-70.0"},{"trial_type":"number-animation","trial_index":71,"time_elapsed":1063821,"internal_node_id":"0.0-71.0"},{"phase":1,"sequence":0,"avg":184,"response":178,"trial_type":"training_avg","trial_index":72,"time_elapsed":1072588,"internal_node_id":"0.0-72.0"},{"trial_type":"number-animation","trial_index":73,"time_elapsed":1079839,"internal_node_id":"0.0-73.0"},{"phase":1,"sequence":1,"avg":199,"response":170,"trial_type":"training_avg","trial_index":74,"time_elapsed":1086466,"internal_node_id":"0.0-74.0"},{"trial_type":"number-animation","trial_index":75,"time_elapsed":1093277,"internal_node_id":"0.0-75.0"},{"phase":1,"sequence":2,"avg":199,"response":193,"trial_type":"training_avg","trial_index":76,"time_elapsed":1101543,"internal_node_id":"0.0-76.0"},{"trial_type":"number-animation","trial_index":77,"time_elapsed":1109393,"internal_node_id":"0.0-77.0"},{"phase":1,"sequence":3,"avg":210,"response":200,"trial_type":"training_avg","trial_index":78,"time_elapsed":1114430,"internal_node_id":"0.0-78.0"},{"trial_type":"number-animation","trial_index":79,"time_elapsed":1120972,"internal_node_id":"0.0-79.0"},{"phase":1,"sequence":4,"avg":202,"response":185,"trial_type":"training_avg","trial_index":80,"time_elapsed":1128920,"internal_node_id":"0.0-80.0"},{"responses":[{"value":0,"offby":-1,"category":"$105 - $130","category_index":0},{"value":0,"offby":-2,"category":"$131 - $155","category_index":1},{"value":2,"offby":0,"category":"$156 - $180","category_index":2},{"value":4,"offby":-1,"category":"$181 - $205","category_index":3},{"value":10,"offby":5,"category":"$206 - $230","category_index":4},{"value":2,"offby":-1,"category":"$231 - $255","category_index":5},{"value":2,"offby":0,"category":"$256 - $280","category_index":6}],"phase":1,"number":0,"trial_type":"bar-choose","trial_index":81,"time_elapsed":1160147,"internal_node_id":"0.0-81.0"},{"rt":16122,"url":"\/tickets\/utils\/testing2.html","trial_type":"html","trial_index":82,"time_elapsed":1177409,"internal_node_id":"0.0-82.0"},{"phase":1,"order":[12,17,13,34,8,1,24,32,9,37,43,22,21,18,3,48,28,14,44,31,30,25,42,49,26,2,41,7,10,15,16,29,39,36,23,35,27,38,47,6,46,45,4,5,19,20,11,40,0,33],"trial_type":"store_order","trial_index":83,"time_elapsed":1178413,"internal_node_id":"0.0-83.0"},{"result":183,"points":1,"place":2,"phase":1,"sequence":0,"times":[3235,426,365,388,413,536,683,1477],"next_num":8,"trial_type":"ticket-choose","trial_index":84,"time_elapsed":1189550,"internal_node_id":"0.0-84.0"},{"result":140,"points":2,"place":1,"phase":1,"sequence":1,"times":[715,363,364,352,523,401,953],"next_num":7,"trial_type":"ticket-choose","trial_index":85,"time_elapsed":1196360,"internal_node_id":"0.0-85.0"},{"result":243,"points":0,"place":8,"phase":1,"sequence":2,"times":[653,352,682,340,278,264,304,536,376,1206],"next_num":10,"trial_type":"ticket-choose","trial_index":86,"time_elapsed":1205358,"internal_node_id":"0.0-86.0"},{"result":228,"points":0,"place":8,"phase":1,"sequence":3,"times":[679,352,304,621,278,278,341,315,340,622],"next_num":11,"trial_type":"ticket-choose","trial_index":87,"time_elapsed":1213232,"internal_node_id":"0.0-87.0"},{"result":134,"points":3,"place":0,"phase":1,"sequence":4,"times":[911,549,547,560,499,512,670,571,548,1011],"next_num":10,"trial_type":"ticket-choose","trial_index":88,"time_elapsed":1223331,"internal_node_id":"0.0-88.0"},{"result":165,"points":2,"place":1,"phase":1,"sequence":5,"times":[10191,560,1086],"next_num":3,"trial_type":"ticket-choose","trial_index":89,"time_elapsed":1237624,"internal_node_id":"0.0-89.0"},{"result":210,"points":1,"place":4,"phase":1,"sequence":6,"times":[3502,400,316,572,367,410,377,488,487,595],"next_num":11,"trial_type":"ticket-choose","trial_index":90,"time_elapsed":1248995,"internal_node_id":"0.0-90.0"},{"result":240,"points":0,"place":5,"phase":1,"sequence":7,"times":[485,266,341,679,365,363,426,329,498,1062],"next_num":11,"trial_type":"ticket-choose","trial_index":91,"time_elapsed":1257480,"internal_node_id":"0.0-91.0"},{"result":170,"points":3,"place":0,"phase":1,"sequence":8,"times":[435,449,376,475,670,400,364,719,560,1097],"next_num":10,"trial_type":"ticket-choose","trial_index":92,"time_elapsed":1266736,"internal_node_id":"0.0-92.0"},{"result":167,"points":2,"place":1,"phase":1,"sequence":9,"times":[629,364,278,1003],"next_num":4,"trial_type":"ticket-choose","trial_index":93,"time_elapsed":1271358,"internal_node_id":"0.0-93.0"},{"result":181,"points":1,"place":2,"phase":1,"sequence":10,"times":[459,401,341,327,317,439,498,498,1845,1184],"next_num":11,"trial_type":"ticket-choose","trial_index":94,"time_elapsed":1281530,"internal_node_id":"0.0-94.0"},{"result":200,"points":1,"place":4,"phase":1,"sequence":11,"times":[779,718,375,389,364,389,389,499,462,549],"next_num":11,"trial_type":"ticket-choose","trial_index":95,"time_elapsed":1292404,"internal_node_id":"0.0-95.0"},{"result":198,"points":1,"place":4,"phase":1,"sequence":12,"times":[4514,486,462,462,462,499,499,474,585,612],"next_num":11,"trial_type":"ticket-choose","trial_index":96,"time_elapsed":1305312,"internal_node_id":"0.0-96.0"},{"result":117,"points":3,"place":0,"phase":1,"sequence":13,"times":[496,449,473,499,487,474,585,731,2197],"next_num":9,"trial_type":"ticket-choose","trial_index":97,"time_elapsed":1315961,"internal_node_id":"0.0-97.0"},{"result":151,"points":1,"place":2,"phase":1,"sequence":14,"times":[986,437,366,705,409,341,952],"next_num":7,"trial_type":"ticket-choose","trial_index":98,"time_elapsed":1323385,"internal_node_id":"0.0-98.0"},{"result":199,"points":1,"place":4,"phase":1,"sequence":15,"times":[714,329,487,315,671,328,608,449,475,536],"next_num":11,"trial_type":"ticket-choose","trial_index":99,"time_elapsed":1332516,"internal_node_id":"0.0-99.0"},{"result":217,"points":1,"place":4,"phase":1,"sequence":16,"times":[702,401,315,452,424,437,436,497,462,621],"next_num":11,"trial_type":"ticket-choose","trial_index":100,"time_elapsed":1341332,"internal_node_id":"0.0-100.0"},{"result":182,"points":2,"place":1,"phase":1,"sequence":17,"times":[642,438,500,691,524,451,988],"next_num":7,"trial_type":"ticket-choose","trial_index":101,"time_elapsed":1348679,"internal_node_id":"0.0-101.0"},{"result":255,"points":0,"place":9,"phase":1,"sequence":18,"times":[460,401,303,572,328,351,547,401,512,488],"next_num":11,"trial_type":"ticket-choose","trial_index":102,"time_elapsed":1356894,"internal_node_id":"0.0-102.0"},{"result":205,"points":1,"place":4,"phase":1,"sequence":19,"times":[777,474,498,487,584,719,607,463,548,573],"next_num":11,"trial_type":"ticket-choose","trial_index":103,"time_elapsed":1366384,"internal_node_id":"0.0-103.0"},{"result":116,"points":3,"place":0,"phase":1,"sequence":20,"times":[432,473,353,448,537,991],"next_num":6,"trial_type":"ticket-choose","trial_index":104,"time_elapsed":1372423,"internal_node_id":"0.0-104.0"},{"result":177,"points":1,"place":4,"phase":1,"sequence":21,"times":[519,682,744,720,463,536,611,595,597,580],"next_num":11,"trial_type":"ticket-choose","trial_index":105,"time_elapsed":1382754,"internal_node_id":"0.0-105.0"},{"result":213,"points":1,"place":4,"phase":1,"sequence":22,"times":[775,2270,595,1417,474,683,388,353,425,621],"next_num":11,"trial_type":"ticket-choose","trial_index":106,"time_elapsed":1394688,"internal_node_id":"0.0-106.0"},{"result":209,"points":0,"place":7,"phase":1,"sequence":23,"times":[776,3373,523,559,632,488,682,400,901,402],"next_num":11,"trial_type":"ticket-choose","trial_index":107,"time_elapsed":1407246,"internal_node_id":"0.0-107.0"},{"result":193,"points":1,"place":4,"phase":1,"sequence":24,"times":[886,366,476,683,938,560,1074,926,572,769],"next_num":11,"trial_type":"ticket-choose","trial_index":108,"time_elapsed":1418433,"internal_node_id":"0.0-108.0"},{"result":147,"points":3,"place":0,"phase":1,"sequence":25,"times":[678,536,536,534,595,560,513,546,780,1085],"next_num":10,"trial_type":"ticket-choose","trial_index":109,"time_elapsed":1428568,"internal_node_id":"0.0-109.0"},{"result":110,"points":3,"place":0,"phase":1,"sequence":26,"times":[862,426,389,756,559,718,572,1074],"next_num":8,"trial_type":"ticket-choose","trial_index":110,"time_elapsed":1437422,"internal_node_id":"0.0-110.0"},{"result":150,"points":3,"place":0,"phase":1,"sequence":27,"times":[582,547,341,412,377,461,438,767,597,1027],"next_num":10,"trial_type":"ticket-choose","trial_index":111,"time_elapsed":1446703,"internal_node_id":"0.0-111.0"},{"result":157,"points":2,"place":1,"phase":1,"sequence":28,"times":[653,450,364,642,486,585,1037],"next_num":7,"trial_type":"ticket-choose","trial_index":112,"time_elapsed":1453932,"internal_node_id":"0.0-112.0"},{"result":144,"points":3,"place":0,"phase":1,"sequence":29,"times":[530,386,327,450,314,525,450,880,866],"next_num":9,"trial_type":"ticket-choose","trial_index":113,"time_elapsed":1462195,"internal_node_id":"0.0-113.0"},{"result":221,"points":0,"place":8,"phase":1,"sequence":30,"times":[740,328,304,302,488,326,340,522,487,499],"next_num":11,"trial_type":"ticket-choose","trial_index":114,"time_elapsed":1470559,"internal_node_id":"0.0-114.0"},{"result":180,"points":1,"place":4,"phase":1,"sequence":31,"times":[1106,401,328,304,326,389,365,486,508,659],"next_num":11,"trial_type":"ticket-choose","trial_index":115,"time_elapsed":1479532,"internal_node_id":"0.0-115.0"},{"result":183,"points":1,"place":3,"phase":1,"sequence":32,"times":[692,450,499,462,487,523,609,695,610,1270],"next_num":10,"trial_type":"ticket-choose","trial_index":116,"time_elapsed":1489548,"internal_node_id":"0.0-116.0"},{"result":148,"points":3,"place":0,"phase":1,"sequence":33,"times":[690,437,439,670,573,621,524,951],"next_num":8,"trial_type":"ticket-choose","trial_index":117,"time_elapsed":1498108,"internal_node_id":"0.0-117.0"},{"result":212,"points":1,"place":4,"phase":1,"sequence":34,"times":[664,510,315,376,377,621,500,535,616,782],"next_num":11,"trial_type":"ticket-choose","trial_index":118,"time_elapsed":1507155,"internal_node_id":"0.0-118.0"},{"result":295,"points":0,"place":9,"phase":1,"sequence":35,"times":[1156,278,536,292,708,378,536,304,365,512],"next_num":11,"trial_type":"ticket-choose","trial_index":119,"time_elapsed":1516302,"internal_node_id":"0.0-119.0"},{"result":137,"points":3,"place":0,"phase":1,"sequence":36,"times":[1006],"next_num":1,"trial_type":"ticket-choose","trial_index":120,"time_elapsed":1519126,"internal_node_id":"0.0-120.0"},{"result":173,"points":2,"place":1,"phase":1,"sequence":37,"times":[654,462,475,449,377,426,473,584,597,537],"next_num":11,"trial_type":"ticket-choose","trial_index":121,"time_elapsed":1528028,"internal_node_id":"0.0-121.0"},{"result":144,"points":3,"place":0,"phase":1,"sequence":38,"times":[494,218,940,880],"next_num":4,"trial_type":"ticket-choose","trial_index":122,"time_elapsed":1533945,"internal_node_id":"0.0-122.0"},{"result":182,"points":1,"place":3,"phase":1,"sequence":39,"times":[581,241,218,386,389,328,525,1331],"next_num":8,"trial_type":"ticket-choose","trial_index":123,"time_elapsed":1541319,"internal_node_id":"0.0-123.0"},{"result":257,"points":0,"place":6,"phase":1,"sequence":40,"times":[539,278,219,486,400,278,524,290,279,295],"next_num":11,"trial_type":"ticket-choose","trial_index":124,"time_elapsed":1548851,"internal_node_id":"0.0-124.0"},{"result":180,"points":1,"place":2,"phase":1,"sequence":41,"times":[667,293,265,328,352,523,377,414,622,727],"next_num":11,"trial_type":"ticket-choose","trial_index":125,"time_elapsed":1557325,"internal_node_id":"0.0-125.0"},{"result":142,"points":3,"place":0,"phase":1,"sequence":42,"times":[486,385,303,291,267,316,338,595,769,695],"next_num":10,"trial_type":"ticket-choose","trial_index":126,"time_elapsed":1565566,"internal_node_id":"0.0-126.0"},{"result":126,"points":3,"place":0,"phase":1,"sequence":43,"times":[678,268,267,536,254,327,267,560,316,438],"next_num":11,"trial_type":"ticket-choose","trial_index":127,"time_elapsed":1573611,"internal_node_id":"0.0-127.0"},{"result":156,"points":3,"place":0,"phase":1,"sequence":44,"times":[739,293,510,488,327,451,621,536,1026],"next_num":9,"trial_type":"ticket-choose","trial_index":128,"time_elapsed":1582135,"internal_node_id":"0.0-128.0"},{"result":208,"points":1,"place":4,"phase":1,"sequence":45,"times":[800,315,292,242,475,354,515,532,473,548],"next_num":11,"trial_type":"ticket-choose","trial_index":129,"time_elapsed":1590572,"internal_node_id":"0.0-129.0"},{"result":254,"points":0,"place":8,"phase":1,"sequence":46,"times":[2008,354,401,425,314,292,316,498,414,488],"next_num":11,"trial_type":"ticket-choose","trial_index":130,"time_elapsed":1599842,"internal_node_id":"0.0-130.0"},{"result":239,"points":0,"place":8,"phase":1,"sequence":47,"times":[518,267,462,254,402,366,276,523,474,731],"next_num":11,"trial_type":"ticket-choose","trial_index":131,"time_elapsed":1608144,"internal_node_id":"0.0-131.0"},{"result":157,"points":2,"place":1,"phase":1,"sequence":48,"times":[466,241,1013],"next_num":3,"trial_type":"ticket-choose","trial_index":132,"time_elapsed":1612351,"internal_node_id":"0.0-132.0"},{"result":178,"points":1,"place":2,"phase":1,"sequence":49,"times":[646,472,462,400,316,316,620,610,571,597],"next_num":11,"trial_type":"ticket-choose","trial_index":133,"time_elapsed":1621350,"internal_node_id":"0.0-133.0"},{"responses":[{"value":1,"offby":0,"category":"$105 - $130","category_index":0},{"value":2,"offby":0,"category":"$131 - $155","category_index":1},{"value":4,"offby":2,"category":"$156 - $180","category_index":2},{"value":6,"offby":1,"category":"$181 - $205","category_index":3},{"value":5,"offby":0,"category":"$206 - $230","category_index":4},{"value":1,"offby":-2,"category":"$231 - $255","category_index":5},{"value":1,"offby":-1,"category":"$256 - $280","category_index":6}],"phase":1,"number":1,"trial_type":"bar-choose","trial_index":134,"time_elapsed":1651285,"internal_node_id":"0.0-134.0"},{"during":"Nothing","bonus":204,"trial_type":"final","trial_index":135,"time_elapsed":1685404,"internal_node_id":"0.0-135.0"}],"bonus":204}