{"start_time":"2017-06-07 13:49:10","end_time":"2017-06-07 14:08:49","points_phase0":106,"points_phase1":101,"phase_order":0,"age":30,"gender":"m","tries":1,"during":"Nothing","worker_id":"A107RJSS561Y7R","assignment_id":"3HYA4D452SCR1WSCK50QKKWBWOFF2C","data":[{"rt":19433,"url":"\/tickets\/utils\/consent.html","trial_type":"html","trial_index":0,"time_elapsed":19511,"internal_node_id":"0.0-0.0"},{"age":30,"gender":"m","trial_type":"age","trial_index":1,"time_elapsed":23888,"internal_node_id":"0.0-1.0"},{"worker_id":"A107RJSS561Y7R","trial_type":"workerid","trial_index":2,"time_elapsed":28222,"internal_node_id":"0.0-2.0"},{"tries":1,"trial_type":"instructions_check","trial_index":3,"time_elapsed":43478,"internal_node_id":"0.0-3.0"},{"rt":2014,"url":"\/tickets\/utils\/start.html","trial_type":"html","trial_index":4,"time_elapsed":46614,"internal_node_id":"0.0-4.0"},{"trial_type":"number-animation","trial_index":5,"time_elapsed":64399,"internal_node_id":"0.0-5.0"},{"phase":0,"sequence":0,"avg":180,"response":183,"trial_type":"training_avg","trial_index":6,"time_elapsed":74324,"internal_node_id":"0.0-6.0"},{"trial_type":"number-animation","trial_index":7,"time_elapsed":83662,"internal_node_id":"0.0-7.0"},{"phase":0,"sequence":1,"avg":178,"response":182,"trial_type":"training_avg","trial_index":8,"time_elapsed":92519,"internal_node_id":"0.0-8.0"},{"trial_type":"number-animation","trial_index":9,"time_elapsed":101502,"internal_node_id":"0.0-9.0"},{"phase":0,"sequence":2,"avg":176,"response":172,"trial_type":"training_avg","trial_index":10,"time_elapsed":105941,"internal_node_id":"0.0-10.0"},{"trial_type":"number-animation","trial_index":11,"time_elapsed":113393,"internal_node_id":"0.0-11.0"},{"phase":0,"sequence":3,"avg":178,"response":174,"trial_type":"training_avg","trial_index":12,"time_elapsed":118056,"internal_node_id":"0.0-12.0"},{"trial_type":"number-animation","trial_index":13,"time_elapsed":125158,"internal_node_id":"0.0-13.0"},{"phase":0,"sequence":4,"avg":179,"response":181,"trial_type":"training_avg","trial_index":14,"time_elapsed":130826,"internal_node_id":"0.0-14.0"},{"responses":[{"value":0,"offby":0,"category":"$140 - $250","category_index":0},{"value":0,"offby":0,"category":"$151 - $160","category_index":1},{"value":5,"offby":1,"category":"$161 - $170","category_index":2},{"value":10,"offby":4,"category":"$171 - $180","category_index":3},{"value":5,"offby":-2,"category":"$181 - $190","category_index":4},{"value":0,"offby":-3,"category":"$191 - $200","category_index":5},{"value":0,"offby":0,"category":"$201 - $210","category_index":6}],"phase":0,"number":0,"trial_type":"bar-choose","trial_index":15,"time_elapsed":175927,"internal_node_id":"0.0-15.0"},{"rt":8148,"url":"\/tickets\/\/utils\/testing.html","trial_type":"html","trial_index":16,"time_elapsed":185193,"internal_node_id":"0.0-16.0"},{"phase":0,"order":[31,28,34,40,23,9,30,5,2,12,16,19,26,22,42,38,43,33,45,37,46,7,10,32,48,13,20,3,11,0,4,41,15,36,1,29,44,35,14,47,49,24,18,27,25,39,21,8,17,6],"trial_type":"store_order","trial_index":17,"time_elapsed":186194,"internal_node_id":"0.0-17.0"},{"result":165,"points":2,"place":1,"phase":0,"sequence":-1,"prices":[184,180,224,165,181,199,185,193,218,126],"times":[3450,676,933,1668],"next_num":4,"trial_type":"ticket-choose","trial_index":18,"time_elapsed":195902,"internal_node_id":"0.0-18.0"},{"rt":1848,"url":"\/tickets\/utils\/testing_after.html","trial_type":"html","trial_index":19,"time_elapsed":198877,"internal_node_id":"0.0-19.0"},{"result":157,"points":3,"place":0,"phase":0,"sequence":0,"prices":[157,184,163,174,181,190,168,187,189,177],"times":[1594],"next_num":1,"trial_type":"ticket-choose","trial_index":20,"time_elapsed":204273,"internal_node_id":"0.0-20.0"},{"result":159,"points":3,"place":0,"phase":0,"sequence":1,"prices":[159,178,170,174,176,194,173,182,185,175],"times":[2790],"next_num":1,"trial_type":"ticket-choose","trial_index":21,"time_elapsed":210212,"internal_node_id":"0.0-21.0"},{"result":159,"points":3,"place":0,"phase":0,"sequence":2,"prices":[181,180,191,186,165,197,159,167,194,185],"times":[845,580,707,608,1615,604,1111],"next_num":7,"trial_type":"ticket-choose","trial_index":22,"time_elapsed":219661,"internal_node_id":"0.0-22.0"},{"result":190,"points":0,"place":7,"phase":0,"sequence":3,"prices":[179,174,199,178,196,167,170,184,177,190],"times":[1008,629,711,579,644,1745,551,625,621,1454],"next_num":11,"trial_type":"ticket-choose","trial_index":23,"time_elapsed":232488,"internal_node_id":"0.0-23.0"},{"result":164,"points":3,"place":0,"phase":0,"sequence":4,"prices":[173,178,176,193,177,182,168,172,164,183],"times":[854,682,586,658,592,613,572,761,933],"next_num":9,"trial_type":"ticket-choose","trial_index":24,"time_elapsed":242765,"internal_node_id":"0.0-24.0"},{"result":165,"points":3,"place":0,"phase":0,"sequence":5,"prices":[176,180,170,194,179,183,178,173,165,184],"times":[910,583,763,666,590,696,551,571,1007],"next_num":9,"trial_type":"ticket-choose","trial_index":25,"time_elapsed":252938,"internal_node_id":"0.0-25.0"},{"result":177,"points":1,"place":4,"phase":0,"sequence":6,"prices":[160,185,170,174,182,196,173,186,194,177],"times":[941,780,544,562,493,527,747,573,522,573],"next_num":11,"trial_type":"ticket-choose","trial_index":26,"time_elapsed":263059,"internal_node_id":"0.0-26.0"},{"result":164,"points":3,"place":0,"phase":0,"sequence":7,"prices":[175,179,177,193,178,182,169,172,164,183],"times":[770,510,508,494,499,506,564,1004,857],"next_num":9,"trial_type":"ticket-choose","trial_index":27,"time_elapsed":272360,"internal_node_id":"0.0-27.0"},{"result":169,"points":2,"place":1,"phase":0,"sequence":8,"prices":[174,179,169,194,178,183,177,173,165,184],"times":[665,620,2194],"next_num":3,"trial_type":"ticket-choose","trial_index":28,"time_elapsed":278382,"internal_node_id":"0.0-28.0"},{"result":165,"points":3,"place":0,"phase":0,"sequence":9,"prices":[176,180,178,194,179,183,170,173,165,184],"times":[623,509,520,534,535,465,557,546,932],"next_num":9,"trial_type":"ticket-choose","trial_index":29,"time_elapsed":287112,"internal_node_id":"0.0-29.0"},{"result":163,"points":3,"place":0,"phase":0,"sequence":10,"prices":[174,178,168,192,177,181,176,171,163,182],"times":[1502,529,531,676,533,554,509,477,882],"next_num":9,"trial_type":"ticket-choose","trial_index":30,"time_elapsed":297021,"internal_node_id":"0.0-30.0"},{"result":164,"points":3,"place":0,"phase":0,"sequence":11,"prices":[173,178,168,193,177,182,176,172,164,183],"times":[753,512,464,500,575,875,1105,838,839],"next_num":9,"trial_type":"ticket-choose","trial_index":31,"time_elapsed":307619,"internal_node_id":"0.0-31.0"},{"result":165,"points":3,"place":0,"phase":0,"sequence":12,"prices":[165,187,173,177,186,196,176,191,192,181],"times":[1218],"next_num":1,"trial_type":"ticket-choose","trial_index":32,"time_elapsed":310797,"internal_node_id":"0.0-32.0"},{"result":168,"points":2,"place":1,"phase":0,"sequence":13,"prices":[173,178,176,193,177,182,168,172,164,183],"times":[637,477,647,524,549,570,2177],"next_num":7,"trial_type":"ticket-choose","trial_index":33,"time_elapsed":319556,"internal_node_id":"0.0-33.0"},{"result":167,"points":2,"place":1,"phase":0,"sequence":14,"prices":[175,193,175,160,180,170,175,205,177,167],"times":[484,478,481,533,463,491,698,948,773,788],"next_num":10,"trial_type":"ticket-choose","trial_index":34,"time_elapsed":329625,"internal_node_id":"0.0-34.0"},{"result":177,"points":1,"place":2,"phase":0,"sequence":15,"prices":[181,179,199,188,170,172,178,187,191,177],"times":[881,568,593,519,597,531,518,670,661,526],"next_num":11,"trial_type":"ticket-choose","trial_index":35,"time_elapsed":340145,"internal_node_id":"0.0-35.0"},{"result":157,"points":2,"place":1,"phase":0,"sequence":16,"prices":[188,191,179,157,181,164,166,156,175,182],"times":[657,712,708,1020],"next_num":4,"trial_type":"ticket-choose","trial_index":36,"time_elapsed":346082,"internal_node_id":"0.0-36.0"},{"result":179,"points":1,"place":4,"phase":0,"sequence":17,"prices":[170,183,172,175,180,189,174,187,188,179],"times":[793,1112,699,482,467,502,512,476,575,539],"next_num":11,"trial_type":"ticket-choose","trial_index":37,"time_elapsed":356112,"internal_node_id":"0.0-37.0"},{"result":165,"points":2,"place":1,"phase":0,"sequence":18,"prices":[179,174,172,162,202,184,165,197,185,169],"times":[731,447,460,479,463,551,987],"next_num":7,"trial_type":"ticket-choose","trial_index":38,"time_elapsed":363299,"internal_node_id":"0.0-38.0"},{"result":179,"points":0,"place":5,"phase":0,"sequence":19,"prices":[181,175,182,168,183,173,153,170,193,179],"times":[520,813,458,473,780,654,497,621,657,759],"next_num":11,"trial_type":"ticket-choose","trial_index":39,"time_elapsed":373381,"internal_node_id":"0.0-39.0"},{"result":166,"points":3,"place":0,"phase":0,"sequence":20,"prices":[179,186,197,201,166,187,188,193,190,177],"times":[816,607,537,662,1721],"next_num":5,"trial_type":"ticket-choose","trial_index":40,"time_elapsed":380528,"internal_node_id":"0.0-40.0"},{"result":165,"points":3,"place":0,"phase":0,"sequence":21,"prices":[174,179,177,194,178,183,169,173,165,184],"times":[504,512,577,707,498,535,520,706,899],"next_num":9,"trial_type":"ticket-choose","trial_index":41,"time_elapsed":389508,"internal_node_id":"0.0-41.0"},{"result":166,"points":3,"place":0,"phase":0,"sequence":22,"prices":[175,180,170,195,179,184,178,174,166,185],"times":[512,521,543,741,576,614,883,627,881],"next_num":9,"trial_type":"ticket-choose","trial_index":42,"time_elapsed":399084,"internal_node_id":"0.0-42.0"},{"result":175,"points":1,"place":4,"phase":0,"sequence":23,"prices":[171,180,172,174,179,188,173,183,186,175],"times":[469,575,596,519,566,526,558,562,530,531],"next_num":11,"trial_type":"ticket-choose","trial_index":43,"time_elapsed":408353,"internal_node_id":"0.0-43.0"},{"result":187,"points":0,"place":7,"phase":0,"sequence":24,"prices":[193,173,175,182,179,198,181,171,176,187],"times":[560,530,530,595,535,659,543,530,527,536],"next_num":11,"trial_type":"ticket-choose","trial_index":44,"time_elapsed":417948,"internal_node_id":"0.0-44.0"},{"result":165,"points":3,"place":0,"phase":0,"sequence":25,"prices":[176,180,178,194,179,183,170,173,165,184],"times":[19085,551,1341,588,497,491,496,508,947],"next_num":9,"trial_type":"ticket-choose","trial_index":45,"time_elapsed":446323,"internal_node_id":"0.0-45.0"},{"result":168,"points":2,"place":1,"phase":0,"sequence":26,"prices":[174,178,176,192,177,181,168,171,163,182],"times":[1425,494,428,358,847,1086,1027],"next_num":7,"trial_type":"ticket-choose","trial_index":46,"time_elapsed":455192,"internal_node_id":"0.0-46.0"},{"result":165,"points":3,"place":0,"phase":0,"sequence":27,"prices":[174,179,169,194,178,183,177,173,165,184],"times":[1099,589,507,606,527,650,665,653,848],"next_num":9,"trial_type":"ticket-choose","trial_index":47,"time_elapsed":470377,"internal_node_id":"0.0-47.0"},{"result":166,"points":3,"place":0,"phase":0,"sequence":28,"prices":[175,180,170,195,179,184,178,174,166,185],"times":[1262,701,597,649,575,737,713,604,1126],"next_num":9,"trial_type":"ticket-choose","trial_index":48,"time_elapsed":481206,"internal_node_id":"0.0-48.0"},{"result":183,"points":0,"place":8,"phase":0,"sequence":29,"prices":[175,179,169,193,178,182,177,172,164,183],"times":[812,502,417,692,547,628,575,521,525,767],"next_num":11,"trial_type":"ticket-choose","trial_index":49,"time_elapsed":491070,"internal_node_id":"0.0-49.0"},{"result":169,"points":2,"place":1,"phase":0,"sequence":30,"prices":[175,179,177,193,178,182,169,172,164,183],"times":[865,450,467,771,542,630,1098],"next_num":7,"trial_type":"ticket-choose","trial_index":50,"time_elapsed":499246,"internal_node_id":"0.0-50.0"},{"result":165,"points":3,"place":0,"phase":0,"sequence":31,"prices":[180,165,177,193,186,196,187,169,171,182],"times":[2408,1104],"next_num":2,"trial_type":"ticket-choose","trial_index":51,"time_elapsed":506111,"internal_node_id":"0.0-51.0"},{"result":166,"points":3,"place":0,"phase":0,"sequence":32,"prices":[175,180,178,195,179,184,170,174,166,185],"times":[838,545,836,719,565,625,594,1084,2008],"next_num":9,"trial_type":"ticket-choose","trial_index":52,"time_elapsed":517626,"internal_node_id":"0.0-52.0"},{"result":169,"points":1,"place":2,"phase":0,"sequence":33,"prices":[189,185,169,168,167,171,180,173,174,188],"times":[766,562,1176],"next_num":3,"trial_type":"ticket-choose","trial_index":53,"time_elapsed":522433,"internal_node_id":"0.0-53.0"},{"result":169,"points":2,"place":1,"phase":0,"sequence":34,"prices":[175,179,169,193,178,182,177,172,164,183],"times":[883,640,1295],"next_num":3,"trial_type":"ticket-choose","trial_index":54,"time_elapsed":528650,"internal_node_id":"0.0-54.0"},{"result":166,"points":3,"place":0,"phase":0,"sequence":35,"prices":[166,190,170,173,178,203,172,192,198,174],"times":[1187],"next_num":1,"trial_type":"ticket-choose","trial_index":55,"time_elapsed":531872,"internal_node_id":"0.0-55.0"},{"result":150,"points":3,"place":0,"phase":0,"sequence":36,"prices":[175,150,164,155,171,199,158,180,184,196],"times":[957,1320],"next_num":2,"trial_type":"ticket-choose","trial_index":56,"time_elapsed":536342,"internal_node_id":"0.0-56.0"},{"result":160,"points":2,"place":1,"phase":0,"sequence":37,"prices":[188,179,154,183,173,170,177,160,169,175],"times":[857,1027,728,1252,775,757,639,948],"next_num":8,"trial_type":"ticket-choose","trial_index":57,"time_elapsed":547035,"internal_node_id":"0.0-57.0"},{"result":166,"points":3,"place":0,"phase":0,"sequence":38,"prices":[175,180,178,195,179,184,170,174,166,185],"times":[1008,560,517,565,544,614,570,605,1098],"next_num":9,"trial_type":"ticket-choose","trial_index":58,"time_elapsed":557355,"internal_node_id":"0.0-58.0"},{"result":181,"points":0,"place":5,"phase":0,"sequence":39,"prices":[180,175,173,177,191,190,184,196,174,181],"times":[1581,830,506,429,477,534,616,799,833,686],"next_num":11,"trial_type":"ticket-choose","trial_index":59,"time_elapsed":568588,"internal_node_id":"0.0-59.0"},{"result":165,"points":3,"place":0,"phase":0,"sequence":40,"prices":[175,189,193,170,179,165,180,186,177,184],"times":[560,340,455,561,516,828],"next_num":6,"trial_type":"ticket-choose","trial_index":60,"time_elapsed":574744,"internal_node_id":"0.0-60.0"},{"result":176,"points":1,"place":4,"phase":0,"sequence":41,"prices":[161,180,170,174,178,198,173,182,188,176],"times":[548,722,543,498,453,452,472,624,519,556],"next_num":11,"trial_type":"ticket-choose","trial_index":61,"time_elapsed":583981,"internal_node_id":"0.0-61.0"},{"result":164,"points":3,"place":0,"phase":0,"sequence":42,"prices":[173,178,168,193,177,182,176,172,164,183],"times":[828,527,447,575,635,624,986,516,1036],"next_num":9,"trial_type":"ticket-choose","trial_index":62,"time_elapsed":593861,"internal_node_id":"0.0-62.0"},{"result":168,"points":3,"place":0,"phase":0,"sequence":43,"prices":[168,188,171,181,184,196,180,194,195,183],"times":[1231],"next_num":1,"trial_type":"ticket-choose","trial_index":63,"time_elapsed":596860,"internal_node_id":"0.0-63.0"},{"result":163,"points":3,"place":0,"phase":0,"sequence":44,"prices":[163,185,165,174,181,198,173,186,187,180],"times":[895],"next_num":1,"trial_type":"ticket-choose","trial_index":64,"time_elapsed":599437,"internal_node_id":"0.0-64.0"},{"result":204,"points":0,"place":9,"phase":0,"sequence":45,"prices":[195,177,197,179,171,173,175,156,163,204],"times":[857,542,726,791,556,603,564,517,541,579],"next_num":11,"trial_type":"ticket-choose","trial_index":65,"time_elapsed":609623,"internal_node_id":"0.0-65.0"},{"result":168,"points":2,"place":1,"phase":0,"sequence":46,"prices":[174,178,176,192,177,181,168,171,163,182],"times":[709,538,561,671,556,527,1466],"next_num":7,"trial_type":"ticket-choose","trial_index":66,"time_elapsed":617733,"internal_node_id":"0.0-66.0"},{"result":180,"points":0,"place":6,"phase":0,"sequence":47,"prices":[176,180,170,194,179,183,178,173,165,184],"times":[809,1326],"next_num":2,"trial_type":"ticket-choose","trial_index":67,"time_elapsed":622022,"internal_node_id":"0.0-67.0"},{"result":163,"points":3,"place":0,"phase":0,"sequence":48,"prices":[174,178,168,192,177,181,176,171,163,182],"times":[808,426,450,655,520,578,502,522,879],"next_num":9,"trial_type":"ticket-choose","trial_index":68,"time_elapsed":630889,"internal_node_id":"0.0-68.0"},{"result":169,"points":2,"place":1,"phase":0,"sequence":49,"prices":[174,179,177,194,178,183,169,173,165,184],"times":[507,473,448,699,589,828,1020],"next_num":7,"trial_type":"ticket-choose","trial_index":69,"time_elapsed":639004,"internal_node_id":"0.0-69.0"},{"responses":[{"value":0,"offby":0,"category":"$140 - $250","category_index":0},{"value":0,"offby":0,"category":"$151 - $160","category_index":1},{"value":5,"offby":1,"category":"$161 - $170","category_index":2},{"value":10,"offby":4,"category":"$171 - $180","category_index":3},{"value":5,"offby":-2,"category":"$181 - $190","category_index":4},{"value":0,"offby":-3,"category":"$191 - $200","category_index":5},{"value":0,"offby":0,"category":"$201 - $210","category_index":6}],"phase":0,"number":1,"trial_type":"bar-choose","trial_index":70,"time_elapsed":654469,"internal_node_id":"0.0-70.0"},{"rt":10827,"url":"\/tickets\/utils\/start2.html","trial_type":"html","trial_index":71,"time_elapsed":666419,"internal_node_id":"0.0-71.0"},{"trial_type":"number-animation","trial_index":72,"time_elapsed":675395,"internal_node_id":"0.0-72.0"},{"phase":1,"sequence":0,"avg":166,"response":184,"trial_type":"training_avg","trial_index":73,"time_elapsed":684962,"internal_node_id":"0.0-73.0"},{"trial_type":"number-animation","trial_index":74,"time_elapsed":692760,"internal_node_id":"0.0-74.0"},{"phase":1,"sequence":1,"avg":198,"response":170,"trial_type":"training_avg","trial_index":75,"time_elapsed":699463,"internal_node_id":"0.0-75.0"},{"trial_type":"number-animation","trial_index":76,"time_elapsed":706729,"internal_node_id":"0.0-76.0"},{"phase":1,"sequence":2,"avg":177,"response":176,"trial_type":"training_avg","trial_index":77,"time_elapsed":712184,"internal_node_id":"0.0-77.0"},{"trial_type":"number-animation","trial_index":78,"time_elapsed":718961,"internal_node_id":"0.0-78.0"},{"phase":1,"sequence":3,"avg":190,"response":153,"trial_type":"training_avg","trial_index":79,"time_elapsed":724589,"internal_node_id":"0.0-79.0"},{"trial_type":"number-animation","trial_index":80,"time_elapsed":730712,"internal_node_id":"0.0-80.0"},{"phase":1,"sequence":4,"avg":201,"response":176,"trial_type":"training_avg","trial_index":81,"time_elapsed":736919,"internal_node_id":"0.0-81.0"},{"responses":[{"value":0,"offby":-1,"category":"$30 - $75","category_index":0},{"value":0,"offby":-2,"category":"$76 - $120","category_index":1},{"value":10,"offby":6,"category":"$121 - $165","category_index":2},{"value":10,"offby":4,"category":"$166 - $210","category_index":3},{"value":0,"offby":-6,"category":"$211 - $255","category_index":4},{"value":0,"offby":-1,"category":"$256 - $300","category_index":5},{"value":0,"offby":0,"category":"$301 - $345","category_index":6}],"phase":1,"number":0,"trial_type":"bar-choose","trial_index":82,"time_elapsed":747439,"internal_node_id":"0.0-82.0"},{"rt":47197,"url":"\/tickets\/utils\/testing2.html","trial_type":"html","trial_index":83,"time_elapsed":795758,"internal_node_id":"0.0-83.0"},{"phase":1,"order":[18,46,0,5,1,9,41,42,47,44,14,15,8,24,26,29,11,13,23,49,35,21,37,30,6,25,10,17,7,39,31,28,4,12,3,20,45,33,32,38,34,19,27,16,36,43,48,2,40,22],"trial_type":"store_order","trial_index":84,"time_elapsed":796765,"internal_node_id":"0.0-84.0"},{"result":146,"points":1,"place":3,"phase":1,"sequence":0,"prices":[146,171,120,245,165,191,160,140,100,196],"times":[3120],"next_num":1,"trial_type":"ticket-choose","trial_index":85,"time_elapsed":801850,"internal_node_id":"0.0-85.0"},{"result":111,"points":3,"place":0,"phase":1,"sequence":1,"prices":[175,211,266,286,111,216,220,245,230,165],"times":[829,578,553,491,1070],"next_num":5,"trial_type":"ticket-choose","trial_index":86,"time_elapsed":808195,"internal_node_id":"0.0-86.0"},{"result":100,"points":3,"place":0,"phase":1,"sequence":2,"prices":[156,175,126,246,170,190,165,140,100,196],"times":[1771,703,555,609,563,518,834,564,976],"next_num":9,"trial_type":"ticket-choose","trial_index":87,"time_elapsed":819080,"internal_node_id":"0.0-87.0"},{"result":126,"points":2,"place":1,"phase":1,"sequence":3,"prices":[156,176,165,246,171,190,126,141,101,196],"times":[1022,552,617,561,683,705,1234],"next_num":7,"trial_type":"ticket-choose","trial_index":88,"time_elapsed":827616,"internal_node_id":"0.0-88.0"},{"result":101,"points":3,"place":0,"phase":1,"sequence":4,"prices":[156,175,125,245,170,190,165,140,101,196],"times":[801,602,1445,613,716,747,651,1011,908],"next_num":9,"trial_type":"ticket-choose","trial_index":89,"time_elapsed":838554,"internal_node_id":"0.0-89.0"},{"result":105,"points":3,"place":0,"phase":1,"sequence":5,"prices":[160,180,130,251,176,195,170,146,105,200],"times":[540,533,572,565,699,665,621,566,973],"next_num":9,"trial_type":"ticket-choose","trial_index":90,"time_elapsed":847712,"internal_node_id":"0.0-90.0"},{"result":190,"points":0,"place":5,"phase":1,"sequence":6,"prices":[180,106,166,245,211,261,215,125,135,190],"times":[542,563,701,544,567,506,513,493,518,1002],"next_num":11,"trial_type":"ticket-choose","trial_index":91,"time_elapsed":857947,"internal_node_id":"0.0-91.0"},{"result":81,"points":3,"place":0,"phase":1,"sequence":7,"prices":[155,245,155,81,180,130,156,306,166,115],"times":[755,540,672,1088],"next_num":4,"trial_type":"ticket-choose","trial_index":92,"time_elapsed":863469,"internal_node_id":"0.0-92.0"},{"result":185,"points":0,"place":5,"phase":1,"sequence":8,"prices":[181,156,145,165,236,231,201,260,150,185],"times":[761,550,525,1611,540,499,622,576,897,1310],"next_num":11,"trial_type":"ticket-choose","trial_index":93,"time_elapsed":875411,"internal_node_id":"0.0-93.0"},{"result":30,"points":3,"place":0,"phase":1,"sequence":9,"prices":[155,30,101,55,136,276,70,181,200,261],"times":[888,930],"next_num":2,"trial_type":"ticket-choose","trial_index":94,"time_elapsed":879350,"internal_node_id":"0.0-94.0"},{"result":130,"points":2,"place":1,"phase":1,"sequence":10,"prices":[155,181,170,255,176,200,130,150,110,205],"times":[475,527,585,668,748,642,977],"next_num":7,"trial_type":"ticket-choose","trial_index":95,"time_elapsed":887039,"internal_node_id":"0.0-95.0"},{"result":131,"points":2,"place":1,"phase":1,"sequence":11,"prices":[156,181,171,256,175,200,131,150,110,206],"times":[583,514,593,630,743,647,1125],"next_num":7,"trial_type":"ticket-choose","trial_index":96,"time_elapsed":894975,"internal_node_id":"0.0-96.0"},{"result":131,"points":2,"place":1,"phase":1,"sequence":12,"prices":[161,180,131,251,175,196,171,146,105,201],"times":[777,1629,1990],"next_num":3,"trial_type":"ticket-choose","trial_index":97,"time_elapsed":901660,"internal_node_id":"0.0-97.0"},{"result":86,"points":3,"place":0,"phase":1,"sequence":13,"prices":[86,180,130,151,170,271,145,191,220,160],"times":[947],"next_num":1,"trial_type":"ticket-choose","trial_index":98,"time_elapsed":904440,"internal_node_id":"0.0-98.0"},{"result":185,"points":1,"place":4,"phase":1,"sequence":14,"prices":[105,216,146,165,210,260,161,235,241,185],"times":[766,555,551,523,632,516,566,539,743,1154],"next_num":11,"trial_type":"ticket-choose","trial_index":99,"time_elapsed":915591,"internal_node_id":"0.0-99.0"},{"result":111,"points":3,"place":0,"phase":1,"sequence":15,"prices":[111,231,131,146,171,295,141,241,271,150],"times":[1298],"next_num":1,"trial_type":"ticket-choose","trial_index":100,"time_elapsed":918822,"internal_node_id":"0.0-100.0"},{"result":130,"points":2,"place":1,"phase":1,"sequence":16,"prices":[156,181,130,255,175,200,170,150,111,205],"times":[2104,587,1104],"next_num":3,"trial_type":"ticket-choose","trial_index":101,"time_elapsed":925060,"internal_node_id":"0.0-101.0"},{"result":131,"points":2,"place":1,"phase":1,"sequence":17,"prices":[160,180,170,251,176,195,131,146,105,200],"times":[844,628,779,541,1758,643,1513],"next_num":7,"trial_type":"ticket-choose","trial_index":102,"time_elapsed":935172,"internal_node_id":"0.0-102.0"},{"result":120,"points":2,"place":1,"phase":1,"sequence":18,"prices":[145,170,160,245,165,190,120,141,100,195],"times":[1043,748,1441,605,959,644,1064],"next_num":7,"trial_type":"ticket-choose","trial_index":103,"time_elapsed":945011,"internal_node_id":"0.0-103.0"},{"result":155,"points":1,"place":2,"phase":1,"sequence":19,"prices":[155,225,245,130,176,106,180,211,165,200],"times":[1209],"next_num":1,"trial_type":"ticket-choose","trial_index":104,"time_elapsed":948327,"internal_node_id":"0.0-104.0"},{"result":51,"points":3,"place":0,"phase":1,"sequence":20,"prices":[221,175,51,196,146,130,166,80,126,156],"times":[1109,547,883],"next_num":3,"trial_type":"ticket-choose","trial_index":105,"time_elapsed":953148,"internal_node_id":"0.0-105.0"},{"result":150,"points":1,"place":3,"phase":1,"sequence":21,"prices":[150,170,160,241,166,186,120,136,96,191],"times":[4940],"next_num":1,"trial_type":"ticket-choose","trial_index":106,"time_elapsed":960993,"internal_node_id":"0.0-106.0"},{"result":45,"points":3,"place":0,"phase":1,"sequence":22,"prices":[186,156,191,120,195,145,45,130,246,176],"times":[768,631,1078,590,634,615,926],"next_num":7,"trial_type":"ticket-choose","trial_index":107,"time_elapsed":969486,"internal_node_id":"0.0-107.0"},{"result":81,"points":3,"place":0,"phase":1,"sequence":23,"prices":[81,205,130,151,191,261,145,210,250,165],"times":[1125],"next_num":1,"trial_type":"ticket-choose","trial_index":108,"time_elapsed":972472,"internal_node_id":"0.0-108.0"},{"result":105,"points":3,"place":0,"phase":1,"sequence":24,"prices":[150,175,166,251,170,196,126,145,105,201],"times":[993,595,569,626,607,699,866,829,884],"next_num":9,"trial_type":"ticket-choose","trial_index":109,"time_elapsed":982791,"internal_node_id":"0.0-109.0"},{"result":181,"points":1,"place":4,"phase":1,"sequence":25,"prices":[95,205,106,151,186,271,145,210,215,181],"times":[1054,727,828,605,584,572,954,719,637,930],"next_num":10,"trial_type":"ticket-choose","trial_index":110,"time_elapsed":994336,"internal_node_id":"0.0-110.0"},{"result":131,"points":2,"place":1,"phase":1,"sequence":26,"prices":[156,181,131,256,176,200,171,151,111,206],"times":[811,605,1097],"next_num":3,"trial_type":"ticket-choose","trial_index":111,"time_elapsed":999043,"internal_node_id":"0.0-111.0"},{"result":120,"points":2,"place":1,"phase":1,"sequence":27,"prices":[150,171,120,241,165,185,160,135,96,190],"times":[787,556,881],"next_num":3,"trial_type":"ticket-choose","trial_index":112,"time_elapsed":1003587,"internal_node_id":"0.0-112.0"},{"result":126,"points":2,"place":1,"phase":1,"sequence":28,"prices":[151,175,166,251,170,195,126,146,105,201],"times":[969,1187,978,588,614,579,1416],"next_num":7,"trial_type":"ticket-choose","trial_index":113,"time_elapsed":1012920,"internal_node_id":"0.0-113.0"},{"result":166,"points":0,"place":5,"phase":1,"sequence":29,"prices":[255,166,266,175,136,145,155,61,96,301],"times":[709,909],"next_num":2,"trial_type":"ticket-choose","trial_index":114,"time_elapsed":1016476,"internal_node_id":"0.0-114.0"},{"result":96,"points":2,"place":1,"phase":1,"sequence":30,"prices":[66,201,96,150,185,230,121,216,225,165],"times":[457,619,918],"next_num":3,"trial_type":"ticket-choose","trial_index":115,"time_elapsed":1020798,"internal_node_id":"0.0-115.0"},{"result":131,"points":2,"place":1,"phase":1,"sequence":31,"prices":[75,171,131,151,161,250,145,190,206,156],"times":[866,619,1000],"next_num":3,"trial_type":"ticket-choose","trial_index":116,"time_elapsed":1025565,"internal_node_id":"0.0-116.0"},{"result":125,"points":2,"place":1,"phase":1,"sequence":32,"prices":[155,175,166,245,171,190,125,140,101,196],"times":[692,518,736,634,605,677,1175],"next_num":7,"trial_type":"ticket-choose","trial_index":117,"time_elapsed":1033557,"internal_node_id":"0.0-117.0"},{"result":131,"points":2,"place":1,"phase":1,"sequence":33,"prices":[161,180,171,250,176,195,131,146,105,201],"times":[626,841,842,818,694,698,1031],"next_num":7,"trial_type":"ticket-choose","trial_index":118,"time_elapsed":1042088,"internal_node_id":"0.0-118.0"},{"result":105,"points":3,"place":0,"phase":1,"sequence":34,"prices":[150,176,126,251,171,195,165,145,105,200],"times":[1010,492,488,552,564,581,576,1022,751],"next_num":9,"trial_type":"ticket-choose","trial_index":119,"time_elapsed":1051680,"internal_node_id":"0.0-119.0"},{"result":121,"points":2,"place":1,"phase":1,"sequence":35,"prices":[150,170,160,240,166,185,121,136,95,191],"times":[1195,570,623,689,769,628,2202],"next_num":7,"trial_type":"ticket-choose","trial_index":120,"time_elapsed":1062203,"internal_node_id":"0.0-120.0"},{"result":150,"points":1,"place":4,"phase":1,"sequence":36,"prices":[176,150,141,91,290,201,106,266,206,126],"times":[1772,966],"next_num":2,"trial_type":"ticket-choose","trial_index":121,"time_elapsed":1067111,"internal_node_id":"0.0-121.0"},{"result":141,"points":2,"place":1,"phase":1,"sequence":37,"prices":[130,195,141,155,181,226,150,216,221,175],"times":[855,512,1009],"next_num":3,"trial_type":"ticket-choose","trial_index":122,"time_elapsed":1071798,"internal_node_id":"0.0-122.0"},{"result":135,"points":3,"place":0,"phase":1,"sequence":38,"prices":[135,180,141,151,175,220,145,196,211,155],"times":[1217],"next_num":1,"trial_type":"ticket-choose","trial_index":123,"time_elapsed":1074995,"internal_node_id":"0.0-123.0"},{"result":141,"points":2,"place":1,"phase":1,"sequence":39,"prices":[185,175,276,221,130,141,171,216,235,165],"times":[617,588,718,601,744,1461],"next_num":6,"trial_type":"ticket-choose","trial_index":124,"time_elapsed":1082435,"internal_node_id":"0.0-124.0"},{"result":106,"points":2,"place":1,"phase":1,"sequence":40,"prices":[185,180,235,210,106,266,76,115,250,205],"times":[613,552,554,602,1011],"next_num":5,"trial_type":"ticket-choose","trial_index":125,"time_elapsed":1088264,"internal_node_id":"0.0-125.0"},{"result":121,"points":2,"place":1,"phase":1,"sequence":41,"prices":[146,170,121,245,166,190,161,141,100,195],"times":[445,605,877],"next_num":3,"trial_type":"ticket-choose","trial_index":126,"time_elapsed":1092309,"internal_node_id":"0.0-126.0"},{"result":120,"points":3,"place":0,"phase":1,"sequence":42,"prices":[120,221,135,185,200,261,181,251,255,196],"times":[970],"next_num":1,"trial_type":"ticket-choose","trial_index":127,"time_elapsed":1095150,"internal_node_id":"0.0-127.0"},{"result":160,"points":1,"place":4,"phase":1,"sequence":43,"prices":[150,171,121,241,165,185,160,136,95,191],"times":[841,590,641,656,656,602,917],"next_num":7,"trial_type":"ticket-choose","trial_index":128,"time_elapsed":1103058,"internal_node_id":"0.0-128.0"},{"result":125,"points":1,"place":2,"phase":1,"sequence":44,"prices":[226,205,125,120,115,135,180,145,150,220],"times":[759,554,920],"next_num":3,"trial_type":"ticket-choose","trial_index":129,"time_elapsed":1107428,"internal_node_id":"0.0-129.0"},{"result":65,"points":2,"place":1,"phase":1,"sequence":45,"prices":[220,236,176,65,185,101,110,61,156,191],"times":[743,585,721,900],"next_num":4,"trial_type":"ticket-choose","trial_index":130,"time_elapsed":1112677,"internal_node_id":"0.0-130.0"},{"result":155,"points":1,"place":2,"phase":1,"sequence":46,"prices":[246,145,155,191,176,270,185,136,160,215],"times":[885,921,1111],"next_num":3,"trial_type":"ticket-choose","trial_index":131,"time_elapsed":1117738,"internal_node_id":"0.0-131.0"},{"result":126,"points":2,"place":1,"phase":1,"sequence":47,"prices":[151,176,126,251,170,196,165,145,105,201],"times":[1232,697,1178],"next_num":3,"trial_type":"ticket-choose","trial_index":132,"time_elapsed":1123191,"internal_node_id":"0.0-132.0"},{"result":116,"points":3,"place":0,"phase":1,"sequence":48,"prices":[176,150,276,171,261,116,130,201,166,231],"times":[955,1157,571,1002,568,907],"next_num":6,"trial_type":"ticket-choose","trial_index":133,"time_elapsed":1131430,"internal_node_id":"0.0-133.0"},{"result":120,"points":2,"place":1,"phase":1,"sequence":49,"prices":[145,171,161,245,165,191,120,140,100,196],"times":[739,931,858,684,654,818,1184],"next_num":7,"trial_type":"ticket-choose","trial_index":134,"time_elapsed":1140574,"internal_node_id":"0.0-134.0"},{"responses":[{"value":0,"offby":-1,"category":"$30 - $75","category_index":0},{"value":5,"offby":3,"category":"$76 - $120","category_index":1},{"value":5,"offby":1,"category":"$121 - $165","category_index":2},{"value":10,"offby":4,"category":"$166 - $210","category_index":3},{"value":0,"offby":-6,"category":"$211 - $255","category_index":4},{"value":0,"offby":-1,"category":"$256 - $300","category_index":5},{"value":0,"offby":0,"category":"$301 - $345","category_index":6}],"phase":1,"number":1,"trial_type":"bar-choose","trial_index":135,"time_elapsed":1153720,"internal_node_id":"0.0-135.0"},{"special_comment":"no","trial_type":"special_sequence","trial_index":136,"time_elapsed":1158376,"internal_node_id":"0.0-136.0"},{"during":"Nothing","bonus":276,"trial_type":"final","trial_index":137,"time_elapsed":1176557,"internal_node_id":"0.0-137.0"}],"bonus":276}