{"start_time":"2017-02-21 11:02:30","end_time":"2017-02-21 11:46:24","points_phase0":123,"points_phase1":115,"phase_order":1,"age":35,"gender":"f","tries":1,"during":"Nothing","worker_id":"A10V73ANM5HV2A","assignment_id":"36TFCYNS453CG8MF3K9JDV2KDGNXHT","data":[{"rt":24623,"url":"\/tickets\/utils\/consent.html","trial_type":"html","trial_index":0,"time_elapsed":24997,"internal_node_id":"0.0-0.0"},{"age":35,"gender":"f","trial_type":"age","trial_index":1,"time_elapsed":33748,"internal_node_id":"0.0-1.0"},{"worker_id":"A10V73ANM5HV2A","trial_type":"workerid","trial_index":2,"time_elapsed":46533,"internal_node_id":"0.0-2.0"},{"tries":1,"trial_type":"instructions_check","trial_index":3,"time_elapsed":99595,"internal_node_id":"0.0-3.0"},{"rt":30404,"url":"\/tickets\/utils\/start.html","trial_type":"html","trial_index":4,"time_elapsed":131136,"internal_node_id":"0.0-4.0"},{"trial_type":"number-animation","trial_index":5,"time_elapsed":183947,"internal_node_id":"0.0-5.0"},{"phase":0,"sequence":0,"avg":182,"response":170,"trial_type":"training_avg","trial_index":6,"time_elapsed":211890,"internal_node_id":"0.0-6.0"},{"trial_type":"number-animation","trial_index":7,"time_elapsed":245624,"internal_node_id":"0.0-7.0"},{"phase":0,"sequence":1,"avg":188,"response":180,"trial_type":"training_avg","trial_index":8,"time_elapsed":273779,"internal_node_id":"0.0-8.0"},{"trial_type":"number-animation","trial_index":9,"time_elapsed":308294,"internal_node_id":"0.0-9.0"},{"phase":0,"sequence":2,"avg":176,"response":183,"trial_type":"training_avg","trial_index":10,"time_elapsed":334507,"internal_node_id":"0.0-10.0"},{"trial_type":"number-animation","trial_index":11,"time_elapsed":366275,"internal_node_id":"0.0-11.0"},{"phase":0,"sequence":3,"avg":180,"response":175,"trial_type":"training_avg","trial_index":12,"time_elapsed":390067,"internal_node_id":"0.0-12.0"},{"trial_type":"number-animation","trial_index":13,"time_elapsed":418499,"internal_node_id":"0.0-13.0"},{"phase":0,"sequence":4,"avg":174,"response":169,"trial_type":"training_avg","trial_index":14,"time_elapsed":443782,"internal_node_id":"0.0-14.0"},{"responses":[{"value":0,"offby":-1,"category":"$90 - $120","category_index":0},{"value":5,"offby":2,"category":"$121 - $145","category_index":1},{"value":5,"offby":2,"category":"$146 - $170","category_index":2},{"value":5,"offby":-1,"category":"$171 - $195","category_index":3},{"value":3,"offby":-1,"category":"$196 - $220","category_index":4},{"value":2,"offby":0,"category":"$221 - $245","category_index":5},{"value":0,"offby":-1,"category":"$246 - $270","category_index":6}],"phase":0,"number":0,"trial_type":"bar-choose","trial_index":15,"time_elapsed":552008,"internal_node_id":"0.0-15.0"},{"rt":21795,"url":"\/tickets\/\/utils\/testing.html","trial_type":"html","trial_index":16,"time_elapsed":575014,"internal_node_id":"0.0-16.0"},{"phase":0,"order":[31,19,0,32,12,7,43,40,11,10,2,48,36,15,30,29,20,49,13,34,16,42,1,26,33,5,28,47,18,22,44,39,24,45,38,6,14,35,46,41,25,3,37,23,8,9,17,4,27,21],"trial_type":"store_order","trial_index":17,"time_elapsed":576020,"internal_node_id":"0.0-17.0"},{"result":126,"points":3,"place":0,"phase":0,"sequence":-1,"prices":[184,180,224,165,181,199,185,193,218,126],"times":[1845,2047,1793,1868,1813,1662,1350,1273,941,1362],"next_num":10,"trial_type":"ticket-choose","trial_index":18,"time_elapsed":599051,"internal_node_id":"0.0-18.0"},{"rt":16610,"url":"\/tickets\/utils\/testing_after.html","trial_type":"html","trial_index":19,"time_elapsed":616803,"internal_node_id":"0.0-19.0"},{"result":126,"points":3,"place":0,"phase":0,"sequence":0,"prices":[170,193,146,268,178,195,172,149,126,241],"times":[2243,1925,2195,1595,1556,1584,1295,1540,1320],"next_num":9,"trial_type":"ticket-choose","trial_index":20,"time_elapsed":639570,"internal_node_id":"0.0-20.0"},{"result":126,"points":3,"place":0,"phase":0,"sequence":1,"prices":[169,193,154,255,178,194,176,158,239,126],"times":[2901,2510,11884,1322,1046,1074,1456,1292,1132,1774],"next_num":10,"trial_type":"ticket-choose","trial_index":21,"time_elapsed":673530,"internal_node_id":"0.0-21.0"},{"result":127,"points":3,"place":0,"phase":0,"sequence":2,"prices":[169,194,154,271,178,201,176,158,236,127],"times":[1664,1411,1249,1343,1387,1288,1130,973,1296,1519],"next_num":10,"trial_type":"ticket-choose","trial_index":22,"time_elapsed":693903,"internal_node_id":"0.0-22.0"},{"result":132,"points":3,"place":0,"phase":0,"sequence":3,"prices":[168,192,176,242,183,197,154,156,237,132],"times":[2745,1170,823,967,876,818,1207,837,1065,1834],"next_num":10,"trial_type":"ticket-choose","trial_index":23,"time_elapsed":711298,"internal_node_id":"0.0-23.0"},{"result":130,"points":2,"place":1,"phase":0,"sequence":4,"prices":[181,130,116,142,157,193,165,218,173,207],"times":[2430,2024],"next_num":2,"trial_type":"ticket-choose","trial_index":24,"time_elapsed":722139,"internal_node_id":"0.0-24.0"},{"result":129,"points":2,"place":1,"phase":0,"sequence":5,"prices":[155,129,164,189,210,108,187,241,174,275],"times":[2798,1960],"next_num":2,"trial_type":"ticket-choose","trial_index":25,"time_elapsed":730751,"internal_node_id":"0.0-25.0"},{"result":126,"points":3,"place":0,"phase":0,"sequence":6,"prices":[173,191,146,242,178,194,172,152,126,235],"times":[1616,1289,1130,1077,1656,1461,1329,1333,2449],"next_num":9,"trial_type":"ticket-choose","trial_index":26,"time_elapsed":749788,"internal_node_id":"0.0-26.0"},{"result":136,"points":2,"place":1,"phase":0,"sequence":7,"prices":[173,191,174,270,180,193,136,153,239,129],"times":[1444,1326,996,1122,826,926,2076],"next_num":7,"trial_type":"ticket-choose","trial_index":27,"time_elapsed":763077,"internal_node_id":"0.0-27.0"},{"result":152,"points":2,"place":1,"phase":0,"sequence":8,"prices":[156,218,212,216,191,210,275,146,174,152],"times":[1480,1082,1053,872,934,829,791,850,797,1920],"next_num":10,"trial_type":"ticket-choose","trial_index":28,"time_elapsed":779322,"internal_node_id":"0.0-28.0"},{"result":136,"points":2,"place":1,"phase":0,"sequence":9,"prices":[173,194,136,239,182,200,174,150,236,127],"times":[1236,2420,1602],"next_num":3,"trial_type":"ticket-choose","trial_index":29,"time_elapsed":788923,"internal_node_id":"0.0-29.0"},{"result":105,"points":3,"place":0,"phase":0,"sequence":10,"prices":[263,165,224,214,105,230,215,185,177,193],"times":[1311,864,854,1049,1573],"next_num":5,"trial_type":"ticket-choose","trial_index":30,"time_elapsed":798695,"internal_node_id":"0.0-30.0"},{"result":136,"points":2,"place":1,"phase":0,"sequence":11,"prices":[198,119,169,141,195,233,136,208,177,217],"times":[2501,1101,2127,2120,1179,1427,2785],"next_num":7,"trial_type":"ticket-choose","trial_index":31,"time_elapsed":817117,"internal_node_id":"0.0-31.0"},{"result":124,"points":3,"place":0,"phase":0,"sequence":12,"prices":[124,220,136,165,185,234,143,225,228,179],"times":[1762],"next_num":1,"trial_type":"ticket-choose","trial_index":32,"time_elapsed":821948,"internal_node_id":"0.0-32.0"},{"result":127,"points":3,"place":0,"phase":0,"sequence":13,"prices":[171,192,136,265,180,194,174,152,239,127],"times":[1393,971,1698,1146,1214,926,1057,1092,971,1301],"next_num":10,"trial_type":"ticket-choose","trial_index":33,"time_elapsed":838505,"internal_node_id":"0.0-33.0"},{"result":127,"points":3,"place":0,"phase":0,"sequence":14,"prices":[171,191,172,268,179,194,146,150,127,239],"times":[1963,1022,856,876,848,975,1377,1038,2020],"next_num":9,"trial_type":"ticket-choose","trial_index":34,"time_elapsed":855276,"internal_node_id":"0.0-34.0"},{"result":135,"points":3,"place":0,"phase":0,"sequence":15,"prices":[221,193,135,188,217,179,196,190,175,159],"times":[1160,1102,1353],"next_num":3,"trial_type":"ticket-choose","trial_index":35,"time_elapsed":862819,"internal_node_id":"0.0-35.0"},{"result":126,"points":3,"place":0,"phase":0,"sequence":16,"prices":[172,191,176,272,179,194,146,152,126,235],"times":[1475,925,818,769,796,742,1076,1048,1372],"next_num":9,"trial_type":"ticket-choose","trial_index":36,"time_elapsed":876589,"internal_node_id":"0.0-36.0"},{"result":124,"points":3,"place":0,"phase":0,"sequence":17,"prices":[219,183,227,124,176,161,140,129,171,201],"times":[1772,1798,1147,1360],"next_num":4,"trial_type":"ticket-choose","trial_index":37,"time_elapsed":886139,"internal_node_id":"0.0-37.0"},{"result":159,"points":1,"place":2,"phase":0,"sequence":18,"prices":[244,203,196,189,154,206,197,149,171,159],"times":[1956,1067,798,902,1501,749,800,1573,1320,1345],"next_num":10,"trial_type":"ticket-choose","trial_index":38,"time_elapsed":903366,"internal_node_id":"0.0-38.0"},{"result":136,"points":3,"place":0,"phase":0,"sequence":19,"prices":[240,188,273,207,250,136,217,170,171,236],"times":[1365,971,1004,971,1019,1536],"next_num":6,"trial_type":"ticket-choose","trial_index":39,"time_elapsed":914714,"internal_node_id":"0.0-39.0"},{"result":114,"points":3,"place":0,"phase":0,"sequence":20,"prices":[182,249,159,114,184,205,175,189,172,178],"times":[1098,908,890,2137],"next_num":4,"trial_type":"ticket-choose","trial_index":40,"time_elapsed":924097,"internal_node_id":"0.0-40.0"},{"result":117,"points":3,"place":0,"phase":0,"sequence":21,"prices":[117,161,120,147,153,259,144,191,195,149],"times":[1683],"next_num":1,"trial_type":"ticket-choose","trial_index":41,"time_elapsed":929273,"internal_node_id":"0.0-41.0"},{"result":156,"points":1,"place":2,"phase":0,"sequence":22,"prices":[168,192,154,237,182,196,176,156,235,133],"times":[1414,2016,1828,736,884,1119,1163,1987],"next_num":8,"trial_type":"ticket-choose","trial_index":42,"time_elapsed":945563,"internal_node_id":"0.0-42.0"},{"result":128,"points":3,"place":0,"phase":0,"sequence":23,"prices":[171,195,172,242,179,196,146,150,128,235],"times":[1674,1009,1295,807,783,852,1476,1165,1389],"next_num":9,"trial_type":"ticket-choose","trial_index":43,"time_elapsed":960869,"internal_node_id":"0.0-43.0"},{"result":137,"points":3,"place":0,"phase":0,"sequence":24,"prices":[137,187,152,156,166,231,155,194,202,160],"times":[1963],"next_num":1,"trial_type":"ticket-choose","trial_index":44,"time_elapsed":965882,"internal_node_id":"0.0-44.0"},{"result":116,"points":3,"place":0,"phase":0,"sequence":25,"prices":[186,146,191,179,152,116,140,201,172,187],"times":[1633,1624,860,949,766,1352],"next_num":6,"trial_type":"ticket-choose","trial_index":45,"time_elapsed":976767,"internal_node_id":"0.0-45.0"},{"result":133,"points":3,"place":0,"phase":0,"sequence":26,"prices":[169,191,154,268,183,197,176,155,236,133],"times":[1411,923,743,733,745,664,698,852,932,1284],"next_num":10,"trial_type":"ticket-choose","trial_index":46,"time_elapsed":991555,"internal_node_id":"0.0-46.0"},{"result":128,"points":3,"place":0,"phase":0,"sequence":27,"prices":[196,221,149,164,216,167,175,128,176,181],"times":[1572,1169,1115,941,1908,1195,925,1412],"next_num":8,"trial_type":"ticket-choose","trial_index":47,"time_elapsed":1006437,"internal_node_id":"0.0-47.0"},{"result":188,"points":1,"place":4,"phase":0,"sequence":28,"prices":[142,207,171,182,190,269,180,218,256,188],"times":[1377,1304,744,773,780,962,873,817,814,1592],"next_num":11,"trial_type":"ticket-choose","trial_index":48,"time_elapsed":1022834,"internal_node_id":"0.0-48.0"},{"result":135,"points":3,"place":0,"phase":0,"sequence":29,"prices":[135,202,150,169,183,225,160,211,220,172],"times":[1579],"next_num":1,"trial_type":"ticket-choose","trial_index":49,"time_elapsed":1027259,"internal_node_id":"0.0-49.0"},{"result":132,"points":3,"place":0,"phase":0,"sequence":30,"prices":[132,222,144,153,190,248,151,224,228,179],"times":[1591],"next_num":1,"trial_type":"ticket-choose","trial_index":50,"time_elapsed":1031894,"internal_node_id":"0.0-50.0"},{"result":124,"points":3,"place":0,"phase":0,"sequence":31,"prices":[216,206,158,145,224,185,124,149,175,162],"times":[1356,822,925,2289,1004,1060,1508],"next_num":7,"trial_type":"ticket-choose","trial_index":51,"time_elapsed":1044665,"internal_node_id":"0.0-51.0"},{"result":125,"points":3,"place":0,"phase":0,"sequence":32,"prices":[169,192,176,244,178,194,154,159,237,125],"times":[1466,790,856,905,929,1226,1137,1826,1114,1215],"next_num":10,"trial_type":"ticket-choose","trial_index":52,"time_elapsed":1062038,"internal_node_id":"0.0-52.0"},{"result":125,"points":3,"place":0,"phase":0,"sequence":33,"prices":[168,191,172,240,183,193,146,151,125,238],"times":[1804,962,723,787,898,914,1501,1120,1208],"next_num":9,"trial_type":"ticket-choose","trial_index":53,"time_elapsed":1076222,"internal_node_id":"0.0-53.0"},{"result":136,"points":2,"place":1,"phase":0,"sequence":34,"prices":[171,192,136,243,182,195,174,154,236,128],"times":[1679,1238,1145],"next_num":3,"trial_type":"ticket-choose","trial_index":54,"time_elapsed":1083466,"internal_node_id":"0.0-54.0"},{"result":131,"points":2,"place":1,"phase":0,"sequence":35,"prices":[221,234,131,136,132,149,154,90,176,173],"times":[1494,856,1353],"next_num":3,"trial_type":"ticket-choose","trial_index":55,"time_elapsed":1090713,"internal_node_id":"0.0-55.0"},{"result":126,"points":3,"place":0,"phase":0,"sequence":36,"prices":[168,191,146,252,183,193,172,153,126,238],"times":[1245,741,846,947,989,877,878,959,1439],"next_num":9,"trial_type":"ticket-choose","trial_index":56,"time_elapsed":1103683,"internal_node_id":"0.0-56.0"},{"result":136,"points":2,"place":1,"phase":0,"sequence":37,"prices":[169,192,174,246,180,195,136,152,238,126],"times":[1502,683,691,861,688,903,1648],"next_num":7,"trial_type":"ticket-choose","trial_index":57,"time_elapsed":1114965,"internal_node_id":"0.0-57.0"},{"result":128,"points":3,"place":0,"phase":0,"sequence":38,"prices":[170,192,174,242,181,196,136,153,236,128],"times":[1264,1009,839,805,849,819,1770,1007,1017,1558],"next_num":10,"trial_type":"ticket-choose","trial_index":58,"time_elapsed":1131584,"internal_node_id":"0.0-58.0"},{"result":131,"points":3,"place":0,"phase":0,"sequence":39,"prices":[170,190,176,251,183,192,154,157,236,131],"times":[1586,831,690,861,1081,804,1138,1639,1093,1137],"next_num":10,"trial_type":"ticket-choose","trial_index":59,"time_elapsed":1146884,"internal_node_id":"0.0-59.0"},{"result":189,"points":1,"place":4,"phase":0,"sequence":40,"prices":[157,213,159,187,194,242,161,222,225,189],"times":[1516,927,963,804,698,711,1019,2218,946,1227],"next_num":10,"trial_type":"ticket-choose","trial_index":60,"time_elapsed":1163908,"internal_node_id":"0.0-60.0"},{"result":196,"points":1,"place":4,"phase":0,"sequence":41,"prices":[143,206,153,194,201,267,168,208,210,196],"times":[1714,1033,980,1146,955,847,1435,912,948,1672],"next_num":10,"trial_type":"ticket-choose","trial_index":61,"time_elapsed":1180402,"internal_node_id":"0.0-61.0"},{"result":138,"points":1,"place":2,"phase":0,"sequence":42,"prices":[181,138,118,170,190,101,146,169,175,233],"times":[1296,1550],"next_num":2,"trial_type":"ticket-choose","trial_index":62,"time_elapsed":1187649,"internal_node_id":"0.0-62.0"},{"result":192,"points":1,"place":4,"phase":0,"sequence":43,"prices":[157,205,161,175,197,254,165,210,214,192],"times":[1420,920,977,865,881,843,1642,935,1047,1317],"next_num":10,"trial_type":"ticket-choose","trial_index":63,"time_elapsed":1204340,"internal_node_id":"0.0-63.0"},{"result":129,"points":3,"place":0,"phase":0,"sequence":44,"prices":[169,193,146,237,180,196,172,150,129,236],"times":[1418,902,1213,1226,965,824,927,943,1320],"next_num":9,"trial_type":"ticket-choose","trial_index":64,"time_elapsed":1218653,"internal_node_id":"0.0-64.0"},{"result":121,"points":3,"place":0,"phase":0,"sequence":45,"prices":[121,191,128,141,166,217,129,196,202,157],"times":[1655],"next_num":1,"trial_type":"ticket-choose","trial_index":65,"time_elapsed":1223816,"internal_node_id":"0.0-65.0"},{"result":136,"points":2,"place":1,"phase":0,"sequence":46,"prices":[172,190,136,270,179,192,174,152,237,129],"times":[1593,1168,1717],"next_num":3,"trial_type":"ticket-choose","trial_index":66,"time_elapsed":1231308,"internal_node_id":"0.0-66.0"},{"result":126,"points":3,"place":0,"phase":0,"sequence":47,"prices":[170,193,176,245,178,194,154,159,236,126],"times":[1413,852,1142,831,815,835,804,1081,979,1390],"next_num":10,"trial_type":"ticket-choose","trial_index":67,"time_elapsed":1246709,"internal_node_id":"0.0-67.0"},{"result":136,"points":2,"place":1,"phase":0,"sequence":48,"prices":[172,194,174,243,182,193,136,150,237,126],"times":[1206,1067,800,719,845,776,1349],"next_num":7,"trial_type":"ticket-choose","trial_index":68,"time_elapsed":1257268,"internal_node_id":"0.0-68.0"},{"result":162,"points":1,"place":3,"phase":0,"sequence":49,"prices":[197,153,181,215,150,155,164,247,177,162],"times":[1171,693,689,672,630,659,1846,817,825,1305],"next_num":11,"trial_type":"ticket-choose","trial_index":69,"time_elapsed":1275446,"internal_node_id":"0.0-69.0"},{"responses":[{"value":1,"offby":0,"category":"$90 - $120","category_index":0},{"value":5,"offby":2,"category":"$121 - $145","category_index":1},{"value":4,"offby":1,"category":"$146 - $170","category_index":2},{"value":5,"offby":-1,"category":"$171 - $195","category_index":3},{"value":3,"offby":-1,"category":"$196 - $220","category_index":4},{"value":1,"offby":-1,"category":"$221 - $245","category_index":5},{"value":1,"offby":0,"category":"$246 - $270","category_index":6}],"phase":0,"number":1,"trial_type":"bar-choose","trial_index":70,"time_elapsed":1377144,"internal_node_id":"0.0-70.0"},{"rt":352775,"url":"\/tickets\/utils\/start2.html","trial_type":"html","trial_index":71,"time_elapsed":1731075,"internal_node_id":"0.0-71.0"},{"trial_type":"number-animation","trial_index":72,"time_elapsed":1765272,"internal_node_id":"0.0-72.0"},{"phase":1,"sequence":0,"avg":181,"response":183,"trial_type":"training_avg","trial_index":73,"time_elapsed":1787315,"internal_node_id":"0.0-73.0"},{"trial_type":"number-animation","trial_index":74,"time_elapsed":1814962,"internal_node_id":"0.0-74.0"},{"phase":1,"sequence":1,"avg":188,"response":189,"trial_type":"training_avg","trial_index":75,"time_elapsed":1836524,"internal_node_id":"0.0-75.0"},{"trial_type":"number-animation","trial_index":76,"time_elapsed":1868176,"internal_node_id":"0.0-76.0"},{"phase":1,"sequence":2,"avg":188,"response":191,"trial_type":"training_avg","trial_index":77,"time_elapsed":1898314,"internal_node_id":"0.0-77.0"},{"trial_type":"number-animation","trial_index":78,"time_elapsed":1943142,"internal_node_id":"0.0-78.0"},{"phase":1,"sequence":3,"avg":177,"response":182,"trial_type":"training_avg","trial_index":79,"time_elapsed":1966950,"internal_node_id":"0.0-79.0"},{"trial_type":"number-animation","trial_index":80,"time_elapsed":2000708,"internal_node_id":"0.0-80.0"},{"phase":1,"sequence":4,"avg":182,"response":188,"trial_type":"training_avg","trial_index":81,"time_elapsed":2015601,"internal_node_id":"0.0-81.0"},{"responses":[{"value":0,"offby":0,"category":"$106 - $134","category_index":0},{"value":3,"offby":2,"category":"$135 - $150","category_index":1},{"value":3,"offby":0,"category":"$151 - $165","category_index":2},{"value":3,"offby":-3,"category":"$166 - $180","category_index":3},{"value":5,"offby":-1,"category":"$181 - $195","category_index":4},{"value":5,"offby":2,"category":"$196 - $210","category_index":5},{"value":1,"offby":0,"category":"$211 - $225","category_index":6}],"phase":1,"number":0,"trial_type":"bar-choose","trial_index":82,"time_elapsed":2087259,"internal_node_id":"0.0-82.0"},{"rt":4820,"url":"\/tickets\/utils\/testing2.html","trial_type":"html","trial_index":83,"time_elapsed":2093224,"internal_node_id":"0.0-83.0"},{"phase":1,"order":[3,10,11,12,34,35,0,23,38,18,42,40,26,16,7,43,4,47,45,46,48,31,8,5,33,49,9,36,24,30,25,37,14,6,17,41,2,20,21,13,28,32,44,27,1,29,19,15,22,39],"trial_type":"store_order","trial_index":84,"time_elapsed":2094244,"internal_node_id":"0.0-84.0"},{"result":148,"points":3,"place":0,"phase":1,"sequence":0,"prices":[148,171,150,163,167,220,162,186,187,165],"times":[1973],"next_num":1,"trial_type":"ticket-choose","trial_index":85,"time_elapsed":2099448,"internal_node_id":"0.0-85.0"},{"result":154,"points":3,"place":0,"phase":1,"sequence":1,"prices":[176,185,158,217,180,186,177,166,209,154],"times":[1442,638,668,700,637,651,693,1022,1149,1219],"next_num":10,"trial_type":"ticket-choose","trial_index":86,"time_elapsed":2113510,"internal_node_id":"0.0-86.0"},{"result":153,"points":3,"place":0,"phase":1,"sequence":2,"prices":[176,186,163,214,179,187,176,166,153,208],"times":[1428,592,520,617,538,569,584,594,1264],"next_num":9,"trial_type":"ticket-choose","trial_index":87,"time_elapsed":2124583,"internal_node_id":"0.0-87.0"},{"result":188,"points":1,"place":4,"phase":1,"sequence":3,"prices":[161,193,167,187,190,224,174,194,195,188],"times":[1025,614,546,566,465,601,663,642,1192,1214],"next_num":10,"trial_type":"ticket-choose","trial_index":88,"time_elapsed":2136853,"internal_node_id":"0.0-88.0"},{"result":167,"points":2,"place":1,"phase":1,"sequence":4,"prices":[174,186,178,217,181,188,167,168,208,156],"times":[1091,656,1041,627,946,1071,1227],"next_num":7,"trial_type":"ticket-choose","trial_index":89,"time_elapsed":2147532,"internal_node_id":"0.0-89.0"},{"result":165,"points":1,"place":2,"phase":1,"sequence":5,"prices":[175,186,176,224,179,187,163,165,153,210],"times":[1307,736,546,583,547,523,524,1063],"next_num":8,"trial_type":"ticket-choose","trial_index":90,"time_elapsed":2157787,"internal_node_id":"0.0-90.0"},{"result":157,"points":3,"place":0,"phase":1,"sequence":6,"prices":[201,187,157,184,198,179,188,185,178,170],"times":[4248,570,1137],"next_num":3,"trial_type":"ticket-choose","trial_index":91,"time_elapsed":2167169,"internal_node_id":"0.0-91.0"},{"result":150,"points":3,"place":0,"phase":1,"sequence":7,"prices":[189,150,175,160,188,207,158,194,178,199],"times":[1228,1136],"next_num":2,"trial_type":"ticket-choose","trial_index":92,"time_elapsed":2172668,"internal_node_id":"0.0-92.0"},{"result":167,"points":2,"place":1,"phase":1,"sequence":8,"prices":[175,187,167,212,179,187,178,169,208,153],"times":[1089,1542,1310],"next_num":3,"trial_type":"ticket-choose","trial_index":93,"time_elapsed":2179531,"internal_node_id":"0.0-93.0"},{"result":153,"points":3,"place":0,"phase":1,"sequence":9,"prices":[175,186,167,225,179,187,178,169,209,153],"times":[1231,573,670,637,976,1458,602,622,697,964],"next_num":10,"trial_type":"ticket-choose","trial_index":94,"time_elapsed":2192308,"internal_node_id":"0.0-94.0"},{"result":163,"points":2,"place":1,"phase":1,"sequence":10,"prices":[174,186,163,212,181,187,176,166,153,209],"times":[1312,774,1200],"next_num":3,"trial_type":"ticket-choose","trial_index":95,"time_elapsed":2198404,"internal_node_id":"0.0-95.0"},{"result":147,"points":3,"place":0,"phase":1,"sequence":11,"prices":[181,215,169,147,182,193,177,184,176,179],"times":[1456,658,573,1071],"next_num":4,"trial_type":"ticket-choose","trial_index":96,"time_elapsed":2206023,"internal_node_id":"0.0-96.0"},{"result":154,"points":3,"place":0,"phase":1,"sequence":12,"prices":[188,200,165,172,198,174,177,154,177,180],"times":[1257,793,1154,734,759,815,813,1220],"next_num":8,"trial_type":"ticket-choose","trial_index":97,"time_elapsed":2218122,"internal_node_id":"0.0-97.0"},{"result":167,"points":2,"place":1,"phase":1,"sequence":13,"prices":[175,187,178,209,179,187,167,169,208,153],"times":[1125,847,636,759,663,683,1421],"next_num":7,"trial_type":"ticket-choose","trial_index":98,"time_elapsed":2227921,"internal_node_id":"0.0-98.0"},{"result":157,"points":3,"place":0,"phase":1,"sequence":14,"prices":[157,191,165,175,182,203,170,195,200,176],"times":[1235],"next_num":1,"trial_type":"ticket-choose","trial_index":99,"time_elapsed":2231663,"internal_node_id":"0.0-99.0"},{"result":150,"points":3,"place":0,"phase":1,"sequence":15,"prices":[150,185,154,161,173,199,155,188,191,168],"times":[1239],"next_num":1,"trial_type":"ticket-choose","trial_index":100,"time_elapsed":2235376,"internal_node_id":"0.0-100.0"},{"result":158,"points":2,"place":1,"phase":1,"sequence":16,"prices":[175,186,177,221,180,187,158,166,209,153],"times":[1219,682,770,712,693,617,1801],"next_num":7,"trial_type":"ticket-choose","trial_index":101,"time_elapsed":2245630,"internal_node_id":"0.0-101.0"},{"result":148,"points":3,"place":0,"phase":1,"sequence":17,"prices":[183,163,185,180,166,148,160,186,176,184],"times":[1379,610,758,677,1065,1325],"next_num":6,"trial_type":"ticket-choose","trial_index":102,"time_elapsed":2254868,"internal_node_id":"0.0-102.0"},{"result":167,"points":2,"place":1,"phase":1,"sequence":18,"prices":[175,185,178,215,181,186,167,168,208,156],"times":[1090,671,615,757,924,681,1223],"next_num":7,"trial_type":"ticket-choose","trial_index":103,"time_elapsed":2264362,"internal_node_id":"0.0-103.0"},{"result":155,"points":2,"place":1,"phase":1,"sequence":19,"prices":[181,155,148,161,168,187,172,199,176,194],"times":[1080,956],"next_num":2,"trial_type":"ticket-choose","trial_index":104,"time_elapsed":2269501,"internal_node_id":"0.0-104.0"},{"result":158,"points":2,"place":1,"phase":1,"sequence":20,"prices":[175,186,158,211,180,187,177,166,209,153],"times":[1061,792,1144],"next_num":3,"trial_type":"ticket-choose","trial_index":105,"time_elapsed":2275720,"internal_node_id":"0.0-105.0"},{"result":143,"points":3,"place":0,"phase":1,"sequence":21,"prices":[222,173,202,197,143,205,198,183,178,186],"times":[1337,681,625,615,1085],"next_num":5,"trial_type":"ticket-choose","trial_index":106,"time_elapsed":2283147,"internal_node_id":"0.0-106.0"},{"result":154,"points":3,"place":0,"phase":1,"sequence":22,"prices":[175,187,163,209,180,188,176,165,154,208],"times":[1172,635,853,601,656,595,671,739,1490],"next_num":9,"trial_type":"ticket-choose","trial_index":107,"time_elapsed":2294578,"internal_node_id":"0.0-107.0"},{"result":152,"points":3,"place":0,"phase":1,"sequence":23,"prices":[152,200,158,173,182,207,161,202,204,180],"times":[1831],"next_num":1,"trial_type":"ticket-choose","trial_index":108,"time_elapsed":2298603,"internal_node_id":"0.0-108.0"},{"result":159,"points":3,"place":0,"phase":1,"sequence":24,"prices":[159,183,166,168,173,205,167,187,191,170],"times":[1072],"next_num":1,"trial_type":"ticket-choose","trial_index":109,"time_elapsed":2301912,"internal_node_id":"0.0-109.0"},{"result":154,"points":3,"place":0,"phase":1,"sequence":25,"prices":[175,187,176,209,180,188,163,165,154,208],"times":[1173,686,687,718,663,671,925,1440,1287],"next_num":9,"trial_type":"ticket-choose","trial_index":110,"time_elapsed":2314933,"internal_node_id":"0.0-110.0"},{"result":185,"points":1,"place":4,"phase":1,"sequence":26,"prices":[169,196,170,184,187,211,171,201,202,185],"times":[1451,727,896,710,601,742,654,672,624,825],"next_num":11,"trial_type":"ticket-choose","trial_index":111,"time_elapsed":2327589,"internal_node_id":"0.0-111.0"},{"result":152,"points":3,"place":0,"phase":1,"sequence":27,"prices":[200,181,203,152,175,171,160,154,176,191],"times":[1476,730,682,1043],"next_num":4,"trial_type":"ticket-choose","trial_index":112,"time_elapsed":2334435,"internal_node_id":"0.0-112.0"},{"result":158,"points":2,"place":1,"phase":1,"sequence":28,"prices":[176,187,158,210,181,187,177,165,208,153],"times":[1336,708,1001],"next_num":3,"trial_type":"ticket-choose","trial_index":113,"time_elapsed":2340280,"internal_node_id":"0.0-113.0"},{"result":158,"points":2,"place":1,"phase":1,"sequence":29,"prices":[176,187,177,225,181,187,158,165,208,153],"times":[1308,698,648,704,742,752,1169],"next_num":7,"trial_type":"ticket-choose","trial_index":114,"time_elapsed":2350467,"internal_node_id":"0.0-114.0"},{"result":159,"points":1,"place":2,"phase":1,"sequence":30,"prices":[180,159,149,175,185,141,163,174,178,207],"times":[1262,1331],"next_num":2,"trial_type":"ticket-choose","trial_index":115,"time_elapsed":2355989,"internal_node_id":"0.0-115.0"},{"result":171,"points":1,"place":3,"phase":1,"sequence":31,"prices":[189,167,180,197,165,168,172,213,178,171],"times":[1226,675,631,643,690,623,625,727,1094,1217],"next_num":10,"trial_type":"ticket-choose","trial_index":116,"time_elapsed":2368349,"internal_node_id":"0.0-116.0"},{"result":184,"points":1,"place":4,"phase":1,"sequence":32,"prices":[161,193,175,181,185,224,180,199,218,184],"times":[1630,681,713,634,679,679,726,685,1411,1186],"next_num":10,"trial_type":"ticket-choose","trial_index":117,"time_elapsed":2382159,"internal_node_id":"0.0-117.0"},{"result":164,"points":3,"place":0,"phase":1,"sequence":33,"prices":[212,192,188,184,167,193,189,164,176,170],"times":[1390,670,743,645,622,1595,983,1319],"next_num":8,"trial_type":"ticket-choose","trial_index":118,"time_elapsed":2393871,"internal_node_id":"0.0-118.0"},{"result":168,"points":1,"place":2,"phase":1,"sequence":34,"prices":[168,199,196,198,185,195,227,163,177,166],"times":[1679],"next_num":1,"trial_type":"ticket-choose","trial_index":119,"time_elapsed":2397891,"internal_node_id":"0.0-119.0"},{"result":163,"points":2,"place":1,"phase":1,"sequence":35,"prices":[174,186,176,217,181,187,163,166,153,209],"times":[1572,1001,729,641,814,642,1254],"next_num":7,"trial_type":"ticket-choose","trial_index":120,"time_elapsed":2408490,"internal_node_id":"0.0-120.0"},{"result":167,"points":2,"place":1,"phase":1,"sequence":36,"prices":[175,186,178,212,179,187,167,169,209,153],"times":[1290,625,601,683,712,854,1512],"next_num":7,"trial_type":"ticket-choose","trial_index":121,"time_elapsed":2418296,"internal_node_id":"0.0-121.0"},{"result":154,"points":2,"place":1,"phase":1,"sequence":37,"prices":[168,154,172,185,195,144,184,211,177,227],"times":[1256,1349],"next_num":2,"trial_type":"ticket-choose","trial_index":122,"time_elapsed":2423327,"internal_node_id":"0.0-122.0"},{"result":158,"points":3,"place":0,"phase":1,"sequence":38,"prices":[210,184,226,193,215,158,199,175,176,208],"times":[1101,681,514,627,704,1253],"next_num":6,"trial_type":"ticket-choose","trial_index":123,"time_elapsed":2431830,"internal_node_id":"0.0-123.0"},{"result":155,"points":2,"place":1,"phase":1,"sequence":39,"prices":[201,207,155,158,156,165,167,135,178,177],"times":[1173,570,1035],"next_num":3,"trial_type":"ticket-choose","trial_index":124,"time_elapsed":2437278,"internal_node_id":"0.0-124.0"},{"result":156,"points":3,"place":0,"phase":1,"sequence":40,"prices":[156,201,162,166,185,214,165,202,204,179],"times":[1458],"next_num":1,"trial_type":"ticket-choose","trial_index":125,"time_elapsed":2441031,"internal_node_id":"0.0-125.0"},{"result":153,"points":3,"place":0,"phase":1,"sequence":41,"prices":[175,186,163,211,179,187,176,165,153,210],"times":[1277,682,2009,1033,577,630,792,723,1155],"next_num":9,"trial_type":"ticket-choose","trial_index":126,"time_elapsed":2455245,"internal_node_id":"0.0-126.0"},{"result":152,"points":3,"place":0,"phase":1,"sequence":42,"prices":[198,193,169,163,202,182,152,164,177,171],"times":[1269,699,1328,647,776,796,1131],"next_num":7,"trial_type":"ticket-choose","trial_index":127,"time_elapsed":2465569,"internal_node_id":"0.0-127.0"},{"result":158,"points":2,"place":1,"phase":1,"sequence":43,"prices":[176,185,177,218,180,186,158,166,209,154],"times":[748,689,1285,721,753,671,1229],"next_num":7,"trial_type":"ticket-choose","trial_index":128,"time_elapsed":2475305,"internal_node_id":"0.0-128.0"},{"result":156,"points":3,"place":0,"phase":1,"sequence":44,"prices":[174,186,167,211,181,188,178,168,208,156],"times":[972,568,545,659,585,770,955,1137,935,1016],"next_num":10,"trial_type":"ticket-choose","trial_index":129,"time_elapsed":2487789,"internal_node_id":"0.0-129.0"},{"result":156,"points":3,"place":0,"phase":1,"sequence":45,"prices":[175,185,167,224,181,186,178,168,208,156],"times":[1196,608,655,1113,692,723,872,1324,801,922],"next_num":10,"trial_type":"ticket-choose","trial_index":130,"time_elapsed":2500919,"internal_node_id":"0.0-130.0"},{"result":177,"points":1,"place":4,"phase":1,"sequence":46,"prices":[175,186,158,209,181,188,177,167,208,154],"times":[1134,873,513,914,832,748,2176],"next_num":7,"trial_type":"ticket-choose","trial_index":131,"time_elapsed":2512186,"internal_node_id":"0.0-131.0"},{"result":163,"points":2,"place":1,"phase":1,"sequence":47,"prices":[176,186,176,210,179,187,163,166,153,208],"times":[1725,1513,647,727,585,732,1146],"next_num":7,"trial_type":"ticket-choose","trial_index":132,"time_elapsed":2523202,"internal_node_id":"0.0-132.0"},{"result":186,"points":1,"place":4,"phase":1,"sequence":48,"prices":[168,192,171,178,188,217,172,195,197,186],"times":[1175,734,693,624,954,677,1308,713,784,1375],"next_num":10,"trial_type":"ticket-choose","trial_index":133,"time_elapsed":2536677,"internal_node_id":"0.0-133.0"},{"result":158,"points":2,"place":1,"phase":1,"sequence":49,"prices":[175,186,177,209,181,188,158,167,208,154],"times":[1724,1640,831,671,862,815,1294],"next_num":7,"trial_type":"ticket-choose","trial_index":134,"time_elapsed":2549645,"internal_node_id":"0.0-134.0"},{"responses":[{"value":0,"offby":0,"category":"$106 - $134","category_index":0},{"value":2,"offby":1,"category":"$135 - $150","category_index":1},{"value":3,"offby":0,"category":"$151 - $165","category_index":2},{"value":5,"offby":-1,"category":"$166 - $180","category_index":3},{"value":5,"offby":-1,"category":"$181 - $195","category_index":4},{"value":4,"offby":1,"category":"$196 - $210","category_index":5},{"value":1,"offby":0,"category":"$211 - $225","category_index":6}],"phase":1,"number":1,"trial_type":"bar-choose","trial_index":135,"time_elapsed":2598350,"internal_node_id":"0.0-135.0"},{"special_comment":"No.","trial_type":"special_sequence","trial_index":136,"time_elapsed":2607996,"internal_node_id":"0.0-136.0"},{"during":"Nothing","bonus":316,"trial_type":"final","trial_index":137,"time_elapsed":2629953,"internal_node_id":"0.0-137.0"}],"bonus":316}