{"start_time":"2017-02-27 12:02:58","end_time":"2017-02-27 12:24:35","points_phase0":107,"points_phase1":115,"phase_order":0,"age":32,"gender":"m","tries":1,"during":"Nothing","worker_id":"A1159C6RKPZURE","assignment_id":"3LUY3GC630TAEAEC4KDQS5RNX4D7PO","data":[{"rt":12207,"url":"\/tickets\/utils\/consent.html","trial_type":"html","trial_index":0,"time_elapsed":12342,"internal_node_id":"0.0-0.0"},{"age":32,"gender":"m","trial_type":"age","trial_index":1,"time_elapsed":22482,"internal_node_id":"0.0-1.0"},{"worker_id":"A1159C6RKPZURE","trial_type":"workerid","trial_index":2,"time_elapsed":33498,"internal_node_id":"0.0-2.0"},{"tries":1,"trial_type":"instructions_check","trial_index":3,"time_elapsed":75624,"internal_node_id":"0.0-3.0"},{"rt":5994,"url":"\/tickets\/utils\/start.html","trial_type":"html","trial_index":4,"time_elapsed":82804,"internal_node_id":"0.0-4.0"},{"trial_type":"number-animation","trial_index":5,"time_elapsed":105464,"internal_node_id":"0.0-5.0"},{"phase":0,"sequence":0,"avg":180,"response":180,"trial_type":"training_avg","trial_index":6,"time_elapsed":115014,"internal_node_id":"0.0-6.0"},{"trial_type":"number-animation","trial_index":7,"time_elapsed":130380,"internal_node_id":"0.0-7.0"},{"phase":0,"sequence":1,"avg":178,"response":177,"trial_type":"training_avg","trial_index":8,"time_elapsed":140877,"internal_node_id":"0.0-8.0"},{"trial_type":"number-animation","trial_index":9,"time_elapsed":154109,"internal_node_id":"0.0-9.0"},{"phase":0,"sequence":2,"avg":176,"response":175,"trial_type":"training_avg","trial_index":10,"time_elapsed":160571,"internal_node_id":"0.0-10.0"},{"trial_type":"number-animation","trial_index":11,"time_elapsed":173155,"internal_node_id":"0.0-11.0"},{"phase":0,"sequence":3,"avg":178,"response":177,"trial_type":"training_avg","trial_index":12,"time_elapsed":180791,"internal_node_id":"0.0-12.0"},{"trial_type":"number-animation","trial_index":13,"time_elapsed":191943,"internal_node_id":"0.0-13.0"},{"phase":0,"sequence":4,"avg":179,"response":180,"trial_type":"training_avg","trial_index":14,"time_elapsed":198891,"internal_node_id":"0.0-14.0"},{"responses":[{"value":20,"offby":20,"category":"$140 - $250","category_index":0},{"value":0,"offby":0,"category":"$151 - $160","category_index":1},{"value":0,"offby":-4,"category":"$161 - $170","category_index":2},{"value":0,"offby":-6,"category":"$171 - $180","category_index":3},{"value":0,"offby":-7,"category":"$181 - $190","category_index":4},{"value":0,"offby":-3,"category":"$191 - $200","category_index":5},{"value":0,"offby":0,"category":"$201 - $210","category_index":6}],"phase":0,"number":0,"trial_type":"bar-choose","trial_index":15,"time_elapsed":271406,"internal_node_id":"0.0-15.0"},{"rt":11197,"url":"\/tickets\/\/utils\/testing.html","trial_type":"html","trial_index":16,"time_elapsed":283793,"internal_node_id":"0.0-16.0"},{"phase":0,"order":[20,4,26,12,6,10,14,5,23,49,22,1,38,2,15,31,35,33,21,47,25,46,32,7,44,30,43,8,36,13,19,16,48,42,45,29,37,0,34,28,41,24,9,39,18,17,11,40,27,3],"trial_type":"store_order","trial_index":17,"time_elapsed":284800,"internal_node_id":"0.0-17.0"},{"result":126,"points":3,"place":0,"phase":0,"sequence":-1,"prices":[184,180,224,165,181,199,185,193,218,126],"times":[3429,1544,1337,2124,1538,1125,1023,914,929,2086],"next_num":10,"trial_type":"ticket-choose","trial_index":18,"time_elapsed":305925,"internal_node_id":"0.0-18.0"},{"rt":23764,"url":"\/tickets\/utils\/testing_after.html","trial_type":"html","trial_index":19,"time_elapsed":330865,"internal_node_id":"0.0-19.0"},{"result":168,"points":2,"place":1,"phase":0,"sequence":0,"prices":[174,178,176,192,177,181,168,171,163,182],"times":[5077,1181,1697,1263,1344,1026,1525],"next_num":7,"trial_type":"ticket-choose","trial_index":20,"time_elapsed":349529,"internal_node_id":"0.0-20.0"},{"result":169,"points":2,"place":1,"phase":0,"sequence":1,"prices":[175,179,177,193,178,182,169,172,164,183],"times":[1821,960,978,908,840,928,1424],"next_num":7,"trial_type":"ticket-choose","trial_index":21,"time_elapsed":361659,"internal_node_id":"0.0-21.0"},{"result":181,"points":1,"place":4,"phase":0,"sequence":2,"prices":[165,187,173,177,186,196,176,191,192,181],"times":[2098,628,612,675,711,713,859,789,751,1115],"next_num":10,"trial_type":"ticket-choose","trial_index":22,"time_elapsed":375775,"internal_node_id":"0.0-22.0"},{"result":170,"points":2,"place":1,"phase":0,"sequence":3,"prices":[176,180,178,194,179,183,170,173,165,184],"times":[1038,661,863,981,913,874,1210],"next_num":7,"trial_type":"ticket-choose","trial_index":23,"time_elapsed":386850,"internal_node_id":"0.0-23.0"},{"result":169,"points":2,"place":1,"phase":0,"sequence":4,"prices":[174,179,177,194,178,183,169,173,165,184],"times":[1443,556,590,677,681,750,1080],"next_num":7,"trial_type":"ticket-choose","trial_index":24,"time_elapsed":397151,"internal_node_id":"0.0-24.0"},{"result":166,"points":3,"place":0,"phase":0,"sequence":5,"prices":[175,180,170,195,179,184,178,174,166,185],"times":[4672,564,913,655,897,634,585,1024,1133],"next_num":9,"trial_type":"ticket-choose","trial_index":25,"time_elapsed":413025,"internal_node_id":"0.0-25.0"},{"result":170,"points":2,"place":1,"phase":0,"sequence":6,"prices":[175,180,178,195,179,184,170,174,166,185],"times":[1243,515,587,631,587,646,1471],"next_num":7,"trial_type":"ticket-choose","trial_index":26,"time_elapsed":422445,"internal_node_id":"0.0-26.0"},{"result":169,"points":2,"place":1,"phase":0,"sequence":7,"prices":[175,179,177,193,178,182,169,172,164,183],"times":[1260,616,615,656,640,693,1117],"next_num":7,"trial_type":"ticket-choose","trial_index":27,"time_elapsed":434138,"internal_node_id":"0.0-27.0"},{"result":168,"points":2,"place":1,"phase":0,"sequence":8,"prices":[173,178,176,193,177,182,168,172,164,183],"times":[1540,576,1001,608,680,758,1059],"next_num":7,"trial_type":"ticket-choose","trial_index":28,"time_elapsed":445972,"internal_node_id":"0.0-28.0"},{"result":170,"points":2,"place":1,"phase":0,"sequence":9,"prices":[175,189,193,170,179,165,180,186,177,184],"times":[1146,562,623,1668],"next_num":4,"trial_type":"ticket-choose","trial_index":29,"time_elapsed":453303,"internal_node_id":"0.0-29.0"},{"result":172,"points":1,"place":2,"phase":0,"sequence":10,"prices":[173,178,176,193,177,182,168,172,164,183],"times":[1102,726,616,672,686,642,609,1471],"next_num":8,"trial_type":"ticket-choose","trial_index":30,"time_elapsed":463791,"internal_node_id":"0.0-30.0"},{"result":169,"points":2,"place":1,"phase":0,"sequence":11,"prices":[175,179,169,193,178,182,177,172,164,183],"times":[1173,608,976],"next_num":3,"trial_type":"ticket-choose","trial_index":31,"time_elapsed":469333,"internal_node_id":"0.0-31.0"},{"result":177,"points":1,"place":2,"phase":0,"sequence":12,"prices":[181,179,199,188,170,172,178,187,191,177],"times":[823,587,665,689,1399,712,634,766,689,913],"next_num":10,"trial_type":"ticket-choose","trial_index":32,"time_elapsed":481560,"internal_node_id":"0.0-32.0"},{"result":169,"points":2,"place":1,"phase":0,"sequence":13,"prices":[174,179,169,194,178,183,177,173,165,184],"times":[1507,602,1029],"next_num":3,"trial_type":"ticket-choose","trial_index":33,"time_elapsed":487391,"internal_node_id":"0.0-33.0"},{"result":170,"points":2,"place":1,"phase":0,"sequence":14,"prices":[175,180,178,195,179,184,170,174,166,185],"times":[856,611,640,647,625,656,1079],"next_num":7,"trial_type":"ticket-choose","trial_index":34,"time_elapsed":496224,"internal_node_id":"0.0-34.0"},{"result":157,"points":3,"place":0,"phase":0,"sequence":15,"prices":[157,184,163,174,181,190,168,187,189,177],"times":[1540],"next_num":1,"trial_type":"ticket-choose","trial_index":35,"time_elapsed":500976,"internal_node_id":"0.0-35.0"},{"result":154,"points":3,"place":0,"phase":0,"sequence":16,"prices":[188,179,154,183,173,170,177,160,169,175],"times":[1059,2344,1053],"next_num":3,"trial_type":"ticket-choose","trial_index":36,"time_elapsed":508837,"internal_node_id":"0.0-36.0"},{"result":179,"points":1,"place":4,"phase":0,"sequence":17,"prices":[170,183,172,175,180,189,174,187,188,179],"times":[951,608,640,671,724,664,984,741,735,916],"next_num":10,"trial_type":"ticket-choose","trial_index":37,"time_elapsed":520999,"internal_node_id":"0.0-37.0"},{"result":168,"points":2,"place":1,"phase":0,"sequence":18,"prices":[174,178,176,192,177,181,168,171,163,182],"times":[1023,624,665,772,688,710,1157],"next_num":7,"trial_type":"ticket-choose","trial_index":38,"time_elapsed":530169,"internal_node_id":"0.0-38.0"},{"result":174,"points":2,"place":1,"phase":0,"sequence":19,"prices":[180,175,173,177,191,190,184,196,174,181],"times":[994,937,968,688,754,686,733,732,984],"next_num":9,"trial_type":"ticket-choose","trial_index":39,"time_elapsed":541666,"internal_node_id":"0.0-39.0"},{"result":163,"points":3,"place":0,"phase":0,"sequence":20,"prices":[163,185,165,174,181,198,173,186,187,180],"times":[1251],"next_num":1,"trial_type":"ticket-choose","trial_index":40,"time_elapsed":545433,"internal_node_id":"0.0-40.0"},{"result":166,"points":3,"place":0,"phase":0,"sequence":21,"prices":[179,186,197,201,166,187,188,193,190,177],"times":[944,607,593,633,1077],"next_num":5,"trial_type":"ticket-choose","trial_index":41,"time_elapsed":552367,"internal_node_id":"0.0-41.0"},{"result":175,"points":1,"place":4,"phase":0,"sequence":22,"prices":[171,180,172,174,179,188,173,183,186,175],"times":[1579,679,838,561,591,603,1601,621,640,727],"next_num":10,"trial_type":"ticket-choose","trial_index":42,"time_elapsed":564850,"internal_node_id":"0.0-42.0"},{"result":173,"points":1,"place":2,"phase":0,"sequence":23,"prices":[174,179,177,194,178,183,169,173,165,184],"times":[1366,756,720,640,654,640,610,1191],"next_num":8,"trial_type":"ticket-choose","trial_index":43,"time_elapsed":574987,"internal_node_id":"0.0-43.0"},{"result":150,"points":3,"place":0,"phase":0,"sequence":24,"prices":[175,150,164,155,171,199,158,180,184,196],"times":[1204,1037],"next_num":2,"trial_type":"ticket-choose","trial_index":44,"time_elapsed":579607,"internal_node_id":"0.0-44.0"},{"result":160,"points":3,"place":0,"phase":0,"sequence":25,"prices":[160,185,170,174,182,196,173,186,194,177],"times":[1257],"next_num":1,"trial_type":"ticket-choose","trial_index":45,"time_elapsed":583553,"internal_node_id":"0.0-45.0"},{"result":157,"points":2,"place":1,"phase":0,"sequence":26,"prices":[188,191,179,157,181,164,166,156,175,182],"times":[1128,716,1052,1002],"next_num":4,"trial_type":"ticket-choose","trial_index":46,"time_elapsed":590260,"internal_node_id":"0.0-46.0"},{"result":170,"points":2,"place":1,"phase":0,"sequence":27,"prices":[176,180,170,194,179,183,178,173,165,184],"times":[1232,618,1226],"next_num":3,"trial_type":"ticket-choose","trial_index":47,"time_elapsed":595903,"internal_node_id":"0.0-47.0"},{"result":169,"points":1,"place":2,"phase":0,"sequence":28,"prices":[189,185,169,168,167,171,180,173,174,188],"times":[1109,613,958],"next_num":3,"trial_type":"ticket-choose","trial_index":48,"time_elapsed":601257,"internal_node_id":"0.0-48.0"},{"result":170,"points":2,"place":1,"phase":0,"sequence":29,"prices":[176,180,178,194,179,183,170,173,165,184],"times":[1145,658,937,759,720,626,984],"next_num":7,"trial_type":"ticket-choose","trial_index":49,"time_elapsed":610503,"internal_node_id":"0.0-49.0"},{"result":168,"points":2,"place":1,"phase":0,"sequence":30,"prices":[173,178,168,193,177,182,176,172,164,183],"times":[1742,614,999],"next_num":3,"trial_type":"ticket-choose","trial_index":50,"time_elapsed":616617,"internal_node_id":"0.0-50.0"},{"result":168,"points":2,"place":1,"phase":0,"sequence":31,"prices":[174,178,168,192,177,181,176,171,163,182],"times":[2364,632,937],"next_num":3,"trial_type":"ticket-choose","trial_index":51,"time_elapsed":623308,"internal_node_id":"0.0-51.0"},{"result":173,"points":2,"place":1,"phase":0,"sequence":32,"prices":[193,173,175,182,179,198,181,171,176,187],"times":[953,1358],"next_num":2,"trial_type":"ticket-choose","trial_index":52,"time_elapsed":627881,"internal_node_id":"0.0-52.0"},{"result":160,"points":3,"place":0,"phase":0,"sequence":33,"prices":[175,193,175,160,180,170,175,205,177,167],"times":[1256,632,928,949],"next_num":4,"trial_type":"ticket-choose","trial_index":53,"time_elapsed":634585,"internal_node_id":"0.0-53.0"},{"result":162,"points":3,"place":0,"phase":0,"sequence":34,"prices":[179,174,172,162,202,184,165,197,185,169],"times":[993,733,890,1092],"next_num":4,"trial_type":"ticket-choose","trial_index":54,"time_elapsed":641159,"internal_node_id":"0.0-54.0"},{"result":166,"points":3,"place":0,"phase":0,"sequence":35,"prices":[166,190,170,173,178,203,172,192,198,174],"times":[1747],"next_num":1,"trial_type":"ticket-choose","trial_index":55,"time_elapsed":645215,"internal_node_id":"0.0-55.0"},{"result":168,"points":2,"place":1,"phase":0,"sequence":36,"prices":[181,175,182,168,183,173,153,170,193,179],"times":[2364,733,639,916],"next_num":4,"trial_type":"ticket-choose","trial_index":56,"time_elapsed":652642,"internal_node_id":"0.0-56.0"},{"result":169,"points":2,"place":1,"phase":0,"sequence":37,"prices":[175,179,169,193,178,182,177,172,164,183],"times":[1433,649,907],"next_num":3,"trial_type":"ticket-choose","trial_index":57,"time_elapsed":658105,"internal_node_id":"0.0-57.0"},{"result":165,"points":2,"place":1,"phase":0,"sequence":38,"prices":[181,180,191,186,165,197,159,167,194,185],"times":[1182,640,609,706,1022],"next_num":5,"trial_type":"ticket-choose","trial_index":58,"time_elapsed":665171,"internal_node_id":"0.0-58.0"},{"result":159,"points":3,"place":0,"phase":0,"sequence":39,"prices":[159,178,170,174,176,194,173,182,185,175],"times":[1118],"next_num":1,"trial_type":"ticket-choose","trial_index":59,"time_elapsed":668462,"internal_node_id":"0.0-59.0"},{"result":165,"points":3,"place":0,"phase":0,"sequence":40,"prices":[180,165,177,193,186,196,187,169,171,182],"times":[1925,834],"next_num":2,"trial_type":"ticket-choose","trial_index":60,"time_elapsed":673557,"internal_node_id":"0.0-60.0"},{"result":161,"points":3,"place":0,"phase":0,"sequence":41,"prices":[161,180,170,174,178,198,173,182,188,176],"times":[967],"next_num":1,"trial_type":"ticket-choose","trial_index":61,"time_elapsed":676833,"internal_node_id":"0.0-61.0"},{"result":170,"points":2,"place":1,"phase":0,"sequence":42,"prices":[176,180,170,194,179,183,178,173,165,184],"times":[2128,633,970],"next_num":3,"trial_type":"ticket-choose","trial_index":62,"time_elapsed":683048,"internal_node_id":"0.0-62.0"},{"result":171,"points":1,"place":2,"phase":0,"sequence":43,"prices":[195,177,197,179,171,173,175,156,163,204],"times":[1124,905,587,850,968],"next_num":5,"trial_type":"ticket-choose","trial_index":63,"time_elapsed":690331,"internal_node_id":"0.0-63.0"},{"result":168,"points":2,"place":1,"phase":0,"sequence":44,"prices":[173,178,168,193,177,182,176,172,164,183],"times":[1577,560,859],"next_num":3,"trial_type":"ticket-choose","trial_index":64,"time_elapsed":695702,"internal_node_id":"0.0-64.0"},{"result":168,"points":2,"place":1,"phase":0,"sequence":45,"prices":[174,178,168,192,177,181,176,171,163,182],"times":[936,554,1218],"next_num":3,"trial_type":"ticket-choose","trial_index":65,"time_elapsed":700827,"internal_node_id":"0.0-65.0"},{"result":170,"points":2,"place":1,"phase":0,"sequence":46,"prices":[175,180,170,195,179,184,178,174,166,185],"times":[1070,580,1346],"next_num":3,"trial_type":"ticket-choose","trial_index":66,"time_elapsed":706182,"internal_node_id":"0.0-66.0"},{"result":167,"points":3,"place":0,"phase":0,"sequence":47,"prices":[179,174,199,178,196,167,170,184,177,190],"times":[1261,598,742,675,769,1084],"next_num":6,"trial_type":"ticket-choose","trial_index":67,"time_elapsed":714959,"internal_node_id":"0.0-67.0"},{"result":168,"points":3,"place":0,"phase":0,"sequence":48,"prices":[168,188,171,181,184,196,180,194,195,183],"times":[1166],"next_num":1,"trial_type":"ticket-choose","trial_index":68,"time_elapsed":718252,"internal_node_id":"0.0-68.0"},{"result":169,"points":2,"place":1,"phase":0,"sequence":49,"prices":[174,179,169,194,178,183,177,173,165,184],"times":[1312,615,961],"next_num":3,"trial_type":"ticket-choose","trial_index":69,"time_elapsed":723863,"internal_node_id":"0.0-69.0"},{"responses":[{"value":0,"offby":0,"category":"$140 - $250","category_index":0},{"value":0,"offby":0,"category":"$151 - $160","category_index":1},{"value":5,"offby":1,"category":"$161 - $170","category_index":2},{"value":10,"offby":4,"category":"$171 - $180","category_index":3},{"value":5,"offby":-2,"category":"$181 - $190","category_index":4},{"value":0,"offby":-3,"category":"$191 - $200","category_index":5},{"value":0,"offby":0,"category":"$201 - $210","category_index":6}],"phase":0,"number":1,"trial_type":"bar-choose","trial_index":70,"time_elapsed":768849,"internal_node_id":"0.0-70.0"},{"rt":10796,"url":"\/tickets\/utils\/start2.html","trial_type":"html","trial_index":71,"time_elapsed":780826,"internal_node_id":"0.0-71.0"},{"trial_type":"number-animation","trial_index":72,"time_elapsed":792221,"internal_node_id":"0.0-72.0"},{"phase":1,"sequence":0,"avg":166,"response":160,"trial_type":"training_avg","trial_index":73,"time_elapsed":800202,"internal_node_id":"0.0-73.0"},{"trial_type":"number-animation","trial_index":74,"time_elapsed":809689,"internal_node_id":"0.0-74.0"},{"phase":1,"sequence":1,"avg":198,"response":180,"trial_type":"training_avg","trial_index":75,"time_elapsed":817747,"internal_node_id":"0.0-75.0"},{"trial_type":"number-animation","trial_index":76,"time_elapsed":826792,"internal_node_id":"0.0-76.0"},{"phase":1,"sequence":2,"avg":177,"response":160,"trial_type":"training_avg","trial_index":77,"time_elapsed":834786,"internal_node_id":"0.0-77.0"},{"trial_type":"number-animation","trial_index":78,"time_elapsed":843251,"internal_node_id":"0.0-78.0"},{"phase":1,"sequence":3,"avg":190,"response":185,"trial_type":"training_avg","trial_index":79,"time_elapsed":849629,"internal_node_id":"0.0-79.0"},{"trial_type":"number-animation","trial_index":80,"time_elapsed":857140,"internal_node_id":"0.0-80.0"},{"phase":1,"sequence":4,"avg":201,"response":200,"trial_type":"training_avg","trial_index":81,"time_elapsed":866839,"internal_node_id":"0.0-81.0"},{"responses":[{"value":0,"offby":-1,"category":"$30 - $75","category_index":0},{"value":0,"offby":-2,"category":"$76 - $120","category_index":1},{"value":5,"offby":1,"category":"$121 - $165","category_index":2},{"value":10,"offby":4,"category":"$166 - $210","category_index":3},{"value":5,"offby":-1,"category":"$211 - $255","category_index":4},{"value":0,"offby":-1,"category":"$256 - $300","category_index":5},{"value":0,"offby":0,"category":"$301 - $345","category_index":6}],"phase":1,"number":0,"trial_type":"bar-choose","trial_index":82,"time_elapsed":901083,"internal_node_id":"0.0-82.0"},{"rt":7920,"url":"\/tickets\/utils\/testing2.html","trial_type":"html","trial_index":83,"time_elapsed":910197,"internal_node_id":"0.0-83.0"},{"phase":1,"order":[26,33,42,30,0,48,23,32,9,10,19,21,12,29,41,31,49,45,36,39,25,1,8,6,28,22,11,24,43,46,47,13,15,27,7,40,44,16,2,14,20,4,34,5,35,3,17,37,38,18],"trial_type":"store_order","trial_index":84,"time_elapsed":911206,"internal_node_id":"0.0-84.0"},{"result":105,"points":3,"place":0,"phase":1,"sequence":0,"prices":[105,216,146,165,210,260,161,235,241,185],"times":[3710],"next_num":1,"trial_type":"ticket-choose","trial_index":85,"time_elapsed":917754,"internal_node_id":"0.0-85.0"},{"result":130,"points":3,"place":0,"phase":1,"sequence":1,"prices":[130,195,141,155,181,226,150,216,221,175],"times":[1157],"next_num":1,"trial_type":"ticket-choose","trial_index":86,"time_elapsed":921825,"internal_node_id":"0.0-86.0"},{"result":81,"points":3,"place":0,"phase":1,"sequence":2,"prices":[155,245,155,81,180,130,156,306,166,115],"times":[1596,555,1174,1023],"next_num":4,"trial_type":"ticket-choose","trial_index":87,"time_elapsed":928768,"internal_node_id":"0.0-87.0"},{"result":81,"points":3,"place":0,"phase":1,"sequence":3,"prices":[81,205,130,151,191,261,145,210,250,165],"times":[982],"next_num":1,"trial_type":"ticket-choose","trial_index":88,"time_elapsed":931697,"internal_node_id":"0.0-88.0"},{"result":140,"points":1,"place":2,"phase":1,"sequence":4,"prices":[156,175,126,246,170,190,165,140,100,196],"times":[829,508,493,520,842,680,920,1054],"next_num":8,"trial_type":"ticket-choose","trial_index":89,"time_elapsed":940977,"internal_node_id":"0.0-89.0"},{"result":136,"points":3,"place":0,"phase":1,"sequence":5,"prices":[246,145,155,191,176,270,185,136,160,215],"times":[1037,984,804,663,740,672,778,1036],"next_num":8,"trial_type":"ticket-choose","trial_index":90,"time_elapsed":951381,"internal_node_id":"0.0-90.0"},{"result":145,"points":1,"place":3,"phase":1,"sequence":6,"prices":[145,170,160,245,165,190,120,141,100,195],"times":[1547],"next_num":1,"trial_type":"ticket-choose","trial_index":91,"time_elapsed":954891,"internal_node_id":"0.0-91.0"},{"result":135,"points":3,"place":0,"phase":1,"sequence":7,"prices":[135,180,141,151,175,220,145,196,211,155],"times":[872],"next_num":1,"trial_type":"ticket-choose","trial_index":92,"time_elapsed":957938,"internal_node_id":"0.0-92.0"},{"result":130,"points":2,"place":1,"phase":1,"sequence":8,"prices":[160,180,130,251,176,195,170,146,105,200],"times":[1409,759,998],"next_num":3,"trial_type":"ticket-choose","trial_index":93,"time_elapsed":963612,"internal_node_id":"0.0-93.0"},{"result":131,"points":2,"place":1,"phase":1,"sequence":9,"prices":[156,181,131,256,176,200,171,151,111,206],"times":[1524,654,902],"next_num":3,"trial_type":"ticket-choose","trial_index":94,"time_elapsed":969105,"internal_node_id":"0.0-94.0"},{"result":146,"points":1,"place":3,"phase":1,"sequence":10,"prices":[146,170,121,245,166,190,161,141,100,195],"times":[1328],"next_num":1,"trial_type":"ticket-choose","trial_index":95,"time_elapsed":972930,"internal_node_id":"0.0-95.0"},{"result":120,"points":2,"place":1,"phase":1,"sequence":11,"prices":[150,170,160,241,166,186,120,136,96,191],"times":[1022,560,625,610,863,657,975],"next_num":7,"trial_type":"ticket-choose","trial_index":96,"time_elapsed":981432,"internal_node_id":"0.0-96.0"},{"result":131,"points":2,"place":1,"phase":1,"sequence":12,"prices":[161,180,171,250,176,195,131,146,105,201],"times":[1200,593,589,7570,574,718,867],"next_num":7,"trial_type":"ticket-choose","trial_index":97,"time_elapsed":996962,"internal_node_id":"0.0-97.0"},{"result":111,"points":3,"place":0,"phase":1,"sequence":13,"prices":[111,231,131,146,171,295,141,241,271,150],"times":[873],"next_num":1,"trial_type":"ticket-choose","trial_index":98,"time_elapsed":999744,"internal_node_id":"0.0-98.0"},{"result":106,"points":3,"place":0,"phase":1,"sequence":14,"prices":[180,106,166,245,211,261,215,125,135,190],"times":[889,772],"next_num":2,"trial_type":"ticket-choose","trial_index":99,"time_elapsed":1003488,"internal_node_id":"0.0-99.0"},{"result":66,"points":3,"place":0,"phase":1,"sequence":15,"prices":[66,201,96,150,185,230,121,216,225,165],"times":[868],"next_num":1,"trial_type":"ticket-choose","trial_index":100,"time_elapsed":1006262,"internal_node_id":"0.0-100.0"},{"result":130,"points":2,"place":1,"phase":1,"sequence":16,"prices":[155,225,245,130,176,106,180,211,165,200],"times":[1055,579,595,965],"next_num":4,"trial_type":"ticket-choose","trial_index":101,"time_elapsed":1011842,"internal_node_id":"0.0-101.0"},{"result":91,"points":3,"place":0,"phase":1,"sequence":17,"prices":[176,150,141,91,290,201,106,266,206,126],"times":[1402,806,630,821],"next_num":4,"trial_type":"ticket-choose","trial_index":102,"time_elapsed":1018024,"internal_node_id":"0.0-102.0"},{"result":125,"points":1,"place":2,"phase":1,"sequence":18,"prices":[226,205,125,120,115,135,180,145,150,220],"times":[1897,633,950],"next_num":3,"trial_type":"ticket-choose","trial_index":103,"time_elapsed":1023799,"internal_node_id":"0.0-103.0"},{"result":136,"points":1,"place":2,"phase":1,"sequence":19,"prices":[255,166,266,175,136,145,155,61,96,301],"times":[790,602,579,686,852],"next_num":5,"trial_type":"ticket-choose","trial_index":104,"time_elapsed":1029974,"internal_node_id":"0.0-104.0"},{"result":95,"points":3,"place":0,"phase":1,"sequence":20,"prices":[95,205,106,151,186,271,145,210,215,181],"times":[848],"next_num":1,"trial_type":"ticket-choose","trial_index":105,"time_elapsed":1032662,"internal_node_id":"0.0-105.0"},{"result":125,"points":2,"place":1,"phase":1,"sequence":21,"prices":[156,175,125,245,170,190,165,140,101,196],"times":[1017,578,919],"next_num":3,"trial_type":"ticket-choose","trial_index":106,"time_elapsed":1037516,"internal_node_id":"0.0-106.0"},{"result":105,"points":3,"place":0,"phase":1,"sequence":22,"prices":[161,180,131,251,175,196,171,146,105,201],"times":[705,578,668,577,680,607,612,648,938],"next_num":9,"trial_type":"ticket-choose","trial_index":107,"time_elapsed":1047136,"internal_node_id":"0.0-107.0"},{"result":126,"points":2,"place":1,"phase":1,"sequence":23,"prices":[150,175,166,251,170,196,126,145,105,201],"times":[1019,563,588,578,632,624,931],"next_num":7,"trial_type":"ticket-choose","trial_index":108,"time_elapsed":1055312,"internal_node_id":"0.0-108.0"},{"result":75,"points":3,"place":0,"phase":1,"sequence":24,"prices":[75,171,131,151,161,250,145,190,206,156],"times":[936],"next_num":1,"trial_type":"ticket-choose","trial_index":109,"time_elapsed":1058094,"internal_node_id":"0.0-109.0"},{"result":120,"points":2,"place":1,"phase":1,"sequence":25,"prices":[145,171,161,245,165,191,120,140,100,196],"times":[788,552,567,570,625,623,832],"next_num":7,"trial_type":"ticket-choose","trial_index":110,"time_elapsed":1065824,"internal_node_id":"0.0-110.0"},{"result":130,"points":2,"place":1,"phase":1,"sequence":26,"prices":[156,181,130,255,175,200,170,150,111,205],"times":[699,686,845],"next_num":3,"trial_type":"ticket-choose","trial_index":111,"time_elapsed":1070318,"internal_node_id":"0.0-111.0"},{"result":86,"points":3,"place":0,"phase":1,"sequence":27,"prices":[86,180,130,151,170,271,145,191,220,160],"times":[770],"next_num":1,"trial_type":"ticket-choose","trial_index":112,"time_elapsed":1072930,"internal_node_id":"0.0-112.0"},{"result":65,"points":2,"place":1,"phase":1,"sequence":28,"prices":[220,236,176,65,185,101,110,61,156,191],"times":[686,529,559,783],"next_num":4,"trial_type":"ticket-choose","trial_index":113,"time_elapsed":1078056,"internal_node_id":"0.0-113.0"},{"result":111,"points":3,"place":0,"phase":1,"sequence":29,"prices":[175,211,266,286,111,216,220,245,230,165],"times":[882,634,565,654,798],"next_num":5,"trial_type":"ticket-choose","trial_index":114,"time_elapsed":1084380,"internal_node_id":"0.0-114.0"},{"result":150,"points":2,"place":1,"phase":1,"sequence":30,"prices":[181,156,145,165,236,231,201,260,150,185],"times":[1349,541,575,546,594,1162,634,615,860],"next_num":9,"trial_type":"ticket-choose","trial_index":115,"time_elapsed":1095289,"internal_node_id":"0.0-115.0"},{"result":131,"points":2,"place":1,"phase":1,"sequence":31,"prices":[160,180,170,251,176,195,131,146,105,200],"times":[898,570,600,625,813,696,874],"next_num":7,"trial_type":"ticket-choose","trial_index":116,"time_elapsed":1103544,"internal_node_id":"0.0-116.0"},{"result":131,"points":2,"place":1,"phase":1,"sequence":32,"prices":[156,181,171,256,175,200,131,150,110,206],"times":[1037,544,602,625,634,810,1173],"next_num":7,"trial_type":"ticket-choose","trial_index":117,"time_elapsed":1112163,"internal_node_id":"0.0-117.0"},{"result":120,"points":3,"place":0,"phase":1,"sequence":33,"prices":[120,221,135,185,200,261,181,251,255,196],"times":[1671],"next_num":1,"trial_type":"ticket-choose","trial_index":118,"time_elapsed":1115789,"internal_node_id":"0.0-118.0"},{"result":126,"points":2,"place":1,"phase":1,"sequence":34,"prices":[151,175,166,251,170,195,126,146,105,201],"times":[885,519,608,728,686,612,951],"next_num":7,"trial_type":"ticket-choose","trial_index":119,"time_elapsed":1123981,"internal_node_id":"0.0-119.0"},{"result":116,"points":3,"place":0,"phase":1,"sequence":35,"prices":[176,150,276,171,261,116,130,201,166,231],"times":[928,560,608,608,681,844],"next_num":6,"trial_type":"ticket-choose","trial_index":120,"time_elapsed":1131147,"internal_node_id":"0.0-120.0"},{"result":30,"points":3,"place":0,"phase":1,"sequence":36,"prices":[155,30,101,55,136,276,70,181,200,261],"times":[764,832],"next_num":2,"trial_type":"ticket-choose","trial_index":121,"time_elapsed":1134953,"internal_node_id":"0.0-121.0"},{"result":121,"points":2,"place":1,"phase":1,"sequence":37,"prices":[150,171,121,241,165,185,160,136,95,191],"times":[898,586,883],"next_num":3,"trial_type":"ticket-choose","trial_index":122,"time_elapsed":1139565,"internal_node_id":"0.0-122.0"},{"result":126,"points":2,"place":1,"phase":1,"sequence":38,"prices":[151,176,126,251,170,196,165,145,105,201],"times":[689,615,1016],"next_num":3,"trial_type":"ticket-choose","trial_index":123,"time_elapsed":1144169,"internal_node_id":"0.0-123.0"},{"result":130,"points":2,"place":1,"phase":1,"sequence":39,"prices":[155,181,170,255,176,200,130,150,110,205],"times":[1052,656,736,856,853,778,852],"next_num":7,"trial_type":"ticket-choose","trial_index":124,"time_elapsed":1153133,"internal_node_id":"0.0-124.0"},{"result":121,"points":2,"place":1,"phase":1,"sequence":40,"prices":[150,170,160,240,166,185,121,136,95,191],"times":[806,610,630,691,759,689,914],"next_num":7,"trial_type":"ticket-choose","trial_index":125,"time_elapsed":1161481,"internal_node_id":"0.0-125.0"},{"result":125,"points":2,"place":1,"phase":1,"sequence":41,"prices":[155,175,166,245,171,190,125,140,101,196],"times":[847,638,583,689,789,878,907],"next_num":7,"trial_type":"ticket-choose","trial_index":126,"time_elapsed":1170000,"internal_node_id":"0.0-126.0"},{"result":106,"points":2,"place":1,"phase":1,"sequence":42,"prices":[185,180,235,210,106,266,76,115,250,205],"times":[747,663,625,668,922],"next_num":5,"trial_type":"ticket-choose","trial_index":127,"time_elapsed":1176518,"internal_node_id":"0.0-127.0"},{"result":126,"points":2,"place":1,"phase":1,"sequence":43,"prices":[156,176,165,246,171,190,126,141,101,196],"times":[762,586,617,624,765,611,852],"next_num":7,"trial_type":"ticket-choose","trial_index":128,"time_elapsed":1184482,"internal_node_id":"0.0-128.0"},{"result":51,"points":3,"place":0,"phase":1,"sequence":44,"prices":[221,175,51,196,146,130,166,80,126,156],"times":[702,582,789],"next_num":3,"trial_type":"ticket-choose","trial_index":129,"time_elapsed":1189147,"internal_node_id":"0.0-129.0"},{"result":105,"points":3,"place":0,"phase":1,"sequence":45,"prices":[150,176,126,251,171,195,165,145,105,200],"times":[981,554,521,586,625,669,664,1247,938],"next_num":9,"trial_type":"ticket-choose","trial_index":130,"time_elapsed":1199770,"internal_node_id":"0.0-130.0"},{"result":120,"points":2,"place":1,"phase":1,"sequence":46,"prices":[150,171,120,241,165,185,160,135,96,190],"times":[989,554,1533],"next_num":3,"trial_type":"ticket-choose","trial_index":131,"time_elapsed":1205289,"internal_node_id":"0.0-131.0"},{"result":45,"points":3,"place":0,"phase":1,"sequence":47,"prices":[186,156,191,120,195,145,45,130,246,176],"times":[956,539,625,571,592,727,1028],"next_num":7,"trial_type":"ticket-choose","trial_index":132,"time_elapsed":1214440,"internal_node_id":"0.0-132.0"},{"result":165,"points":1,"place":2,"phase":1,"sequence":48,"prices":[185,175,276,221,130,141,171,216,235,165],"times":[1138,543,553,560,601,613,671,678,601,1210],"next_num":10,"trial_type":"ticket-choose","trial_index":133,"time_elapsed":1226008,"internal_node_id":"0.0-133.0"},{"result":120,"points":2,"place":1,"phase":1,"sequence":49,"prices":[146,171,120,245,165,191,160,140,100,196],"times":[1241,626,880],"next_num":3,"trial_type":"ticket-choose","trial_index":134,"time_elapsed":1231214,"internal_node_id":"0.0-134.0"},{"responses":[{"value":1,"offby":0,"category":"$30 - $75","category_index":0},{"value":4,"offby":2,"category":"$76 - $120","category_index":1},{"value":6,"offby":2,"category":"$121 - $165","category_index":2},{"value":6,"offby":0,"category":"$166 - $210","category_index":3},{"value":2,"offby":-4,"category":"$211 - $255","category_index":4},{"value":1,"offby":0,"category":"$256 - $300","category_index":5},{"value":0,"offby":0,"category":"$301 - $345","category_index":6}],"phase":1,"number":1,"trial_type":"bar-choose","trial_index":135,"time_elapsed":1258609,"internal_node_id":"0.0-135.0"},{"special_comment":"No","trial_type":"special_sequence","trial_index":136,"time_elapsed":1264674,"internal_node_id":"0.0-136.0"},{"during":"Nothing","bonus":296,"trial_type":"final","trial_index":137,"time_elapsed":1293923,"internal_node_id":"0.0-137.0"}],"bonus":296}