{"start_time":"2017-02-22 10:27:27","end_time":"2017-02-22 10:59:10","points_phase0":112,"points_phase1":107,"phase_order":1,"age":31,"gender":"m","tries":1,"during":"Nothing","worker_id":"A11P1OS26E6AMO","assignment_id":"3OVHNO1VE7UK9NHSI6EEJV3XTTGZDH","data":[{"rt":92961,"url":"\/tickets\/utils\/consent.html","trial_type":"html","trial_index":0,"time_elapsed":93257,"internal_node_id":"0.0-0.0"},{"age":31,"gender":"m","trial_type":"age","trial_index":1,"time_elapsed":100799,"internal_node_id":"0.0-1.0"},{"worker_id":"A11P1OS26E6AMO","trial_type":"workerid","trial_index":2,"time_elapsed":117169,"internal_node_id":"0.0-2.0"},{"tries":1,"trial_type":"instructions_check","trial_index":3,"time_elapsed":164629,"internal_node_id":"0.0-3.0"},{"rt":16839,"url":"\/tickets\/utils\/start.html","trial_type":"html","trial_index":4,"time_elapsed":182601,"internal_node_id":"0.0-4.0"},{"trial_type":"number-animation","trial_index":5,"time_elapsed":206320,"internal_node_id":"0.0-5.0"},{"phase":0,"sequence":0,"avg":182,"response":155,"trial_type":"training_avg","trial_index":6,"time_elapsed":226572,"internal_node_id":"0.0-6.0"},{"trial_type":"number-animation","trial_index":7,"time_elapsed":241544,"internal_node_id":"0.0-7.0"},{"phase":0,"sequence":1,"avg":188,"response":169,"trial_type":"training_avg","trial_index":8,"time_elapsed":260585,"internal_node_id":"0.0-8.0"},{"trial_type":"number-animation","trial_index":9,"time_elapsed":272774,"internal_node_id":"0.0-9.0"},{"phase":0,"sequence":2,"avg":176,"response":185,"trial_type":"training_avg","trial_index":10,"time_elapsed":284231,"internal_node_id":"0.0-10.0"},{"trial_type":"number-animation","trial_index":11,"time_elapsed":298888,"internal_node_id":"0.0-11.0"},{"phase":0,"sequence":3,"avg":180,"response":177,"trial_type":"training_avg","trial_index":12,"time_elapsed":310287,"internal_node_id":"0.0-12.0"},{"trial_type":"number-animation","trial_index":13,"time_elapsed":322067,"internal_node_id":"0.0-13.0"},{"phase":0,"sequence":4,"avg":174,"response":160,"trial_type":"training_avg","trial_index":14,"time_elapsed":336004,"internal_node_id":"0.0-14.0"},{"responses":[{"value":0,"offby":-1,"category":"$90 - $120","category_index":0},{"value":3,"offby":0,"category":"$121 - $145","category_index":1},{"value":5,"offby":2,"category":"$146 - $170","category_index":2},{"value":6,"offby":0,"category":"$171 - $195","category_index":3},{"value":3,"offby":-1,"category":"$196 - $220","category_index":4},{"value":2,"offby":0,"category":"$221 - $245","category_index":5},{"value":0,"offby":-1,"category":"$246 - $270","category_index":6}],"phase":0,"number":0,"trial_type":"bar-choose","trial_index":15,"time_elapsed":428015,"internal_node_id":"0.0-15.0"},{"rt":15538,"url":"\/tickets\/\/utils\/testing.html","trial_type":"html","trial_index":16,"time_elapsed":444771,"internal_node_id":"0.0-16.0"},{"phase":0,"order":[46,18,7,9,15,2,5,14,31,37,36,13,22,32,33,21,12,19,11,0,3,39,40,29,38,8,16,48,25,35,44,27,1,30,47,20,24,41,26,23,42,10,4,6,17,45,28,49,43,34],"trial_type":"store_order","trial_index":17,"time_elapsed":445775,"internal_node_id":"0.0-17.0"},{"result":126,"points":3,"place":0,"phase":0,"sequence":-1,"prices":[184,180,224,165,181,199,185,193,218,126],"times":[2229,1315,840,2967,1661,1171,1015,1016,966,1548],"next_num":10,"trial_type":"ticket-choose","trial_index":18,"time_elapsed":467375,"internal_node_id":"0.0-18.0"},{"rt":29921,"url":"\/tickets\/utils\/testing_after.html","trial_type":"html","trial_index":19,"time_elapsed":498430,"internal_node_id":"0.0-19.0"},{"result":116,"points":3,"place":0,"phase":0,"sequence":0,"prices":[186,146,191,179,152,116,140,201,172,187],"times":[2705,2003,917,751,677,2845],"next_num":6,"trial_type":"ticket-choose","trial_index":20,"time_elapsed":514161,"internal_node_id":"0.0-20.0"},{"result":126,"points":3,"place":0,"phase":0,"sequence":1,"prices":[170,193,176,245,178,194,154,159,236,126],"times":[1450,833,602,926,1143,1974,1091,1086,861,1758],"next_num":10,"trial_type":"ticket-choose","trial_index":21,"time_elapsed":530631,"internal_node_id":"0.0-21.0"},{"result":105,"points":3,"place":0,"phase":0,"sequence":2,"prices":[263,165,224,214,105,230,215,185,177,193],"times":[1242,1160,1220,797,1361],"next_num":5,"trial_type":"ticket-choose","trial_index":22,"time_elapsed":541069,"internal_node_id":"0.0-22.0"},{"result":136,"points":2,"place":1,"phase":0,"sequence":3,"prices":[173,194,136,239,182,200,174,150,236,127],"times":[3714,705,2369],"next_num":3,"trial_type":"ticket-choose","trial_index":23,"time_elapsed":551834,"internal_node_id":"0.0-23.0"},{"result":146,"points":2,"place":1,"phase":0,"sequence":4,"prices":[172,191,176,272,179,194,146,152,126,235],"times":[1619,767,559,526,559,605,2072],"next_num":7,"trial_type":"ticket-choose","trial_index":24,"time_elapsed":563110,"internal_node_id":"0.0-24.0"},{"result":196,"points":1,"place":4,"phase":0,"sequence":5,"prices":[143,206,153,194,201,267,168,208,210,196],"times":[2077,603,580,583,567,569,1008,1506,733,3136],"next_num":10,"trial_type":"ticket-choose","trial_index":25,"time_elapsed":579723,"internal_node_id":"0.0-25.0"},{"result":146,"points":2,"place":1,"phase":0,"sequence":6,"prices":[168,191,172,240,183,193,146,151,125,238],"times":[1354,579,860,601,576,611,1847],"next_num":7,"trial_type":"ticket-choose","trial_index":26,"time_elapsed":590905,"internal_node_id":"0.0-26.0"},{"result":135,"points":3,"place":0,"phase":0,"sequence":7,"prices":[135,202,150,169,183,225,160,211,220,172],"times":[25628],"next_num":1,"trial_type":"ticket-choose","trial_index":27,"time_elapsed":620470,"internal_node_id":"0.0-27.0"},{"result":136,"points":2,"place":1,"phase":0,"sequence":8,"prices":[171,192,136,265,180,194,174,152,239,127],"times":[7872,746,1199],"next_num":3,"trial_type":"ticket-choose","trial_index":28,"time_elapsed":633440,"internal_node_id":"0.0-28.0"},{"result":136,"points":2,"place":1,"phase":0,"sequence":9,"prices":[169,192,174,246,180,195,136,152,238,126],"times":[1203,552,624,535,607,511,1510],"next_num":7,"trial_type":"ticket-choose","trial_index":29,"time_elapsed":642844,"internal_node_id":"0.0-29.0"},{"result":236,"points":0,"place":6,"phase":0,"sequence":10,"prices":[240,188,273,207,250,136,217,170,171,236],"times":[987,676,1382,608,676,1493,608,549,465,1928],"next_num":10,"trial_type":"ticket-choose","trial_index":30,"time_elapsed":657560,"internal_node_id":"0.0-30.0"},{"result":142,"points":3,"place":0,"phase":0,"sequence":11,"prices":[142,207,171,182,190,269,180,218,256,188],"times":[2746],"next_num":1,"trial_type":"ticket-choose","trial_index":31,"time_elapsed":663132,"internal_node_id":"0.0-31.0"},{"result":130,"points":2,"place":1,"phase":0,"sequence":12,"prices":[181,130,116,142,157,193,165,218,173,207],"times":[936,1166],"next_num":2,"trial_type":"ticket-choose","trial_index":32,"time_elapsed":668096,"internal_node_id":"0.0-32.0"},{"result":136,"points":2,"place":1,"phase":0,"sequence":13,"prices":[172,194,174,243,182,193,136,150,237,126],"times":[2627,508,604,560,639,519,1178],"next_num":7,"trial_type":"ticket-choose","trial_index":33,"time_elapsed":678783,"internal_node_id":"0.0-33.0"},{"result":124,"points":3,"place":0,"phase":0,"sequence":14,"prices":[219,183,227,124,176,161,140,129,171,201],"times":[990,540,1178,1604],"next_num":4,"trial_type":"ticket-choose","trial_index":34,"time_elapsed":686479,"internal_node_id":"0.0-34.0"},{"result":131,"points":2,"place":1,"phase":0,"sequence":15,"prices":[221,234,131,136,132,149,154,90,176,173],"times":[1186,545,1329],"next_num":3,"trial_type":"ticket-choose","trial_index":35,"time_elapsed":692655,"internal_node_id":"0.0-35.0"},{"result":145,"points":2,"place":1,"phase":0,"sequence":16,"prices":[216,206,158,145,224,185,124,149,175,162],"times":[748,651,1476,2353],"next_num":4,"trial_type":"ticket-choose","trial_index":36,"time_elapsed":700929,"internal_node_id":"0.0-36.0"},{"result":158,"points":1,"place":2,"phase":0,"sequence":17,"prices":[169,193,154,255,178,194,176,158,239,126],"times":[1117,564,747,515,526,685,450,2484],"next_num":8,"trial_type":"ticket-choose","trial_index":37,"time_elapsed":745164,"internal_node_id":"0.0-37.0"},{"result":154,"points":2,"place":1,"phase":0,"sequence":18,"prices":[169,194,154,271,178,201,176,158,236,127],"times":[2366,510,2326],"next_num":3,"trial_type":"ticket-choose","trial_index":38,"time_elapsed":753768,"internal_node_id":"0.0-38.0"},{"result":154,"points":2,"place":1,"phase":0,"sequence":19,"prices":[170,190,176,251,183,192,154,157,236,131],"times":[1242,487,521,522,789,528,2556],"next_num":7,"trial_type":"ticket-choose","trial_index":39,"time_elapsed":764292,"internal_node_id":"0.0-39.0"},{"result":154,"points":2,"place":1,"phase":0,"sequence":20,"prices":[169,192,176,244,178,194,154,159,237,125],"times":[1132,523,650,579,556,777,1523],"next_num":7,"trial_type":"ticket-choose","trial_index":40,"time_elapsed":773637,"internal_node_id":"0.0-40.0"},{"result":136,"points":2,"place":1,"phase":0,"sequence":21,"prices":[170,192,174,242,181,196,136,153,236,128],"times":[3408,511,446,463,540,495,1367],"next_num":7,"trial_type":"ticket-choose","trial_index":41,"time_elapsed":812597,"internal_node_id":"0.0-41.0"},{"result":146,"points":3,"place":0,"phase":0,"sequence":22,"prices":[156,218,212,216,191,210,275,146,174,152],"times":[1687,508,529,576,554,562,491,1309],"next_num":8,"trial_type":"ticket-choose","trial_index":42,"time_elapsed":823107,"internal_node_id":"0.0-42.0"},{"result":132,"points":3,"place":0,"phase":0,"sequence":23,"prices":[132,222,144,153,190,248,151,224,228,179],"times":[2458],"next_num":1,"trial_type":"ticket-choose","trial_index":43,"time_elapsed":828347,"internal_node_id":"0.0-43.0"},{"result":154,"points":2,"place":1,"phase":0,"sequence":24,"prices":[244,203,196,189,154,206,197,149,171,159],"times":[1080,523,520,534,2656],"next_num":5,"trial_type":"ticket-choose","trial_index":44,"time_elapsed":837335,"internal_node_id":"0.0-44.0"},{"result":133,"points":3,"place":0,"phase":0,"sequence":25,"prices":[169,191,154,268,183,197,176,155,236,133],"times":[1219,486,1011,464,490,527,665,3405,494,985],"next_num":10,"trial_type":"ticket-choose","trial_index":45,"time_elapsed":852024,"internal_node_id":"0.0-45.0"},{"result":124,"points":3,"place":0,"phase":0,"sequence":26,"prices":[124,220,136,165,185,234,143,225,228,179],"times":[1723],"next_num":1,"trial_type":"ticket-choose","trial_index":46,"time_elapsed":856025,"internal_node_id":"0.0-46.0"},{"result":114,"points":3,"place":0,"phase":0,"sequence":27,"prices":[182,249,159,114,184,205,175,189,172,178],"times":[1847,495,913,1216],"next_num":4,"trial_type":"ticket-choose","trial_index":47,"time_elapsed":863698,"internal_node_id":"0.0-47.0"},{"result":133,"points":3,"place":0,"phase":0,"sequence":28,"prices":[168,192,154,237,182,196,176,156,235,133],"times":[1008,498,540,531,613,526,626,1142,517,1065],"next_num":10,"trial_type":"ticket-choose","trial_index":48,"time_elapsed":900252,"internal_node_id":"0.0-48.0"},{"result":146,"points":2,"place":1,"phase":0,"sequence":29,"prices":[171,191,172,268,179,194,146,150,127,239],"times":[1310,497,537,566,502,1040,2057],"next_num":7,"trial_type":"ticket-choose","trial_index":49,"time_elapsed":910838,"internal_node_id":"0.0-49.0"},{"result":121,"points":3,"place":0,"phase":0,"sequence":30,"prices":[121,191,128,141,166,217,129,196,202,157],"times":[1534],"next_num":1,"trial_type":"ticket-choose","trial_index":50,"time_elapsed":914746,"internal_node_id":"0.0-50.0"},{"result":150,"points":3,"place":0,"phase":0,"sequence":31,"prices":[197,153,181,215,150,155,164,247,177,162],"times":[796,957,529,515,1497],"next_num":5,"trial_type":"ticket-choose","trial_index":51,"time_elapsed":923256,"internal_node_id":"0.0-51.0"},{"result":146,"points":2,"place":1,"phase":0,"sequence":32,"prices":[170,193,146,268,178,195,172,149,126,241],"times":[1484,527,1791],"next_num":3,"trial_type":"ticket-choose","trial_index":52,"time_elapsed":932432,"internal_node_id":"0.0-52.0"},{"result":136,"points":2,"place":1,"phase":0,"sequence":33,"prices":[172,190,136,270,179,192,174,152,237,129],"times":[731,479,1396],"next_num":3,"trial_type":"ticket-choose","trial_index":53,"time_elapsed":938065,"internal_node_id":"0.0-53.0"},{"result":192,"points":1,"place":4,"phase":0,"sequence":34,"prices":[157,205,161,175,197,254,165,210,214,192],"times":[935,510,496,524,546,598,707,783,623,1283],"next_num":10,"trial_type":"ticket-choose","trial_index":54,"time_elapsed":949993,"internal_node_id":"0.0-54.0"},{"result":146,"points":2,"place":1,"phase":0,"sequence":35,"prices":[168,191,146,252,183,193,172,153,126,238],"times":[809,499,1210],"next_num":3,"trial_type":"ticket-choose","trial_index":55,"time_elapsed":955483,"internal_node_id":"0.0-55.0"},{"result":154,"points":2,"place":1,"phase":0,"sequence":36,"prices":[168,192,176,242,183,197,154,156,237,132],"times":[1246,516,467,479,630,490,1411],"next_num":7,"trial_type":"ticket-choose","trial_index":56,"time_elapsed":964357,"internal_node_id":"0.0-56.0"},{"result":129,"points":3,"place":0,"phase":0,"sequence":37,"prices":[169,193,146,237,180,196,172,150,129,236],"times":[737,1074,1755,534,500,778,618,1106,1321],"next_num":9,"trial_type":"ticket-choose","trial_index":57,"time_elapsed":977367,"internal_node_id":"0.0-57.0"},{"result":119,"points":3,"place":0,"phase":0,"sequence":38,"prices":[198,119,169,141,195,233,136,208,177,217],"times":[3417,1590],"next_num":2,"trial_type":"ticket-choose","trial_index":58,"time_elapsed":985210,"internal_node_id":"0.0-58.0"},{"result":189,"points":1,"place":4,"phase":0,"sequence":39,"prices":[157,213,159,187,194,242,161,222,225,189],"times":[997,832,477,495,513,502,975,483,445,1364],"next_num":10,"trial_type":"ticket-choose","trial_index":59,"time_elapsed":997033,"internal_node_id":"0.0-59.0"},{"result":152,"points":1,"place":2,"phase":0,"sequence":40,"prices":[173,191,146,242,178,194,172,152,126,235],"times":[2312,626,1832,461,429,446,567,1198],"next_num":8,"trial_type":"ticket-choose","trial_index":60,"time_elapsed":1009360,"internal_node_id":"0.0-60.0"},{"result":129,"points":2,"place":1,"phase":0,"sequence":41,"prices":[155,129,164,189,210,108,187,241,174,275],"times":[1200,1063],"next_num":2,"trial_type":"ticket-choose","trial_index":61,"time_elapsed":1014016,"internal_node_id":"0.0-61.0"},{"result":137,"points":3,"place":0,"phase":0,"sequence":42,"prices":[137,187,152,156,166,231,155,194,202,160],"times":[2657],"next_num":1,"trial_type":"ticket-choose","trial_index":62,"time_elapsed":1042707,"internal_node_id":"0.0-62.0"},{"result":128,"points":3,"place":0,"phase":0,"sequence":43,"prices":[196,221,149,164,216,167,175,128,176,181],"times":[1028,632,941,504,551,475,491,1201],"next_num":8,"trial_type":"ticket-choose","trial_index":63,"time_elapsed":1052498,"internal_node_id":"0.0-63.0"},{"result":138,"points":1,"place":2,"phase":0,"sequence":44,"prices":[181,138,118,170,190,101,146,169,175,233],"times":[779,1692],"next_num":2,"trial_type":"ticket-choose","trial_index":64,"time_elapsed":1058679,"internal_node_id":"0.0-64.0"},{"result":146,"points":2,"place":1,"phase":0,"sequence":45,"prices":[171,195,172,242,179,196,146,150,128,235],"times":[675,499,550,1170,497,509,1369],"next_num":7,"trial_type":"ticket-choose","trial_index":65,"time_elapsed":1067743,"internal_node_id":"0.0-65.0"},{"result":136,"points":2,"place":1,"phase":0,"sequence":46,"prices":[173,191,174,270,180,193,136,153,239,129],"times":[816,618,502,547,588,534,1469],"next_num":7,"trial_type":"ticket-choose","trial_index":66,"time_elapsed":1076686,"internal_node_id":"0.0-66.0"},{"result":136,"points":2,"place":1,"phase":0,"sequence":47,"prices":[171,192,136,243,182,195,174,154,236,128],"times":[1747,455,1575],"next_num":3,"trial_type":"ticket-choose","trial_index":67,"time_elapsed":1109943,"internal_node_id":"0.0-67.0"},{"result":135,"points":3,"place":0,"phase":0,"sequence":48,"prices":[221,193,135,188,217,179,196,190,175,159],"times":[1214,491,1513],"next_num":3,"trial_type":"ticket-choose","trial_index":68,"time_elapsed":1116263,"internal_node_id":"0.0-68.0"},{"result":117,"points":3,"place":0,"phase":0,"sequence":49,"prices":[117,161,120,147,153,259,144,191,195,149],"times":[1686],"next_num":1,"trial_type":"ticket-choose","trial_index":69,"time_elapsed":1122297,"internal_node_id":"0.0-69.0"},{"responses":[{"value":2,"offby":1,"category":"$90 - $120","category_index":0},{"value":5,"offby":2,"category":"$121 - $145","category_index":1},{"value":5,"offby":2,"category":"$146 - $170","category_index":2},{"value":6,"offby":0,"category":"$171 - $195","category_index":3},{"value":1,"offby":-3,"category":"$196 - $220","category_index":4},{"value":1,"offby":-1,"category":"$221 - $245","category_index":5},{"value":0,"offby":-1,"category":"$246 - $270","category_index":6}],"phase":0,"number":1,"trial_type":"bar-choose","trial_index":70,"time_elapsed":1199224,"internal_node_id":"0.0-70.0"},{"rt":7195,"url":"\/tickets\/utils\/start2.html","trial_type":"html","trial_index":71,"time_elapsed":1207601,"internal_node_id":"0.0-71.0"},{"trial_type":"number-animation","trial_index":72,"time_elapsed":1218973,"internal_node_id":"0.0-72.0"},{"phase":1,"sequence":0,"avg":181,"response":171,"trial_type":"training_avg","trial_index":73,"time_elapsed":1228465,"internal_node_id":"0.0-73.0"},{"trial_type":"number-animation","trial_index":74,"time_elapsed":1238185,"internal_node_id":"0.0-74.0"},{"phase":1,"sequence":1,"avg":188,"response":190,"trial_type":"training_avg","trial_index":75,"time_elapsed":1251317,"internal_node_id":"0.0-75.0"},{"trial_type":"number-animation","trial_index":76,"time_elapsed":1262580,"internal_node_id":"0.0-76.0"},{"phase":1,"sequence":2,"avg":188,"response":189,"trial_type":"training_avg","trial_index":77,"time_elapsed":1276907,"internal_node_id":"0.0-77.0"},{"trial_type":"number-animation","trial_index":78,"time_elapsed":1287981,"internal_node_id":"0.0-78.0"},{"phase":1,"sequence":3,"avg":177,"response":185,"trial_type":"training_avg","trial_index":79,"time_elapsed":1299936,"internal_node_id":"0.0-79.0"},{"trial_type":"number-animation","trial_index":80,"time_elapsed":1310328,"internal_node_id":"0.0-80.0"},{"phase":1,"sequence":4,"avg":182,"response":182,"trial_type":"training_avg","trial_index":81,"time_elapsed":1321381,"internal_node_id":"0.0-81.0"},{"responses":[{"value":0,"offby":0,"category":"$106 - $134","category_index":0},{"value":2,"offby":1,"category":"$135 - $150","category_index":1},{"value":3,"offby":0,"category":"$151 - $165","category_index":2},{"value":3,"offby":-3,"category":"$166 - $180","category_index":3},{"value":5,"offby":-1,"category":"$181 - $195","category_index":4},{"value":4,"offby":1,"category":"$196 - $210","category_index":5},{"value":3,"offby":2,"category":"$211 - $225","category_index":6}],"phase":1,"number":0,"trial_type":"bar-choose","trial_index":82,"time_elapsed":1397058,"internal_node_id":"0.0-82.0"},{"rt":10751,"url":"\/tickets\/utils\/testing2.html","trial_type":"html","trial_index":83,"time_elapsed":1409053,"internal_node_id":"0.0-83.0"},{"phase":1,"order":[49,15,42,18,4,32,6,30,16,20,46,24,34,22,47,41,37,10,11,13,14,21,38,25,45,9,26,48,8,7,29,39,3,19,27,2,12,1,40,28,0,35,33,36,44,5,23,17,43,31],"trial_type":"store_order","trial_index":84,"time_elapsed":1410068,"internal_node_id":"0.0-84.0"},{"result":158,"points":3,"place":0,"phase":1,"sequence":0,"prices":[210,184,226,193,215,158,199,175,176,208],"times":[4123,664,473,511,579,1440],"next_num":6,"trial_type":"ticket-choose","trial_index":85,"time_elapsed":1421847,"internal_node_id":"0.0-85.0"},{"result":158,"points":2,"place":1,"phase":1,"sequence":1,"prices":[176,187,158,210,181,187,177,165,208,153],"times":[614,595,6958],"next_num":3,"trial_type":"ticket-choose","trial_index":86,"time_elapsed":1432999,"internal_node_id":"0.0-86.0"},{"result":163,"points":2,"place":1,"phase":1,"sequence":2,"prices":[175,186,176,224,179,187,163,165,153,210],"times":[1833,526,478,568,577,515,2029],"next_num":7,"trial_type":"ticket-choose","trial_index":87,"time_elapsed":1443412,"internal_node_id":"0.0-87.0"},{"result":168,"points":1,"place":2,"phase":1,"sequence":3,"prices":[175,185,167,224,181,186,178,168,208,156],"times":[718,582,480,637,564,528,672,2555],"next_num":8,"trial_type":"ticket-choose","trial_index":88,"time_elapsed":1454494,"internal_node_id":"0.0-88.0"},{"result":208,"points":0,"place":8,"phase":1,"sequence":4,"prices":[175,187,178,209,179,187,167,169,208,153],"times":[816,648,482,578,546,596,2202,828,1520],"next_num":9,"trial_type":"ticket-choose","trial_index":89,"time_elapsed":1466873,"internal_node_id":"0.0-89.0"},{"result":163,"points":2,"place":1,"phase":1,"sequence":5,"prices":[174,186,163,212,181,187,176,166,153,209],"times":[884,625,967],"next_num":3,"trial_type":"ticket-choose","trial_index":90,"time_elapsed":1472304,"internal_node_id":"0.0-90.0"},{"result":163,"points":2,"place":1,"phase":1,"sequence":6,"prices":[175,187,176,209,180,188,163,165,154,208],"times":[566,602,579,470,572,511,1470],"next_num":7,"trial_type":"ticket-choose","trial_index":91,"time_elapsed":1480762,"internal_node_id":"0.0-91.0"},{"result":153,"points":3,"place":0,"phase":1,"sequence":7,"prices":[175,186,178,212,179,187,167,169,209,153],"times":[3150,625,541,561,612,542,983,951,542,1234],"next_num":10,"trial_type":"ticket-choose","trial_index":92,"time_elapsed":1495511,"internal_node_id":"0.0-92.0"},{"result":148,"points":3,"place":0,"phase":1,"sequence":8,"prices":[148,171,150,163,167,220,162,186,187,165],"times":[2265],"next_num":1,"trial_type":"ticket-choose","trial_index":93,"time_elapsed":1500330,"internal_node_id":"0.0-93.0"},{"result":163,"points":2,"place":1,"phase":1,"sequence":9,"prices":[198,193,169,163,202,182,152,164,177,171],"times":[753,552,961,1488],"next_num":4,"trial_type":"ticket-choose","trial_index":94,"time_elapsed":1507169,"internal_node_id":"0.0-94.0"},{"result":154,"points":3,"place":0,"phase":1,"sequence":10,"prices":[188,200,165,172,198,174,177,154,177,180],"times":[761,490,1016,448,515,625,492,1279],"next_num":8,"trial_type":"ticket-choose","trial_index":95,"time_elapsed":1516522,"internal_node_id":"0.0-95.0"},{"result":167,"points":2,"place":1,"phase":1,"sequence":11,"prices":[175,185,178,215,181,186,167,168,208,156],"times":[602,469,475,517,616,639,1335],"next_num":7,"trial_type":"ticket-choose","trial_index":96,"time_elapsed":1524935,"internal_node_id":"0.0-96.0"},{"result":158,"points":2,"place":1,"phase":1,"sequence":12,"prices":[176,187,177,225,181,187,158,165,208,153],"times":[985,478,467,597,1044,739,1571],"next_num":7,"trial_type":"ticket-choose","trial_index":97,"time_elapsed":1534341,"internal_node_id":"0.0-97.0"},{"result":188,"points":1,"place":4,"phase":1,"sequence":13,"prices":[161,193,167,187,190,224,174,194,195,188],"times":[1307,442,628,606,577,630,584,592,798,1101],"next_num":10,"trial_type":"ticket-choose","trial_index":98,"time_elapsed":1546300,"internal_node_id":"0.0-98.0"},{"result":159,"points":3,"place":0,"phase":1,"sequence":14,"prices":[159,183,166,168,173,205,167,187,191,170],"times":[1246],"next_num":1,"trial_type":"ticket-choose","trial_index":99,"time_elapsed":1550398,"internal_node_id":"0.0-99.0"},{"result":158,"points":2,"place":1,"phase":1,"sequence":15,"prices":[175,186,177,209,181,188,158,167,208,154],"times":[831,552,448,557,485,625,1240],"next_num":7,"trial_type":"ticket-choose","trial_index":100,"time_elapsed":1558696,"internal_node_id":"0.0-100.0"},{"result":167,"points":2,"place":1,"phase":1,"sequence":16,"prices":[174,186,178,217,181,188,167,168,208,156],"times":[940,956,576,899,658,627,2654],"next_num":7,"trial_type":"ticket-choose","trial_index":101,"time_elapsed":1569914,"internal_node_id":"0.0-101.0"},{"result":158,"points":2,"place":1,"phase":1,"sequence":17,"prices":[176,185,158,217,180,186,177,166,209,154],"times":[771,669,1530],"next_num":3,"trial_type":"ticket-choose","trial_index":102,"time_elapsed":1575416,"internal_node_id":"0.0-102.0"},{"result":167,"points":2,"place":1,"phase":1,"sequence":18,"prices":[175,187,167,212,179,187,178,169,208,153],"times":[1053,2534,1849],"next_num":3,"trial_type":"ticket-choose","trial_index":103,"time_elapsed":1584907,"internal_node_id":"0.0-103.0"},{"result":163,"points":2,"place":1,"phase":1,"sequence":19,"prices":[176,186,163,214,179,187,176,166,153,208],"times":[577,509,1566],"next_num":3,"trial_type":"ticket-choose","trial_index":104,"time_elapsed":1590322,"internal_node_id":"0.0-104.0"},{"result":163,"points":2,"place":1,"phase":1,"sequence":20,"prices":[175,186,163,211,179,187,176,165,153,210],"times":[600,528,1287],"next_num":3,"trial_type":"ticket-choose","trial_index":105,"time_elapsed":1595471,"internal_node_id":"0.0-105.0"},{"result":165,"points":3,"place":0,"phase":1,"sequence":21,"prices":[189,167,180,197,165,168,172,213,178,171],"times":[1037,840,626,552,1423],"next_num":5,"trial_type":"ticket-choose","trial_index":106,"time_elapsed":1603276,"internal_node_id":"0.0-106.0"},{"result":150,"points":3,"place":0,"phase":1,"sequence":22,"prices":[189,150,175,160,188,207,158,194,178,199],"times":[686,1401],"next_num":2,"trial_type":"ticket-choose","trial_index":107,"time_elapsed":1608043,"internal_node_id":"0.0-107.0"},{"result":150,"points":3,"place":0,"phase":1,"sequence":23,"prices":[150,185,154,161,173,199,155,188,191,168],"times":[1273],"next_num":1,"trial_type":"ticket-choose","trial_index":108,"time_elapsed":1612016,"internal_node_id":"0.0-108.0"},{"result":163,"points":3,"place":0,"phase":1,"sequence":24,"prices":[168,199,196,198,185,195,227,163,177,166],"times":[823,516,516,539,726,568,646,1204],"next_num":8,"trial_type":"ticket-choose","trial_index":109,"time_elapsed":1621791,"internal_node_id":"0.0-109.0"},{"result":168,"points":1,"place":2,"phase":1,"sequence":25,"prices":[174,186,167,211,181,188,178,168,208,156],"times":[928,611,1048,551,486,650,503,2443],"next_num":8,"trial_type":"ticket-choose","trial_index":110,"time_elapsed":1632986,"internal_node_id":"0.0-110.0"},{"result":158,"points":2,"place":1,"phase":1,"sequence":26,"prices":[175,186,158,211,180,187,177,166,209,153],"times":[1076,451,1131],"next_num":3,"trial_type":"ticket-choose","trial_index":111,"time_elapsed":1638327,"internal_node_id":"0.0-111.0"},{"result":147,"points":3,"place":0,"phase":1,"sequence":27,"prices":[181,215,169,147,182,193,177,184,176,179],"times":[744,541,681,1013],"next_num":4,"trial_type":"ticket-choose","trial_index":112,"time_elapsed":1644108,"internal_node_id":"0.0-112.0"},{"result":156,"points":3,"place":0,"phase":1,"sequence":28,"prices":[156,201,162,166,185,214,165,202,204,179],"times":[2563],"next_num":1,"trial_type":"ticket-choose","trial_index":113,"time_elapsed":1649160,"internal_node_id":"0.0-113.0"},{"result":154,"points":2,"place":1,"phase":1,"sequence":29,"prices":[168,154,172,185,195,144,184,211,177,227],"times":[1249,1132],"next_num":2,"trial_type":"ticket-choose","trial_index":114,"time_elapsed":1656853,"internal_node_id":"0.0-114.0"},{"result":149,"points":2,"place":1,"phase":1,"sequence":30,"prices":[180,159,149,175,185,141,163,174,178,207],"times":[719,784,875],"next_num":3,"trial_type":"ticket-choose","trial_index":115,"time_elapsed":1662650,"internal_node_id":"0.0-115.0"},{"result":186,"points":1,"place":4,"phase":1,"sequence":31,"prices":[168,192,171,178,188,217,172,195,197,186],"times":[847,495,548,615,527,499,564,621,712,1162],"next_num":10,"trial_type":"ticket-choose","trial_index":116,"time_elapsed":1674068,"internal_node_id":"0.0-116.0"},{"result":163,"points":2,"place":1,"phase":1,"sequence":32,"prices":[175,187,163,209,180,188,176,165,154,208],"times":[725,515,1188],"next_num":3,"trial_type":"ticket-choose","trial_index":117,"time_elapsed":1679521,"internal_node_id":"0.0-117.0"},{"result":157,"points":3,"place":0,"phase":1,"sequence":33,"prices":[157,191,165,175,182,203,170,195,200,176],"times":[1392],"next_num":1,"trial_type":"ticket-choose","trial_index":118,"time_elapsed":1683640,"internal_node_id":"0.0-118.0"},{"result":152,"points":3,"place":0,"phase":1,"sequence":34,"prices":[200,181,203,152,175,171,160,154,176,191],"times":[673,529,551,1479],"next_num":4,"trial_type":"ticket-choose","trial_index":119,"time_elapsed":1691285,"internal_node_id":"0.0-119.0"},{"result":158,"points":2,"place":1,"phase":1,"sequence":35,"prices":[175,186,177,221,180,187,158,166,209,153],"times":[1594,487,481,695,590,582,1231],"next_num":7,"trial_type":"ticket-choose","trial_index":120,"time_elapsed":1701013,"internal_node_id":"0.0-120.0"},{"result":161,"points":3,"place":0,"phase":1,"sequence":36,"prices":[161,193,175,181,185,224,180,199,218,184],"times":[1297],"next_num":1,"trial_type":"ticket-choose","trial_index":121,"time_elapsed":1704608,"internal_node_id":"0.0-121.0"},{"result":155,"points":2,"place":1,"phase":1,"sequence":37,"prices":[201,207,155,158,156,165,167,135,178,177],"times":[688,456,1042],"next_num":3,"trial_type":"ticket-choose","trial_index":122,"time_elapsed":1709254,"internal_node_id":"0.0-122.0"},{"result":180,"points":1,"place":4,"phase":1,"sequence":38,"prices":[152,200,158,173,182,207,161,202,204,180],"times":[730,767,419,453,432,462,588,694,1226,727],"next_num":10,"trial_type":"ticket-choose","trial_index":123,"time_elapsed":1720172,"internal_node_id":"0.0-123.0"},{"result":158,"points":2,"place":1,"phase":1,"sequence":39,"prices":[176,185,177,218,180,186,158,166,209,154],"times":[723,453,447,498,614,515,897],"next_num":7,"trial_type":"ticket-choose","trial_index":124,"time_elapsed":1727680,"internal_node_id":"0.0-124.0"},{"result":143,"points":3,"place":0,"phase":1,"sequence":40,"prices":[222,173,202,197,143,205,198,183,178,186],"times":[737,548,652,525,937],"next_num":5,"trial_type":"ticket-choose","trial_index":125,"time_elapsed":1735048,"internal_node_id":"0.0-125.0"},{"result":169,"points":1,"place":2,"phase":1,"sequence":41,"prices":[175,186,167,225,179,187,178,169,209,153],"times":[1680,713,531,594,568,645,579,1723],"next_num":8,"trial_type":"ticket-choose","trial_index":126,"time_elapsed":1747753,"internal_node_id":"0.0-126.0"},{"result":163,"points":2,"place":1,"phase":1,"sequence":42,"prices":[176,186,176,210,179,187,163,166,153,208],"times":[669,781,636,512,570,546,1000],"next_num":7,"trial_type":"ticket-choose","trial_index":127,"time_elapsed":1756858,"internal_node_id":"0.0-127.0"},{"result":163,"points":2,"place":1,"phase":1,"sequence":43,"prices":[174,186,176,217,181,187,163,166,153,209],"times":[1099,495,478,833,579,466,844],"next_num":7,"trial_type":"ticket-choose","trial_index":128,"time_elapsed":1767041,"internal_node_id":"0.0-128.0"},{"result":158,"points":2,"place":1,"phase":1,"sequence":44,"prices":[175,186,158,209,181,188,177,167,208,154],"times":[578,586,1341],"next_num":3,"trial_type":"ticket-choose","trial_index":129,"time_elapsed":1772707,"internal_node_id":"0.0-129.0"},{"result":164,"points":3,"place":0,"phase":1,"sequence":45,"prices":[212,192,188,184,167,193,189,164,176,170],"times":[658,580,474,481,992,495,447,1111],"next_num":8,"trial_type":"ticket-choose","trial_index":130,"time_elapsed":1781510,"internal_node_id":"0.0-130.0"},{"result":185,"points":1,"place":4,"phase":1,"sequence":46,"prices":[169,196,170,184,187,211,171,201,202,185],"times":[623,1036,544,747,1022,641,667,532,501,984],"next_num":10,"trial_type":"ticket-choose","trial_index":131,"time_elapsed":1793707,"internal_node_id":"0.0-131.0"},{"result":163,"points":1,"place":2,"phase":1,"sequence":47,"prices":[183,163,185,180,166,148,160,186,176,184],"times":[1616,5622],"next_num":2,"trial_type":"ticket-choose","trial_index":132,"time_elapsed":1803399,"internal_node_id":"0.0-132.0"},{"result":157,"points":3,"place":0,"phase":1,"sequence":48,"prices":[201,187,157,184,198,179,188,185,178,170],"times":[936,668,870],"next_num":3,"trial_type":"ticket-choose","trial_index":133,"time_elapsed":1808778,"internal_node_id":"0.0-133.0"},{"result":155,"points":2,"place":1,"phase":1,"sequence":49,"prices":[181,155,148,161,168,187,172,199,176,194],"times":[675,987],"next_num":2,"trial_type":"ticket-choose","trial_index":134,"time_elapsed":1813496,"internal_node_id":"0.0-134.0"},{"responses":[{"value":0,"offby":0,"category":"$106 - $134","category_index":0},{"value":2,"offby":1,"category":"$135 - $150","category_index":1},{"value":4,"offby":1,"category":"$151 - $165","category_index":2},{"value":4,"offby":-2,"category":"$166 - $180","category_index":3},{"value":5,"offby":-1,"category":"$181 - $195","category_index":4},{"value":3,"offby":0,"category":"$196 - $210","category_index":5},{"value":2,"offby":1,"category":"$211 - $225","category_index":6}],"phase":1,"number":1,"trial_type":"bar-choose","trial_index":135,"time_elapsed":1859720,"internal_node_id":"0.0-135.0"},{"special_comment":"no","trial_type":"special_sequence","trial_index":136,"time_elapsed":1869068,"internal_node_id":"0.0-136.0"},{"during":"Nothing","bonus":292,"trial_type":"final","trial_index":137,"time_elapsed":1900159,"internal_node_id":"0.0-137.0"}],"bonus":292}