{"start_time":"2017-02-22 10:15:35","end_time":"2017-02-22 10:57:04","points_phase0":114,"points_phase1":110,"phase_order":0,"age":36,"gender":"m","tries":1,"during":"Nothing","worker_id":"A13TFZTDF48KI2","assignment_id":"38JBBYETQP39YW73T8Z8VH89SAF4E4","data":[{"rt":28669,"url":"\/tickets\/utils\/consent.html","trial_type":"html","trial_index":0,"time_elapsed":28814,"internal_node_id":"0.0-0.0"},{"age":36,"gender":"m","trial_type":"age","trial_index":1,"time_elapsed":40589,"internal_node_id":"0.0-1.0"},{"worker_id":"A13TFZTDF48KI2","trial_type":"workerid","trial_index":2,"time_elapsed":54461,"internal_node_id":"0.0-2.0"},{"tries":1,"trial_type":"instructions_check","trial_index":3,"time_elapsed":115857,"internal_node_id":"0.0-3.0"},{"rt":20762,"url":"\/tickets\/utils\/start.html","trial_type":"html","trial_index":4,"time_elapsed":137709,"internal_node_id":"0.0-4.0"},{"trial_type":"number-animation","trial_index":5,"time_elapsed":158759,"internal_node_id":"0.0-5.0"},{"phase":0,"sequence":0,"avg":181,"response":174,"trial_type":"training_avg","trial_index":6,"time_elapsed":171810,"internal_node_id":"0.0-6.0"},{"trial_type":"number-animation","trial_index":7,"time_elapsed":189330,"internal_node_id":"0.0-7.0"},{"phase":0,"sequence":1,"avg":188,"response":179,"trial_type":"training_avg","trial_index":8,"time_elapsed":200815,"internal_node_id":"0.0-8.0"},{"trial_type":"number-animation","trial_index":9,"time_elapsed":215312,"internal_node_id":"0.0-9.0"},{"phase":0,"sequence":2,"avg":188,"response":188,"trial_type":"training_avg","trial_index":10,"time_elapsed":225852,"internal_node_id":"0.0-10.0"},{"trial_type":"number-animation","trial_index":11,"time_elapsed":239365,"internal_node_id":"0.0-11.0"},{"phase":0,"sequence":3,"avg":177,"response":170,"trial_type":"training_avg","trial_index":12,"time_elapsed":248543,"internal_node_id":"0.0-12.0"},{"trial_type":"number-animation","trial_index":13,"time_elapsed":262871,"internal_node_id":"0.0-13.0"},{"phase":0,"sequence":4,"avg":182,"response":170,"trial_type":"training_avg","trial_index":14,"time_elapsed":274826,"internal_node_id":"0.0-14.0"},{"responses":[{"value":0,"offby":0,"category":"$106 - $134","category_index":0},{"value":0,"offby":-1,"category":"$135 - $150","category_index":1},{"value":2,"offby":-1,"category":"$151 - $165","category_index":2},{"value":10,"offby":4,"category":"$166 - $180","category_index":3},{"value":6,"offby":0,"category":"$181 - $195","category_index":4},{"value":2,"offby":-1,"category":"$196 - $210","category_index":5},{"value":0,"offby":-1,"category":"$211 - $225","category_index":6}],"phase":0,"number":0,"trial_type":"bar-choose","trial_index":15,"time_elapsed":340256,"internal_node_id":"0.0-15.0"},{"rt":22944,"url":"\/tickets\/\/utils\/testing.html","trial_type":"html","trial_index":16,"time_elapsed":364306,"internal_node_id":"0.0-16.0"},{"phase":0,"order":[41,49,13,15,20,4,12,6,0,10,26,29,32,7,33,17,40,46,1,37,42,24,31,45,3,39,9,27,5,14,11,47,21,38,34,23,43,19,36,35,28,16,2,48,8,22,30,18,25,44],"trial_type":"store_order","trial_index":17,"time_elapsed":365308,"internal_node_id":"0.0-17.0"},{"result":165,"points":2,"place":1,"phase":0,"sequence":-1,"prices":[184,180,224,165,181,199,185,193,218,126],"times":[1990,2178,2149,3367],"next_num":4,"trial_type":"ticket-choose","trial_index":18,"time_elapsed":378990,"internal_node_id":"0.0-18.0"},{"rt":93434,"url":"\/tickets\/utils\/testing_after.html","trial_type":"html","trial_index":19,"time_elapsed":473515,"internal_node_id":"0.0-19.0"},{"result":155,"points":2,"place":1,"phase":0,"sequence":0,"prices":[201,207,155,158,156,165,167,135,178,177],"times":[2920,1340,1753],"next_num":3,"trial_type":"ticket-choose","trial_index":20,"time_elapsed":558553,"internal_node_id":"0.0-20.0"},{"result":163,"points":1,"place":2,"phase":0,"sequence":1,"prices":[183,163,185,180,166,148,160,186,176,184],"times":[1894,2878],"next_num":2,"trial_type":"ticket-choose","trial_index":21,"time_elapsed":567585,"internal_node_id":"0.0-21.0"},{"result":167,"points":2,"place":1,"phase":0,"sequence":2,"prices":[175,185,178,215,181,186,167,168,208,156],"times":[1530,1115,998,853,1294,1459,2180],"next_num":7,"trial_type":"ticket-choose","trial_index":22,"time_elapsed":584376,"internal_node_id":"0.0-22.0"},{"result":167,"points":2,"place":1,"phase":0,"sequence":3,"prices":[175,187,178,209,179,187,167,169,208,153],"times":[1537,655,838,740,928,1325,2997],"next_num":7,"trial_type":"ticket-choose","trial_index":23,"time_elapsed":597943,"internal_node_id":"0.0-23.0"},{"result":158,"points":2,"place":1,"phase":0,"sequence":4,"prices":[175,186,177,221,180,187,158,166,209,153],"times":[2547,682,708,722,610,594,1468],"next_num":7,"trial_type":"ticket-choose","trial_index":24,"time_elapsed":609994,"internal_node_id":"0.0-24.0"},{"result":163,"points":2,"place":1,"phase":0,"sequence":5,"prices":[176,186,176,210,179,187,163,166,153,208],"times":[2296,606,734,739,694,1014,1254],"next_num":7,"trial_type":"ticket-choose","trial_index":25,"time_elapsed":637621,"internal_node_id":"0.0-25.0"},{"result":156,"points":3,"place":0,"phase":0,"sequence":6,"prices":[174,186,178,217,181,188,167,168,208,156],"times":[5640,667,6317,653,686,703,2570,1855,1166,1032],"next_num":10,"trial_type":"ticket-choose","trial_index":26,"time_elapsed":735040,"internal_node_id":"0.0-26.0"},{"result":163,"points":2,"place":1,"phase":0,"sequence":7,"prices":[174,186,176,217,181,187,163,166,153,209],"times":[1551,851,676,827,686,780,2919],"next_num":7,"trial_type":"ticket-choose","trial_index":27,"time_elapsed":747900,"internal_node_id":"0.0-27.0"},{"result":153,"points":3,"place":0,"phase":0,"sequence":8,"prices":[176,186,163,214,179,187,176,166,153,208],"times":[3141,640,2895,652,639,678,684,1477,1254],"next_num":9,"trial_type":"ticket-choose","trial_index":28,"time_elapsed":764859,"internal_node_id":"0.0-28.0"},{"result":153,"points":3,"place":0,"phase":0,"sequence":9,"prices":[175,186,167,225,179,187,178,169,209,153],"times":[1578,654,678,766,831,74502,1054,1578,979,974],"next_num":10,"trial_type":"ticket-choose","trial_index":29,"time_elapsed":852850,"internal_node_id":"0.0-29.0"},{"result":152,"points":3,"place":0,"phase":0,"sequence":10,"prices":[152,200,158,173,182,207,161,202,204,180],"times":[1754],"next_num":1,"trial_type":"ticket-choose","trial_index":30,"time_elapsed":857796,"internal_node_id":"0.0-30.0"},{"result":150,"points":3,"place":0,"phase":0,"sequence":11,"prices":[150,185,154,161,173,199,155,188,191,168],"times":[2251],"next_num":1,"trial_type":"ticket-choose","trial_index":31,"time_elapsed":863587,"internal_node_id":"0.0-31.0"},{"result":188,"points":1,"place":4,"phase":0,"sequence":12,"prices":[161,193,167,187,190,224,174,194,195,188],"times":[1590,603,454,591,686,700,828,662,814,1909],"next_num":10,"trial_type":"ticket-choose","trial_index":32,"time_elapsed":878093,"internal_node_id":"0.0-32.0"},{"result":163,"points":2,"place":1,"phase":0,"sequence":13,"prices":[175,186,176,224,179,187,163,165,153,210],"times":[1228,686,752,948,1163,904,1150],"next_num":7,"trial_type":"ticket-choose","trial_index":33,"time_elapsed":889600,"internal_node_id":"0.0-33.0"},{"result":159,"points":3,"place":0,"phase":0,"sequence":14,"prices":[159,183,166,168,173,205,167,187,191,170],"times":[4057],"next_num":1,"trial_type":"ticket-choose","trial_index":34,"time_elapsed":897040,"internal_node_id":"0.0-34.0"},{"result":158,"points":2,"place":1,"phase":0,"sequence":15,"prices":[175,186,158,209,181,188,177,167,208,154],"times":[1926,668,1045],"next_num":3,"trial_type":"ticket-choose","trial_index":35,"time_elapsed":904696,"internal_node_id":"0.0-35.0"},{"result":150,"points":3,"place":0,"phase":0,"sequence":16,"prices":[189,150,175,160,188,207,158,194,178,199],"times":[1389,1086],"next_num":2,"trial_type":"ticket-choose","trial_index":36,"time_elapsed":910537,"internal_node_id":"0.0-36.0"},{"result":158,"points":3,"place":0,"phase":0,"sequence":17,"prices":[210,184,226,193,215,158,199,175,176,208],"times":[1824,875,790,740,747,1250],"next_num":6,"trial_type":"ticket-choose","trial_index":37,"time_elapsed":921689,"internal_node_id":"0.0-37.0"},{"result":165,"points":1,"place":2,"phase":0,"sequence":18,"prices":[175,187,163,209,180,188,176,165,154,208],"times":[1762,579,904,578,646,608,626,1628],"next_num":8,"trial_type":"ticket-choose","trial_index":38,"time_elapsed":933299,"internal_node_id":"0.0-38.0"},{"result":163,"points":2,"place":1,"phase":0,"sequence":19,"prices":[198,193,169,163,202,182,152,164,177,171],"times":[201810,729,1732,1133],"next_num":4,"trial_type":"ticket-choose","trial_index":39,"time_elapsed":1142004,"internal_node_id":"0.0-39.0"},{"result":143,"points":3,"place":0,"phase":0,"sequence":20,"prices":[222,173,202,197,143,205,198,183,178,186],"times":[1202,789,887,804,1879],"next_num":5,"trial_type":"ticket-choose","trial_index":40,"time_elapsed":1152286,"internal_node_id":"0.0-40.0"},{"result":161,"points":3,"place":0,"phase":0,"sequence":21,"prices":[161,193,175,181,185,224,180,199,218,184],"times":[10507],"next_num":1,"trial_type":"ticket-choose","trial_index":41,"time_elapsed":1166264,"internal_node_id":"0.0-41.0"},{"result":148,"points":3,"place":0,"phase":0,"sequence":22,"prices":[148,171,150,163,167,220,162,186,187,165],"times":[2414],"next_num":1,"trial_type":"ticket-choose","trial_index":42,"time_elapsed":1171914,"internal_node_id":"0.0-42.0"},{"result":164,"points":3,"place":0,"phase":0,"sequence":23,"prices":[212,192,188,184,167,193,189,164,176,170],"times":[2924,741,838,1381,2212,662,920,1545],"next_num":8,"trial_type":"ticket-choose","trial_index":43,"time_elapsed":1188154,"internal_node_id":"0.0-43.0"},{"result":163,"points":2,"place":1,"phase":0,"sequence":24,"prices":[175,186,163,211,179,187,176,165,153,210],"times":[3014,860,2468],"next_num":3,"trial_type":"ticket-choose","trial_index":44,"time_elapsed":1199840,"internal_node_id":"0.0-44.0"},{"result":165,"points":3,"place":0,"phase":0,"sequence":25,"prices":[189,167,180,197,165,168,172,213,178,171],"times":[1620,3228,689,677,1958],"next_num":5,"trial_type":"ticket-choose","trial_index":45,"time_elapsed":1212819,"internal_node_id":"0.0-45.0"},{"result":167,"points":2,"place":1,"phase":0,"sequence":26,"prices":[175,185,167,224,181,186,178,168,208,156],"times":[74268,789,1197],"next_num":3,"trial_type":"ticket-choose","trial_index":46,"time_elapsed":1292244,"internal_node_id":"0.0-46.0"},{"result":186,"points":1,"place":4,"phase":0,"sequence":27,"prices":[168,192,171,178,188,217,172,195,197,186],"times":[1179,725,684,655,758,766,1226,776,691,2928],"next_num":10,"trial_type":"ticket-choose","trial_index":47,"time_elapsed":1307212,"internal_node_id":"0.0-47.0"},{"result":163,"points":2,"place":1,"phase":0,"sequence":28,"prices":[175,187,176,209,180,188,163,165,154,208],"times":[2241,821,886,705,709,676,1359],"next_num":7,"trial_type":"ticket-choose","trial_index":48,"time_elapsed":1318118,"internal_node_id":"0.0-48.0"},{"result":167,"points":2,"place":1,"phase":0,"sequence":29,"prices":[175,186,178,212,179,187,167,169,209,153],"times":[51020,681,750,700,629,742,1261],"next_num":7,"trial_type":"ticket-choose","trial_index":49,"time_elapsed":1379593,"internal_node_id":"0.0-49.0"},{"result":153,"points":3,"place":0,"phase":0,"sequence":30,"prices":[175,187,167,212,179,187,178,169,208,153],"times":[1218,740,1347,729,608,819,574,1844,627,1120],"next_num":10,"trial_type":"ticket-choose","trial_index":50,"time_elapsed":1396210,"internal_node_id":"0.0-50.0"},{"result":152,"points":3,"place":0,"phase":0,"sequence":31,"prices":[200,181,203,152,175,171,160,154,176,191],"times":[36253,1150,615,1188],"next_num":4,"trial_type":"ticket-choose","trial_index":51,"time_elapsed":1438791,"internal_node_id":"0.0-51.0"},{"result":158,"points":2,"place":1,"phase":0,"sequence":32,"prices":[175,186,177,209,181,188,158,167,208,154],"times":[2890,629,679,681,618,667,25256],"next_num":7,"trial_type":"ticket-choose","trial_index":52,"time_elapsed":1474007,"internal_node_id":"0.0-52.0"},{"result":163,"points":3,"place":0,"phase":0,"sequence":33,"prices":[168,199,196,198,185,195,227,163,177,166],"times":[1422,595,684,548,581,588,635,1381],"next_num":8,"trial_type":"ticket-choose","trial_index":53,"time_elapsed":1485421,"internal_node_id":"0.0-53.0"},{"result":155,"points":2,"place":1,"phase":0,"sequence":34,"prices":[181,155,148,161,168,187,172,199,176,194],"times":[2487,2685],"next_num":2,"trial_type":"ticket-choose","trial_index":54,"time_elapsed":1493478,"internal_node_id":"0.0-54.0"},{"result":158,"points":2,"place":1,"phase":0,"sequence":35,"prices":[176,185,177,218,180,186,158,166,209,154],"times":[1066,708,715,852,622,735,1214],"next_num":7,"trial_type":"ticket-choose","trial_index":55,"time_elapsed":1503253,"internal_node_id":"0.0-55.0"},{"result":157,"points":3,"place":0,"phase":0,"sequence":36,"prices":[201,187,157,184,198,179,188,185,178,170],"times":[1352,718,1042],"next_num":3,"trial_type":"ticket-choose","trial_index":56,"time_elapsed":1511608,"internal_node_id":"0.0-56.0"},{"result":158,"points":2,"place":1,"phase":0,"sequence":37,"prices":[176,185,158,217,180,186,177,166,209,154],"times":[6482,707,1058],"next_num":3,"trial_type":"ticket-choose","trial_index":57,"time_elapsed":1522641,"internal_node_id":"0.0-57.0"},{"result":154,"points":3,"place":0,"phase":0,"sequence":38,"prices":[188,200,165,172,198,174,177,154,177,180],"times":[1556,846,1662,642,612,603,541,1153],"next_num":8,"trial_type":"ticket-choose","trial_index":58,"time_elapsed":1535271,"internal_node_id":"0.0-58.0"},{"result":154,"points":2,"place":1,"phase":0,"sequence":39,"prices":[168,154,172,185,195,144,184,211,177,227],"times":[2249,1002],"next_num":2,"trial_type":"ticket-choose","trial_index":59,"time_elapsed":1541193,"internal_node_id":"0.0-59.0"},{"result":185,"points":1,"place":4,"phase":0,"sequence":40,"prices":[169,196,170,184,187,211,171,201,202,185],"times":[3149,886,797,630,581,724,586,1002,595,900],"next_num":10,"trial_type":"ticket-choose","trial_index":60,"time_elapsed":1555739,"internal_node_id":"0.0-60.0"},{"result":158,"points":2,"place":1,"phase":0,"sequence":41,"prices":[175,186,158,211,180,187,177,166,209,153],"times":[1996,676,1003],"next_num":3,"trial_type":"ticket-choose","trial_index":61,"time_elapsed":1561950,"internal_node_id":"0.0-61.0"},{"result":163,"points":2,"place":1,"phase":0,"sequence":42,"prices":[174,186,163,212,181,187,176,166,153,209],"times":[17054,612,1017],"next_num":3,"trial_type":"ticket-choose","trial_index":62,"time_elapsed":1583332,"internal_node_id":"0.0-62.0"},{"result":177,"points":1,"place":3,"phase":0,"sequence":43,"prices":[181,215,169,147,182,193,177,184,176,179],"times":[1587,743,723,662,1738,707,933],"next_num":7,"trial_type":"ticket-choose","trial_index":63,"time_elapsed":1596634,"internal_node_id":"0.0-63.0"},{"result":156,"points":3,"place":0,"phase":0,"sequence":44,"prices":[174,186,167,211,181,188,178,168,208,156],"times":[1290,885,1130,622,852,1069,806,2847,775,1007],"next_num":10,"trial_type":"ticket-choose","trial_index":64,"time_elapsed":1612923,"internal_node_id":"0.0-64.0"},{"result":158,"points":2,"place":1,"phase":0,"sequence":45,"prices":[176,187,177,225,181,187,158,165,208,153],"times":[1838,717,710,710,710,670,1039],"next_num":7,"trial_type":"ticket-choose","trial_index":65,"time_elapsed":1623920,"internal_node_id":"0.0-65.0"},{"result":157,"points":3,"place":0,"phase":0,"sequence":46,"prices":[157,191,165,175,182,203,170,195,200,176],"times":[1518],"next_num":1,"trial_type":"ticket-choose","trial_index":66,"time_elapsed":1628148,"internal_node_id":"0.0-66.0"},{"result":158,"points":2,"place":1,"phase":0,"sequence":47,"prices":[176,187,158,210,181,187,177,165,208,153],"times":[2277,680,1061],"next_num":3,"trial_type":"ticket-choose","trial_index":67,"time_elapsed":1635144,"internal_node_id":"0.0-67.0"},{"result":156,"points":3,"place":0,"phase":0,"sequence":48,"prices":[156,201,162,166,185,214,165,202,204,179],"times":[1526],"next_num":1,"trial_type":"ticket-choose","trial_index":68,"time_elapsed":1640523,"internal_node_id":"0.0-68.0"},{"result":159,"points":1,"place":2,"phase":0,"sequence":49,"prices":[180,159,149,175,185,141,163,174,178,207],"times":[2571,1012],"next_num":2,"trial_type":"ticket-choose","trial_index":69,"time_elapsed":1647643,"internal_node_id":"0.0-69.0"},{"responses":[{"value":0,"offby":0,"category":"$106 - $134","category_index":0},{"value":0,"offby":-1,"category":"$135 - $150","category_index":1},{"value":2,"offby":-1,"category":"$151 - $165","category_index":2},{"value":11,"offby":5,"category":"$166 - $180","category_index":3},{"value":5,"offby":-1,"category":"$181 - $195","category_index":4},{"value":2,"offby":-1,"category":"$196 - $210","category_index":5},{"value":0,"offby":-1,"category":"$211 - $225","category_index":6}],"phase":0,"number":1,"trial_type":"bar-choose","trial_index":70,"time_elapsed":1702186,"internal_node_id":"0.0-70.0"},{"rt":7409,"url":"\/tickets\/utils\/start2.html","trial_type":"html","trial_index":71,"time_elapsed":1710722,"internal_node_id":"0.0-71.0"},{"trial_type":"number-animation","trial_index":72,"time_elapsed":1724278,"internal_node_id":"0.0-72.0"},{"phase":1,"sequence":0,"avg":182,"response":166,"trial_type":"training_avg","trial_index":73,"time_elapsed":1737086,"internal_node_id":"0.0-73.0"},{"trial_type":"number-animation","trial_index":74,"time_elapsed":1748252,"internal_node_id":"0.0-74.0"},{"phase":1,"sequence":1,"avg":188,"response":179,"trial_type":"training_avg","trial_index":75,"time_elapsed":1759081,"internal_node_id":"0.0-75.0"},{"trial_type":"number-animation","trial_index":76,"time_elapsed":1772547,"internal_node_id":"0.0-76.0"},{"phase":1,"sequence":2,"avg":176,"response":169,"trial_type":"training_avg","trial_index":77,"time_elapsed":1795645,"internal_node_id":"0.0-77.0"},{"trial_type":"number-animation","trial_index":78,"time_elapsed":1806409,"internal_node_id":"0.0-78.0"},{"phase":1,"sequence":3,"avg":180,"response":177,"trial_type":"training_avg","trial_index":79,"time_elapsed":1830132,"internal_node_id":"0.0-79.0"},{"trial_type":"number-animation","trial_index":80,"time_elapsed":1840617,"internal_node_id":"0.0-80.0"},{"phase":1,"sequence":4,"avg":174,"response":179,"trial_type":"training_avg","trial_index":81,"time_elapsed":1852975,"internal_node_id":"0.0-81.0"},{"responses":[{"value":0,"offby":-1,"category":"$90 - $120","category_index":0},{"value":2,"offby":-1,"category":"$121 - $145","category_index":1},{"value":7,"offby":4,"category":"$146 - $170","category_index":2},{"value":7,"offby":1,"category":"$171 - $195","category_index":3},{"value":2,"offby":-2,"category":"$196 - $220","category_index":4},{"value":2,"offby":0,"category":"$221 - $245","category_index":5},{"value":0,"offby":-1,"category":"$246 - $270","category_index":6}],"phase":1,"number":0,"trial_type":"bar-choose","trial_index":82,"time_elapsed":1900119,"internal_node_id":"0.0-82.0"},{"rt":17478,"url":"\/tickets\/utils\/testing2.html","trial_type":"html","trial_index":83,"time_elapsed":1918909,"internal_node_id":"0.0-83.0"},{"phase":1,"order":[23,35,21,36,12,49,28,31,17,48,47,46,15,10,14,30,26,1,5,20,3,4,41,16,18,13,25,45,19,27,37,33,24,32,8,22,9,34,42,7,39,38,0,6,44,40,11,29,43,2],"trial_type":"store_order","trial_index":84,"time_elapsed":1919915,"internal_node_id":"0.0-84.0"},{"result":136,"points":2,"place":1,"phase":1,"sequence":0,"prices":[173,191,174,270,180,193,136,153,239,129],"times":[9124,687,707,662,801,1167,1094],"next_num":7,"trial_type":"ticket-choose","trial_index":85,"time_elapsed":1938715,"internal_node_id":"0.0-85.0"},{"result":155,"points":1,"place":2,"phase":1,"sequence":1,"prices":[155,129,164,189,210,108,187,241,174,275],"times":[1479],"next_num":1,"trial_type":"ticket-choose","trial_index":86,"time_elapsed":1943306,"internal_node_id":"0.0-86.0"},{"result":136,"points":2,"place":1,"phase":1,"sequence":2,"prices":[170,192,174,242,181,196,136,153,236,128],"times":[1267,844,685,664,629,620,1213],"next_num":7,"trial_type":"ticket-choose","trial_index":87,"time_elapsed":1952863,"internal_node_id":"0.0-87.0"},{"result":149,"points":2,"place":1,"phase":1,"sequence":3,"prices":[196,221,149,164,216,167,175,128,176,181],"times":[4004,1901,1149],"next_num":3,"trial_type":"ticket-choose","trial_index":88,"time_elapsed":1962816,"internal_node_id":"0.0-88.0"},{"result":154,"points":2,"place":1,"phase":1,"sequence":4,"prices":[168,192,176,242,183,197,154,156,237,132],"times":[1359,630,588,766,653,638,1087],"next_num":7,"trial_type":"ticket-choose","trial_index":89,"time_elapsed":1973206,"internal_node_id":"0.0-89.0"},{"result":146,"points":1,"place":2,"phase":1,"sequence":5,"prices":[186,146,191,179,152,116,140,201,172,187],"times":[1197,1725],"next_num":2,"trial_type":"ticket-choose","trial_index":90,"time_elapsed":1978358,"internal_node_id":"0.0-90.0"},{"result":157,"points":3,"place":0,"phase":1,"sequence":6,"prices":[157,213,159,187,194,242,161,222,225,189],"times":[3158],"next_num":1,"trial_type":"ticket-choose","trial_index":91,"time_elapsed":1984916,"internal_node_id":"0.0-91.0"},{"result":117,"points":3,"place":0,"phase":1,"sequence":7,"prices":[117,161,120,147,153,259,144,191,195,149],"times":[1421],"next_num":1,"trial_type":"ticket-choose","trial_index":92,"time_elapsed":1989004,"internal_node_id":"0.0-92.0"},{"result":136,"points":2,"place":1,"phase":1,"sequence":8,"prices":[171,192,136,243,182,195,174,154,236,128],"times":[4131,628,990],"next_num":3,"trial_type":"ticket-choose","trial_index":93,"time_elapsed":1997372,"internal_node_id":"0.0-93.0"},{"result":114,"points":3,"place":0,"phase":1,"sequence":9,"prices":[182,249,159,114,184,205,175,189,172,178],"times":[1225,733,1036,1150],"next_num":4,"trial_type":"ticket-choose","trial_index":94,"time_elapsed":2005719,"internal_node_id":"0.0-94.0"},{"result":124,"points":3,"place":0,"phase":1,"sequence":10,"prices":[219,183,227,124,176,161,140,129,171,201],"times":[916,683,671,1058],"next_num":4,"trial_type":"ticket-choose","trial_index":95,"time_elapsed":2012053,"internal_node_id":"0.0-95.0"},{"result":136,"points":3,"place":0,"phase":1,"sequence":11,"prices":[240,188,273,207,250,136,217,170,171,236],"times":[1158,776,685,1030,696,1235],"next_num":6,"trial_type":"ticket-choose","trial_index":96,"time_elapsed":2021046,"internal_node_id":"0.0-96.0"},{"result":154,"points":2,"place":1,"phase":1,"sequence":12,"prices":[170,193,176,245,178,194,154,159,236,126],"times":[1369,829,716,764,866,715,1359],"next_num":7,"trial_type":"ticket-choose","trial_index":97,"time_elapsed":2031285,"internal_node_id":"0.0-97.0"},{"result":154,"points":2,"place":1,"phase":1,"sequence":13,"prices":[169,193,154,255,178,194,176,158,239,126],"times":[1235,773,3286],"next_num":3,"trial_type":"ticket-choose","trial_index":98,"time_elapsed":2039202,"internal_node_id":"0.0-98.0"},{"result":125,"points":3,"place":0,"phase":1,"sequence":14,"prices":[169,192,176,244,178,194,154,159,237,125],"times":[1081,687,645,695,623,685,1514,964,763,958],"next_num":10,"trial_type":"ticket-choose","trial_index":99,"time_elapsed":2052525,"internal_node_id":"0.0-99.0"},{"result":135,"points":3,"place":0,"phase":1,"sequence":15,"prices":[135,202,150,169,183,225,160,211,220,172],"times":[1144],"next_num":1,"trial_type":"ticket-choose","trial_index":100,"time_elapsed":2056040,"internal_node_id":"0.0-100.0"},{"result":124,"points":3,"place":0,"phase":1,"sequence":16,"prices":[124,220,136,165,185,234,143,225,228,179],"times":[1597],"next_num":1,"trial_type":"ticket-choose","trial_index":101,"time_elapsed":2060052,"internal_node_id":"0.0-101.0"},{"result":146,"points":2,"place":1,"phase":1,"sequence":17,"prices":[169,193,146,237,180,196,172,150,129,236],"times":[1204,876,1374],"next_num":3,"trial_type":"ticket-choose","trial_index":102,"time_elapsed":2066130,"internal_node_id":"0.0-102.0"},{"result":146,"points":2,"place":1,"phase":1,"sequence":18,"prices":[171,195,172,242,179,196,146,150,128,235],"times":[1216,578,606,751,685,694,1157],"next_num":7,"trial_type":"ticket-choose","trial_index":103,"time_elapsed":2074984,"internal_node_id":"0.0-103.0"},{"result":136,"points":2,"place":1,"phase":1,"sequence":19,"prices":[169,192,174,246,180,195,136,152,238,126],"times":[1871,720,882,975,796,563,1046],"next_num":7,"trial_type":"ticket-choose","trial_index":104,"time_elapsed":2085683,"internal_node_id":"0.0-104.0"},{"result":146,"points":2,"place":1,"phase":1,"sequence":20,"prices":[170,193,146,268,178,195,172,149,126,241],"times":[2626,641,1180],"next_num":3,"trial_type":"ticket-choose","trial_index":105,"time_elapsed":2092500,"internal_node_id":"0.0-105.0"},{"result":146,"points":2,"place":1,"phase":1,"sequence":21,"prices":[172,191,176,272,179,194,146,152,126,235],"times":[1294,638,620,877,573,645,1182],"next_num":7,"trial_type":"ticket-choose","trial_index":106,"time_elapsed":2101477,"internal_node_id":"0.0-106.0"},{"result":131,"points":2,"place":1,"phase":1,"sequence":22,"prices":[221,234,131,136,132,149,154,90,176,173],"times":[1325,662,10025],"next_num":3,"trial_type":"ticket-choose","trial_index":107,"time_elapsed":2116248,"internal_node_id":"0.0-107.0"},{"result":136,"points":2,"place":1,"phase":1,"sequence":23,"prices":[171,192,136,265,180,194,174,152,239,127],"times":[937,607,1058],"next_num":3,"trial_type":"ticket-choose","trial_index":108,"time_elapsed":2121516,"internal_node_id":"0.0-108.0"},{"result":136,"points":2,"place":1,"phase":1,"sequence":24,"prices":[173,194,136,239,182,200,174,150,236,127],"times":[1018,612,1047],"next_num":3,"trial_type":"ticket-choose","trial_index":109,"time_elapsed":2126992,"internal_node_id":"0.0-109.0"},{"result":154,"points":2,"place":1,"phase":1,"sequence":25,"prices":[170,190,176,251,183,192,154,157,236,131],"times":[1459,4253,633,812,586,633,1738],"next_num":7,"trial_type":"ticket-choose","trial_index":110,"time_elapsed":2140489,"internal_node_id":"0.0-110.0"},{"result":132,"points":3,"place":0,"phase":1,"sequence":26,"prices":[132,222,144,153,190,248,151,224,228,179],"times":[1248],"next_num":1,"trial_type":"ticket-choose","trial_index":111,"time_elapsed":2144542,"internal_node_id":"0.0-111.0"},{"result":149,"points":3,"place":0,"phase":1,"sequence":27,"prices":[244,203,196,189,154,206,197,149,171,159],"times":[1412,629,724,644,2075,620,644,1095],"next_num":8,"trial_type":"ticket-choose","trial_index":112,"time_elapsed":2155987,"internal_node_id":"0.0-112.0"},{"result":136,"points":2,"place":1,"phase":1,"sequence":28,"prices":[172,190,136,270,179,192,174,152,237,129],"times":[1337,600,981],"next_num":3,"trial_type":"ticket-choose","trial_index":113,"time_elapsed":2161613,"internal_node_id":"0.0-113.0"},{"result":192,"points":1,"place":4,"phase":1,"sequence":29,"prices":[157,205,161,175,197,254,165,210,214,192],"times":[1878,693,653,831,1164,709,1376,940,790,1439],"next_num":10,"trial_type":"ticket-choose","trial_index":114,"time_elapsed":2176737,"internal_node_id":"0.0-114.0"},{"result":145,"points":2,"place":1,"phase":1,"sequence":30,"prices":[216,206,158,145,224,185,124,149,175,162],"times":[2063,590,2542,1319],"next_num":4,"trial_type":"ticket-choose","trial_index":115,"time_elapsed":2186098,"internal_node_id":"0.0-115.0"},{"result":137,"points":3,"place":0,"phase":1,"sequence":31,"prices":[137,187,152,156,166,231,155,194,202,160],"times":[1327],"next_num":1,"trial_type":"ticket-choose","trial_index":116,"time_elapsed":2189826,"internal_node_id":"0.0-116.0"},{"result":142,"points":3,"place":0,"phase":1,"sequence":32,"prices":[142,207,171,182,190,269,180,218,256,188],"times":[2205],"next_num":1,"trial_type":"ticket-choose","trial_index":117,"time_elapsed":2194471,"internal_node_id":"0.0-117.0"},{"result":143,"points":3,"place":0,"phase":1,"sequence":33,"prices":[143,206,153,194,201,267,168,208,210,196],"times":[1687],"next_num":1,"trial_type":"ticket-choose","trial_index":118,"time_elapsed":2198592,"internal_node_id":"0.0-118.0"},{"result":154,"points":2,"place":1,"phase":1,"sequence":34,"prices":[168,192,154,237,182,196,176,156,235,133],"times":[1740,721,953],"next_num":3,"trial_type":"ticket-choose","trial_index":119,"time_elapsed":2204322,"internal_node_id":"0.0-119.0"},{"result":136,"points":2,"place":1,"phase":1,"sequence":35,"prices":[172,194,174,243,182,193,136,150,237,126],"times":[3890,672,803,29065,604,615,1060],"next_num":7,"trial_type":"ticket-choose","trial_index":120,"time_elapsed":2244496,"internal_node_id":"0.0-120.0"},{"result":154,"points":2,"place":1,"phase":1,"sequence":36,"prices":[169,191,154,268,183,197,176,155,236,133],"times":[1469,622,1445],"next_num":3,"trial_type":"ticket-choose","trial_index":121,"time_elapsed":2250570,"internal_node_id":"0.0-121.0"},{"result":130,"points":2,"place":1,"phase":1,"sequence":37,"prices":[181,130,116,142,157,193,165,218,173,207],"times":[1275,1106],"next_num":2,"trial_type":"ticket-choose","trial_index":122,"time_elapsed":2255345,"internal_node_id":"0.0-122.0"},{"result":193,"points":1,"place":4,"phase":1,"sequence":38,"prices":[263,165,224,214,105,230,215,185,177,193],"times":[817,740,630,631,552,1293,654,1509,2369,595],"next_num":10,"trial_type":"ticket-choose","trial_index":123,"time_elapsed":2269422,"internal_node_id":"0.0-123.0"},{"result":146,"points":2,"place":1,"phase":1,"sequence":39,"prices":[171,191,172,268,179,194,146,150,127,239],"times":[6603,603,659,725,675,780,1151],"next_num":7,"trial_type":"ticket-choose","trial_index":124,"time_elapsed":2284074,"internal_node_id":"0.0-124.0"},{"result":153,"points":2,"place":1,"phase":1,"sequence":40,"prices":[197,153,181,215,150,155,164,247,177,162],"times":[3060,1091],"next_num":2,"trial_type":"ticket-choose","trial_index":125,"time_elapsed":2290413,"internal_node_id":"0.0-125.0"},{"result":156,"points":1,"place":2,"phase":1,"sequence":41,"prices":[156,218,212,216,191,210,275,146,174,152],"times":[1931],"next_num":1,"trial_type":"ticket-choose","trial_index":126,"time_elapsed":2294543,"internal_node_id":"0.0-126.0"},{"result":146,"points":2,"place":1,"phase":1,"sequence":42,"prices":[173,191,146,242,178,194,172,152,126,235],"times":[1439,652,1122],"next_num":3,"trial_type":"ticket-choose","trial_index":127,"time_elapsed":2300426,"internal_node_id":"0.0-127.0"},{"result":146,"points":2,"place":1,"phase":1,"sequence":43,"prices":[168,191,172,240,183,193,146,151,125,238],"times":[1328,611,4676,6564,4230,572,991],"next_num":7,"trial_type":"ticket-choose","trial_index":128,"time_elapsed":2322826,"internal_node_id":"0.0-128.0"},{"result":138,"points":1,"place":2,"phase":1,"sequence":44,"prices":[181,138,118,170,190,101,146,169,175,233],"times":[2057,1025],"next_num":2,"trial_type":"ticket-choose","trial_index":129,"time_elapsed":2329657,"internal_node_id":"0.0-129.0"},{"result":119,"points":3,"place":0,"phase":1,"sequence":45,"prices":[198,119,169,141,195,233,136,208,177,217],"times":[1452,984],"next_num":2,"trial_type":"ticket-choose","trial_index":130,"time_elapsed":2334941,"internal_node_id":"0.0-130.0"},{"result":154,"points":2,"place":1,"phase":1,"sequence":46,"prices":[169,194,154,271,178,201,176,158,236,127],"times":[2171,715,1035],"next_num":3,"trial_type":"ticket-choose","trial_index":131,"time_elapsed":2341400,"internal_node_id":"0.0-131.0"},{"result":121,"points":3,"place":0,"phase":1,"sequence":47,"prices":[121,191,128,141,166,217,129,196,202,157],"times":[1106],"next_num":1,"trial_type":"ticket-choose","trial_index":132,"time_elapsed":2344634,"internal_node_id":"0.0-132.0"},{"result":135,"points":3,"place":0,"phase":1,"sequence":48,"prices":[221,193,135,188,217,179,196,190,175,159],"times":[1346,692,1038],"next_num":3,"trial_type":"ticket-choose","trial_index":133,"time_elapsed":2350244,"internal_node_id":"0.0-133.0"},{"result":146,"points":2,"place":1,"phase":1,"sequence":49,"prices":[168,191,146,252,183,193,172,153,126,238],"times":[1666,780,1467],"next_num":3,"trial_type":"ticket-choose","trial_index":134,"time_elapsed":2356774,"internal_node_id":"0.0-134.0"},{"responses":[{"value":0,"offby":-1,"category":"$90 - $120","category_index":0},{"value":2,"offby":-1,"category":"$121 - $145","category_index":1},{"value":6,"offby":3,"category":"$146 - $170","category_index":2},{"value":8,"offby":2,"category":"$171 - $195","category_index":3},{"value":2,"offby":-2,"category":"$196 - $220","category_index":4},{"value":2,"offby":0,"category":"$221 - $245","category_index":5},{"value":0,"offby":-1,"category":"$246 - $270","category_index":6}],"phase":1,"number":1,"trial_type":"bar-choose","trial_index":135,"time_elapsed":2406056,"internal_node_id":"0.0-135.0"},{"special_comment":"Theywere pretty consistent on the lower ticket price.","trial_type":"special_sequence","trial_index":136,"time_elapsed":2428560,"internal_node_id":"0.0-136.0"},{"during":"Nothing","bonus":300,"trial_type":"final","trial_index":137,"time_elapsed":2487393,"internal_node_id":"0.0-137.0"}],"bonus":300}