{"start_time":"2017-02-22 10:55:51","end_time":"2017-02-22 11:25:52","points_phase0":111,"points_phase1":103,"phase_order":1,"age":68,"gender":"m","tries":1,"during":"Nothing","worker_id":"A14ADQ7RUN6TDY","assignment_id":"3SEPORI8WOSMBGEGYWNCTUVR8QJZAF","data":[{"rt":14856,"url":"\/tickets\/utils\/consent.html","trial_type":"html","trial_index":0,"time_elapsed":15836,"internal_node_id":"0.0-0.0"},{"age":68,"gender":"m","trial_type":"age","trial_index":1,"time_elapsed":24721,"internal_node_id":"0.0-1.0"},{"worker_id":"A14ADQ7RUN6TDY","trial_type":"workerid","trial_index":2,"time_elapsed":42373,"internal_node_id":"0.0-2.0"},{"tries":1,"trial_type":"instructions_check","trial_index":3,"time_elapsed":163172,"internal_node_id":"0.0-3.0"},{"rt":17610,"url":"\/tickets\/utils\/start.html","trial_type":"html","trial_index":4,"time_elapsed":181977,"internal_node_id":"0.0-4.0"},{"trial_type":"number-animation","trial_index":5,"time_elapsed":199806,"internal_node_id":"0.0-5.0"},{"phase":0,"sequence":0,"avg":182,"response":160,"trial_type":"training_avg","trial_index":6,"time_elapsed":216885,"internal_node_id":"0.0-6.0"},{"trial_type":"number-animation","trial_index":7,"time_elapsed":234819,"internal_node_id":"0.0-7.0"},{"phase":0,"sequence":1,"avg":188,"response":181,"trial_type":"training_avg","trial_index":8,"time_elapsed":249897,"internal_node_id":"0.0-8.0"},{"trial_type":"number-animation","trial_index":9,"time_elapsed":263682,"internal_node_id":"0.0-9.0"},{"phase":0,"sequence":2,"avg":176,"response":161,"trial_type":"training_avg","trial_index":10,"time_elapsed":273216,"internal_node_id":"0.0-10.0"},{"trial_type":"number-animation","trial_index":11,"time_elapsed":284650,"internal_node_id":"0.0-11.0"},{"phase":0,"sequence":3,"avg":180,"response":179,"trial_type":"training_avg","trial_index":12,"time_elapsed":299052,"internal_node_id":"0.0-12.0"},{"trial_type":"number-animation","trial_index":13,"time_elapsed":311428,"internal_node_id":"0.0-13.0"},{"phase":0,"sequence":4,"avg":174,"response":164,"trial_type":"training_avg","trial_index":14,"time_elapsed":321696,"internal_node_id":"0.0-14.0"},{"responses":[{"value":0,"offby":-1,"category":"$90 - $120","category_index":0},{"value":2,"offby":-1,"category":"$121 - $145","category_index":1},{"value":5,"offby":2,"category":"$146 - $170","category_index":2},{"value":6,"offby":0,"category":"$171 - $195","category_index":3},{"value":4,"offby":0,"category":"$196 - $220","category_index":4},{"value":2,"offby":0,"category":"$221 - $245","category_index":5},{"value":1,"offby":0,"category":"$246 - $270","category_index":6}],"phase":0,"number":0,"trial_type":"bar-choose","trial_index":15,"time_elapsed":467108,"internal_node_id":"0.0-15.0"},{"rt":20883,"url":"\/tickets\/\/utils\/testing.html","trial_type":"html","trial_index":16,"time_elapsed":489175,"internal_node_id":"0.0-16.0"},{"phase":0,"order":[23,41,9,16,42,1,4,27,33,38,20,39,35,26,3,19,40,22,13,36,28,29,46,14,7,10,34,6,31,17,15,32,49,48,25,5,11,37,24,45,12,18,21,30,2,47,0,8,43,44],"trial_type":"store_order","trial_index":17,"time_elapsed":490178,"internal_node_id":"0.0-17.0"},{"result":165,"points":2,"place":1,"phase":0,"sequence":-1,"prices":[184,180,224,165,181,199,185,193,218,126],"times":[3836,2560,1451,4009],"next_num":4,"trial_type":"ticket-choose","trial_index":18,"time_elapsed":506605,"internal_node_id":"0.0-18.0"},{"rt":24048,"url":"\/tickets\/utils\/testing_after.html","trial_type":"html","trial_index":19,"time_elapsed":531826,"internal_node_id":"0.0-19.0"},{"result":124,"points":3,"place":0,"phase":0,"sequence":0,"prices":[219,183,227,124,176,161,140,129,171,201],"times":[4064,1318,1190,2578],"next_num":4,"trial_type":"ticket-choose","trial_index":20,"time_elapsed":550273,"internal_node_id":"0.0-20.0"},{"result":137,"points":3,"place":0,"phase":0,"sequence":1,"prices":[137,187,152,156,166,231,155,194,202,160],"times":[5435],"next_num":1,"trial_type":"ticket-choose","trial_index":21,"time_elapsed":559032,"internal_node_id":"0.0-21.0"},{"result":136,"points":2,"place":1,"phase":0,"sequence":2,"prices":[171,192,136,243,182,195,174,154,236,128],"times":[1889,880,1773],"next_num":3,"trial_type":"ticket-choose","trial_index":22,"time_elapsed":571342,"internal_node_id":"0.0-22.0"},{"result":136,"points":2,"place":1,"phase":0,"sequence":3,"prices":[172,190,136,270,179,192,174,152,237,129],"times":[1689,1030,5667],"next_num":3,"trial_type":"ticket-choose","trial_index":23,"time_elapsed":585232,"internal_node_id":"0.0-23.0"},{"result":116,"points":3,"place":0,"phase":0,"sequence":4,"prices":[186,146,191,179,152,116,140,201,172,187],"times":[1341,983,876,901,1985,1576],"next_num":6,"trial_type":"ticket-choose","trial_index":24,"time_elapsed":597969,"internal_node_id":"0.0-24.0"},{"result":136,"points":2,"place":1,"phase":0,"sequence":5,"prices":[172,194,174,243,182,193,136,150,237,126],"times":[1500,1228,760,794,812,1650,4402],"next_num":7,"trial_type":"ticket-choose","trial_index":25,"time_elapsed":614064,"internal_node_id":"0.0-25.0"},{"result":136,"points":2,"place":1,"phase":0,"sequence":6,"prices":[169,192,174,246,180,195,136,152,238,126],"times":[1255,781,848,781,822,800,3021],"next_num":7,"trial_type":"ticket-choose","trial_index":26,"time_elapsed":627525,"internal_node_id":"0.0-26.0"},{"result":131,"points":2,"place":1,"phase":0,"sequence":7,"prices":[221,234,131,136,132,149,154,90,176,173],"times":[1248,723,2037],"next_num":3,"trial_type":"ticket-choose","trial_index":27,"time_elapsed":635444,"internal_node_id":"0.0-27.0"},{"result":126,"points":3,"place":0,"phase":0,"sequence":8,"prices":[170,193,176,245,178,194,154,159,236,126],"times":[3252,3066,680,737,669,680,2004,4399,1598,2668],"next_num":10,"trial_type":"ticket-choose","trial_index":28,"time_elapsed":662146,"internal_node_id":"0.0-28.0"},{"result":136,"points":3,"place":0,"phase":0,"sequence":9,"prices":[240,188,273,207,250,136,217,170,171,236],"times":[2182,893,921,812,1414,3274],"next_num":6,"trial_type":"ticket-choose","trial_index":29,"time_elapsed":677080,"internal_node_id":"0.0-29.0"},{"result":162,"points":1,"place":3,"phase":0,"sequence":10,"prices":[197,153,181,215,150,155,164,247,177,162],"times":[1407,2151,648,761,6168,3180,3503,1254,1160,3306],"next_num":11,"trial_type":"ticket-choose","trial_index":30,"time_elapsed":708718,"internal_node_id":"0.0-30.0"},{"result":126,"points":3,"place":0,"phase":0,"sequence":11,"prices":[173,191,146,242,178,194,172,152,126,235],"times":[1420,914,4591,694,637,821,1196,3297,1386],"next_num":9,"trial_type":"ticket-choose","trial_index":31,"time_elapsed":728408,"internal_node_id":"0.0-31.0"},{"result":131,"points":3,"place":0,"phase":0,"sequence":12,"prices":[170,190,176,251,183,192,154,157,236,131],"times":[1260,628,634,682,863,714,1661,1349,887,1511],"next_num":10,"trial_type":"ticket-choose","trial_index":32,"time_elapsed":743437,"internal_node_id":"0.0-32.0"},{"result":146,"points":2,"place":1,"phase":0,"sequence":13,"prices":[168,191,172,240,183,193,146,151,125,238],"times":[1217,930,745,721,741,1045,7345],"next_num":7,"trial_type":"ticket-choose","trial_index":33,"time_elapsed":761131,"internal_node_id":"0.0-33.0"},{"result":127,"points":3,"place":0,"phase":0,"sequence":14,"prices":[171,192,136,265,180,194,174,152,239,127],"times":[1237,1107,590,736,724,717,807,1997,909,1202],"next_num":10,"trial_type":"ticket-choose","trial_index":34,"time_elapsed":775921,"internal_node_id":"0.0-34.0"},{"result":189,"points":1,"place":4,"phase":0,"sequence":15,"prices":[157,213,159,187,194,242,161,222,225,189],"times":[1544,801,757,731,721,807,1717,1208,1126,2198],"next_num":11,"trial_type":"ticket-choose","trial_index":35,"time_elapsed":795050,"internal_node_id":"0.0-35.0"},{"result":154,"points":2,"place":1,"phase":0,"sequence":16,"prices":[169,192,176,244,178,194,154,159,237,125],"times":[1612,719,738,850,828,932,2832],"next_num":7,"trial_type":"ticket-choose","trial_index":36,"time_elapsed":808981,"internal_node_id":"0.0-36.0"},{"result":117,"points":3,"place":0,"phase":0,"sequence":17,"prices":[117,161,120,147,153,259,144,191,195,149],"times":[3190],"next_num":1,"trial_type":"ticket-choose","trial_index":37,"time_elapsed":815022,"internal_node_id":"0.0-37.0"},{"result":196,"points":1,"place":4,"phase":0,"sequence":18,"prices":[143,206,153,194,201,267,168,208,210,196],"times":[2012,644,602,654,862,636,1098,898,1251,1581],"next_num":11,"trial_type":"ticket-choose","trial_index":38,"time_elapsed":829821,"internal_node_id":"0.0-38.0"},{"result":138,"points":1,"place":2,"phase":0,"sequence":19,"prices":[181,138,118,170,190,101,146,169,175,233],"times":[1590,1115],"next_num":2,"trial_type":"ticket-choose","trial_index":39,"time_elapsed":835569,"internal_node_id":"0.0-39.0"},{"result":158,"points":1,"place":2,"phase":0,"sequence":20,"prices":[169,194,154,271,178,201,176,158,236,127],"times":[2412,641,2163,644,651,1029,751,6193],"next_num":8,"trial_type":"ticket-choose","trial_index":40,"time_elapsed":854482,"internal_node_id":"0.0-40.0"},{"result":136,"points":2,"place":1,"phase":0,"sequence":21,"prices":[173,191,174,270,180,193,136,153,239,129],"times":[1571,953,692,767,724,782,1985],"next_num":7,"trial_type":"ticket-choose","trial_index":41,"time_elapsed":866142,"internal_node_id":"0.0-41.0"},{"result":146,"points":2,"place":1,"phase":0,"sequence":22,"prices":[170,193,146,268,178,195,172,149,126,241],"times":[1088,636,5549],"next_num":3,"trial_type":"ticket-choose","trial_index":42,"time_elapsed":876384,"internal_node_id":"0.0-42.0"},{"result":192,"points":1,"place":4,"phase":0,"sequence":23,"prices":[157,205,161,175,197,254,165,210,214,192],"times":[1431,735,985,693,749,748,756,1017,811,1715],"next_num":10,"trial_type":"ticket-choose","trial_index":43,"time_elapsed":890653,"internal_node_id":"0.0-43.0"},{"result":150,"points":1,"place":2,"phase":0,"sequence":24,"prices":[169,193,146,237,180,196,172,150,129,236],"times":[1092,579,626,685,740,657,766,1346],"next_num":8,"trial_type":"ticket-choose","trial_index":44,"time_elapsed":901380,"internal_node_id":"0.0-44.0"},{"result":105,"points":3,"place":0,"phase":0,"sequence":25,"prices":[263,165,224,214,105,230,215,185,177,193],"times":[1053,1279,720,736,1210],"next_num":5,"trial_type":"ticket-choose","trial_index":45,"time_elapsed":909749,"internal_node_id":"0.0-45.0"},{"result":146,"points":2,"place":1,"phase":0,"sequence":26,"prices":[171,195,172,242,179,196,146,150,128,235],"times":[1065,744,701,729,706,839,1211],"next_num":7,"trial_type":"ticket-choose","trial_index":46,"time_elapsed":919580,"internal_node_id":"0.0-46.0"},{"result":116,"points":3,"place":0,"phase":0,"sequence":27,"prices":[181,130,116,142,157,193,165,218,173,207],"times":[1109,609,1445],"next_num":3,"trial_type":"ticket-choose","trial_index":47,"time_elapsed":925768,"internal_node_id":"0.0-47.0"},{"result":114,"points":3,"place":0,"phase":0,"sequence":28,"prices":[182,249,159,114,184,205,175,189,172,178],"times":[1074,728,1179,1824],"next_num":4,"trial_type":"ticket-choose","trial_index":48,"time_elapsed":933906,"internal_node_id":"0.0-48.0"},{"result":156,"points":1,"place":2,"phase":0,"sequence":29,"prices":[168,192,154,237,182,196,176,156,235,133],"times":[1841,657,614,754,705,733,1050,1484],"next_num":8,"trial_type":"ticket-choose","trial_index":49,"time_elapsed":945925,"internal_node_id":"0.0-49.0"},{"result":149,"points":2,"place":1,"phase":0,"sequence":30,"prices":[196,221,149,164,216,167,175,128,176,181],"times":[978,965,3283],"next_num":3,"trial_type":"ticket-choose","trial_index":50,"time_elapsed":954105,"internal_node_id":"0.0-50.0"},{"result":146,"points":2,"place":1,"phase":0,"sequence":31,"prices":[168,191,146,252,183,193,172,153,126,238],"times":[1321,868,1545],"next_num":3,"trial_type":"ticket-choose","trial_index":51,"time_elapsed":961024,"internal_node_id":"0.0-51.0"},{"result":136,"points":2,"place":1,"phase":0,"sequence":32,"prices":[173,194,136,239,182,200,174,150,236,127],"times":[1143,765,1421],"next_num":3,"trial_type":"ticket-choose","trial_index":52,"time_elapsed":967306,"internal_node_id":"0.0-52.0"},{"result":155,"points":1,"place":2,"phase":0,"sequence":33,"prices":[169,191,154,268,183,197,176,155,236,133],"times":[991,803,1546,724,719,698,791,1142],"next_num":8,"trial_type":"ticket-choose","trial_index":53,"time_elapsed":978701,"internal_node_id":"0.0-53.0"},{"result":158,"points":1,"place":2,"phase":0,"sequence":34,"prices":[169,193,154,255,178,194,176,158,239,126],"times":[950,1579,638,727,665,660,838,1323],"next_num":8,"trial_type":"ticket-choose","trial_index":54,"time_elapsed":990067,"internal_node_id":"0.0-54.0"},{"result":146,"points":3,"place":0,"phase":0,"sequence":35,"prices":[156,218,212,216,191,210,275,146,174,152],"times":[2387,684,691,668,654,729,814,1511],"next_num":8,"trial_type":"ticket-choose","trial_index":55,"time_elapsed":1003167,"internal_node_id":"0.0-55.0"},{"result":149,"points":3,"place":0,"phase":0,"sequence":36,"prices":[244,203,196,189,154,206,197,149,171,159],"times":[1044,906,781,734,694,784,793,1195],"next_num":8,"trial_type":"ticket-choose","trial_index":56,"time_elapsed":1014028,"internal_node_id":"0.0-56.0"},{"result":136,"points":2,"place":1,"phase":0,"sequence":37,"prices":[170,192,174,242,181,196,136,153,236,128],"times":[2012,648,640,713,836,708,1265],"next_num":7,"trial_type":"ticket-choose","trial_index":57,"time_elapsed":1024552,"internal_node_id":"0.0-57.0"},{"result":154,"points":2,"place":1,"phase":0,"sequence":38,"prices":[168,192,176,242,183,197,154,156,237,132],"times":[972,706,713,845,791,757,1436],"next_num":7,"trial_type":"ticket-choose","trial_index":58,"time_elapsed":1034670,"internal_node_id":"0.0-58.0"},{"result":129,"points":2,"place":1,"phase":0,"sequence":39,"prices":[155,129,164,189,210,108,187,241,174,275],"times":[1577,1155],"next_num":2,"trial_type":"ticket-choose","trial_index":59,"time_elapsed":1040425,"internal_node_id":"0.0-59.0"},{"result":119,"points":3,"place":0,"phase":0,"sequence":40,"prices":[198,119,169,141,195,233,136,208,177,217],"times":[1272,1080],"next_num":2,"trial_type":"ticket-choose","trial_index":60,"time_elapsed":1045852,"internal_node_id":"0.0-60.0"},{"result":146,"points":2,"place":1,"phase":0,"sequence":41,"prices":[171,191,172,268,179,194,146,150,127,239],"times":[1789,744,787,817,687,761,3535],"next_num":7,"trial_type":"ticket-choose","trial_index":61,"time_elapsed":1058921,"internal_node_id":"0.0-61.0"},{"result":146,"points":2,"place":1,"phase":0,"sequence":42,"prices":[172,191,176,272,179,194,146,152,126,235],"times":[1078,652,702,692,860,915,1350],"next_num":7,"trial_type":"ticket-choose","trial_index":62,"time_elapsed":1068966,"internal_node_id":"0.0-62.0"},{"result":135,"points":3,"place":0,"phase":0,"sequence":43,"prices":[221,193,135,188,217,179,196,190,175,159],"times":[1543,2420,1418],"next_num":3,"trial_type":"ticket-choose","trial_index":63,"time_elapsed":1078217,"internal_node_id":"0.0-63.0"},{"result":132,"points":3,"place":0,"phase":0,"sequence":44,"prices":[132,222,144,153,190,248,151,224,228,179],"times":[1655],"next_num":1,"trial_type":"ticket-choose","trial_index":64,"time_elapsed":1082929,"internal_node_id":"0.0-64.0"},{"result":145,"points":2,"place":1,"phase":0,"sequence":45,"prices":[216,206,158,145,224,185,124,149,175,162],"times":[1826,894,1330,1086],"next_num":4,"trial_type":"ticket-choose","trial_index":65,"time_elapsed":1091375,"internal_node_id":"0.0-65.0"},{"result":124,"points":3,"place":0,"phase":0,"sequence":46,"prices":[124,220,136,165,185,234,143,225,228,179],"times":[1446],"next_num":1,"trial_type":"ticket-choose","trial_index":66,"time_elapsed":1096741,"internal_node_id":"0.0-66.0"},{"result":135,"points":3,"place":0,"phase":0,"sequence":47,"prices":[135,202,150,169,183,225,160,211,220,172],"times":[1233],"next_num":1,"trial_type":"ticket-choose","trial_index":67,"time_elapsed":1101332,"internal_node_id":"0.0-67.0"},{"result":121,"points":3,"place":0,"phase":0,"sequence":48,"prices":[121,191,128,141,166,217,129,196,202,157],"times":[1375],"next_num":1,"trial_type":"ticket-choose","trial_index":68,"time_elapsed":1106587,"internal_node_id":"0.0-68.0"},{"result":142,"points":3,"place":0,"phase":0,"sequence":49,"prices":[142,207,171,182,190,269,180,218,256,188],"times":[3427],"next_num":1,"trial_type":"ticket-choose","trial_index":69,"time_elapsed":1113741,"internal_node_id":"0.0-69.0"},{"responses":[{"value":2,"offby":1,"category":"$90 - $120","category_index":0},{"value":4,"offby":1,"category":"$121 - $145","category_index":1},{"value":5,"offby":2,"category":"$146 - $170","category_index":2},{"value":6,"offby":0,"category":"$171 - $195","category_index":3},{"value":2,"offby":-2,"category":"$196 - $220","category_index":4},{"value":1,"offby":-1,"category":"$221 - $245","category_index":5},{"value":0,"offby":-1,"category":"$246 - $270","category_index":6}],"phase":0,"number":1,"trial_type":"bar-choose","trial_index":70,"time_elapsed":1158558,"internal_node_id":"0.0-70.0"},{"rt":8645,"url":"\/tickets\/utils\/start2.html","trial_type":"html","trial_index":71,"time_elapsed":1168425,"internal_node_id":"0.0-71.0"},{"trial_type":"number-animation","trial_index":72,"time_elapsed":1183093,"internal_node_id":"0.0-72.0"},{"phase":1,"sequence":0,"avg":181,"response":182,"trial_type":"training_avg","trial_index":73,"time_elapsed":1194194,"internal_node_id":"0.0-73.0"},{"trial_type":"number-animation","trial_index":74,"time_elapsed":1203740,"internal_node_id":"0.0-74.0"},{"phase":1,"sequence":1,"avg":188,"response":184,"trial_type":"training_avg","trial_index":75,"time_elapsed":1213428,"internal_node_id":"0.0-75.0"},{"trial_type":"number-animation","trial_index":76,"time_elapsed":1223106,"internal_node_id":"0.0-76.0"},{"phase":1,"sequence":2,"avg":188,"response":178,"trial_type":"training_avg","trial_index":77,"time_elapsed":1231150,"internal_node_id":"0.0-77.0"},{"trial_type":"number-animation","trial_index":78,"time_elapsed":1238508,"internal_node_id":"0.0-78.0"},{"phase":1,"sequence":3,"avg":177,"response":180,"trial_type":"training_avg","trial_index":79,"time_elapsed":1247002,"internal_node_id":"0.0-79.0"},{"trial_type":"number-animation","trial_index":80,"time_elapsed":1254485,"internal_node_id":"0.0-80.0"},{"phase":1,"sequence":4,"avg":182,"response":182,"trial_type":"training_avg","trial_index":81,"time_elapsed":1262020,"internal_node_id":"0.0-81.0"},{"responses":[{"value":1,"offby":1,"category":"$106 - $134","category_index":0},{"value":2,"offby":1,"category":"$135 - $150","category_index":1},{"value":4,"offby":1,"category":"$151 - $165","category_index":2},{"value":5,"offby":-1,"category":"$166 - $180","category_index":3},{"value":4,"offby":-2,"category":"$181 - $195","category_index":4},{"value":3,"offby":0,"category":"$196 - $210","category_index":5},{"value":1,"offby":0,"category":"$211 - $225","category_index":6}],"phase":1,"number":0,"trial_type":"bar-choose","trial_index":82,"time_elapsed":1303518,"internal_node_id":"0.0-82.0"},{"rt":2248,"url":"\/tickets\/utils\/testing2.html","trial_type":"html","trial_index":83,"time_elapsed":1307275,"internal_node_id":"0.0-83.0"},{"phase":1,"order":[47,33,17,19,49,22,20,41,15,46,39,0,13,6,16,28,14,31,32,44,11,23,3,27,1,42,5,34,48,8,36,2,18,9,10,38,45,21,12,35,40,7,4,43,25,37,26,30,29,24],"trial_type":"store_order","trial_index":84,"time_elapsed":1308282,"internal_node_id":"0.0-84.0"},{"result":158,"points":2,"place":1,"phase":1,"sequence":0,"prices":[176,185,177,218,180,186,158,166,209,154],"times":[2649,700,687,648,682,735,1517],"next_num":7,"trial_type":"ticket-choose","trial_index":85,"time_elapsed":1319657,"internal_node_id":"0.0-85.0"},{"result":156,"points":1,"place":2,"phase":1,"sequence":1,"prices":[201,207,155,158,156,165,167,135,178,177],"times":[955,571,550,1355,1306],"next_num":5,"trial_type":"ticket-choose","trial_index":86,"time_elapsed":1328310,"internal_node_id":"0.0-86.0"},{"result":208,"points":0,"place":8,"phase":1,"sequence":2,"prices":[175,185,167,224,181,186,178,168,208,156],"times":[902,656,574,738,775,746,734,3174,648],"next_num":9,"trial_type":"ticket-choose","trial_index":87,"time_elapsed":1341531,"internal_node_id":"0.0-87.0"},{"result":166,"points":1,"place":2,"phase":1,"sequence":3,"prices":[175,186,158,211,180,187,177,166,209,153],"times":[1138,853,684,954,792,649,656,1745],"next_num":8,"trial_type":"ticket-choose","trial_index":88,"time_elapsed":1352823,"internal_node_id":"0.0-88.0"},{"result":143,"points":3,"place":0,"phase":1,"sequence":4,"prices":[222,173,202,197,143,205,198,183,178,186],"times":[1185,785,728,791,1183],"next_num":5,"trial_type":"ticket-choose","trial_index":89,"time_elapsed":1361220,"internal_node_id":"0.0-89.0"},{"result":154,"points":3,"place":0,"phase":1,"sequence":5,"prices":[175,187,163,209,180,188,176,165,154,208],"times":[1395,728,1784,800,907,759,1097,2858,1166],"next_num":9,"trial_type":"ticket-choose","trial_index":90,"time_elapsed":1376868,"internal_node_id":"0.0-90.0"},{"result":163,"points":2,"place":1,"phase":1,"sequence":6,"prices":[176,186,176,210,179,187,163,166,153,208],"times":[1117,937,721,706,730,653,2922],"next_num":7,"trial_type":"ticket-choose","trial_index":91,"time_elapsed":1388310,"internal_node_id":"0.0-91.0"},{"result":186,"points":1,"place":4,"phase":1,"sequence":7,"prices":[168,192,171,178,188,217,172,195,197,186],"times":[1383,699,615,647,636,689,716,985,1408,1872],"next_num":11,"trial_type":"ticket-choose","trial_index":92,"time_elapsed":1402313,"internal_node_id":"0.0-92.0"},{"result":159,"points":3,"place":0,"phase":1,"sequence":8,"prices":[159,183,166,168,173,205,167,187,191,170],"times":[1311],"next_num":1,"trial_type":"ticket-choose","trial_index":93,"time_elapsed":1406554,"internal_node_id":"0.0-93.0"},{"result":163,"points":3,"place":0,"phase":1,"sequence":9,"prices":[168,199,196,198,185,195,227,163,177,166],"times":[1327,671,728,597,708,763,1330,1145],"next_num":8,"trial_type":"ticket-choose","trial_index":94,"time_elapsed":1418207,"internal_node_id":"0.0-94.0"},{"result":158,"points":2,"place":1,"phase":1,"sequence":10,"prices":[175,186,177,221,180,187,158,166,209,153],"times":[1182,615,764,760,685,718,1364],"next_num":7,"trial_type":"ticket-choose","trial_index":95,"time_elapsed":1428135,"internal_node_id":"0.0-95.0"},{"result":165,"points":3,"place":0,"phase":1,"sequence":11,"prices":[189,167,180,197,165,168,172,213,178,171],"times":[1805,831,736,690,1057],"next_num":5,"trial_type":"ticket-choose","trial_index":96,"time_elapsed":1436697,"internal_node_id":"0.0-96.0"},{"result":168,"points":1,"place":2,"phase":1,"sequence":12,"prices":[168,154,172,185,195,144,184,211,177,227],"times":[1823],"next_num":1,"trial_type":"ticket-choose","trial_index":97,"time_elapsed":1441185,"internal_node_id":"0.0-97.0"},{"result":152,"points":3,"place":0,"phase":1,"sequence":13,"prices":[152,200,158,173,182,207,161,202,204,180],"times":[983],"next_num":1,"trial_type":"ticket-choose","trial_index":98,"time_elapsed":1445070,"internal_node_id":"0.0-98.0"},{"result":163,"points":2,"place":1,"phase":1,"sequence":14,"prices":[175,186,163,211,179,187,176,165,153,210],"times":[963,648,1297],"next_num":3,"trial_type":"ticket-choose","trial_index":99,"time_elapsed":1450703,"internal_node_id":"0.0-99.0"},{"result":158,"points":2,"place":1,"phase":1,"sequence":15,"prices":[176,185,158,217,180,186,177,166,209,154],"times":[963,653,1018],"next_num":3,"trial_type":"ticket-choose","trial_index":100,"time_elapsed":1456021,"internal_node_id":"0.0-100.0"},{"result":150,"points":3,"place":0,"phase":1,"sequence":16,"prices":[189,150,175,160,188,207,158,194,178,199],"times":[858,1109],"next_num":2,"trial_type":"ticket-choose","trial_index":101,"time_elapsed":1460438,"internal_node_id":"0.0-101.0"},{"result":158,"points":2,"place":1,"phase":1,"sequence":17,"prices":[176,187,177,225,181,187,158,165,208,153],"times":[1727,695,901,894,765,762,1125],"next_num":7,"trial_type":"ticket-choose","trial_index":102,"time_elapsed":1470846,"internal_node_id":"0.0-102.0"},{"result":168,"points":1,"place":2,"phase":1,"sequence":18,"prices":[175,185,178,215,181,186,167,168,208,156],"times":[864,607,626,774,654,730,785,2477],"next_num":8,"trial_type":"ticket-choose","trial_index":103,"time_elapsed":1482132,"internal_node_id":"0.0-103.0"},{"result":154,"points":3,"place":0,"phase":1,"sequence":19,"prices":[188,200,165,172,198,174,177,154,177,180],"times":[997,670,622,1015,736,793,1553,1259],"next_num":8,"trial_type":"ticket-choose","trial_index":104,"time_elapsed":1493601,"internal_node_id":"0.0-104.0"},{"result":185,"points":1,"place":4,"phase":1,"sequence":20,"prices":[169,196,170,184,187,211,171,201,202,185],"times":[1505,1684,628,746,647,656,651,784,838,837],"next_num":11,"trial_type":"ticket-choose","trial_index":105,"time_elapsed":1507450,"internal_node_id":"0.0-105.0"},{"result":150,"points":3,"place":0,"phase":1,"sequence":21,"prices":[150,185,154,161,173,199,155,188,191,168],"times":[2189],"next_num":1,"trial_type":"ticket-choose","trial_index":106,"time_elapsed":1511937,"internal_node_id":"0.0-106.0"},{"result":158,"points":3,"place":0,"phase":1,"sequence":22,"prices":[210,184,226,193,215,158,199,175,176,208],"times":[1189,650,819,654,752,1063],"next_num":6,"trial_type":"ticket-choose","trial_index":107,"time_elapsed":1520833,"internal_node_id":"0.0-107.0"},{"result":167,"points":2,"place":1,"phase":1,"sequence":23,"prices":[175,186,178,212,179,187,167,169,209,153],"times":[980,719,710,810,738,739,1190],"next_num":7,"trial_type":"ticket-choose","trial_index":108,"time_elapsed":1530700,"internal_node_id":"0.0-108.0"},{"result":163,"points":2,"place":1,"phase":1,"sequence":24,"prices":[175,186,176,224,179,187,163,165,153,210],"times":[927,1143,850,792,738,815,1136],"next_num":7,"trial_type":"ticket-choose","trial_index":109,"time_elapsed":1540686,"internal_node_id":"0.0-109.0"},{"result":169,"points":1,"place":2,"phase":1,"sequence":25,"prices":[175,186,167,225,179,187,178,169,209,153],"times":[1089,769,717,809,915,717,740,1264],"next_num":8,"trial_type":"ticket-choose","trial_index":110,"time_elapsed":1551543,"internal_node_id":"0.0-110.0"},{"result":155,"points":2,"place":1,"phase":1,"sequence":26,"prices":[181,155,148,161,168,187,172,199,176,194],"times":[992,2003],"next_num":2,"trial_type":"ticket-choose","trial_index":111,"time_elapsed":1557240,"internal_node_id":"0.0-111.0"},{"result":163,"points":2,"place":1,"phase":1,"sequence":27,"prices":[174,186,176,217,181,187,163,166,153,209],"times":[823,1033,1140,821,689,674,1108],"next_num":7,"trial_type":"ticket-choose","trial_index":112,"time_elapsed":1567150,"internal_node_id":"0.0-112.0"},{"result":148,"points":3,"place":0,"phase":1,"sequence":28,"prices":[148,171,150,163,167,220,162,186,187,165],"times":[1291],"next_num":1,"trial_type":"ticket-choose","trial_index":113,"time_elapsed":1571546,"internal_node_id":"0.0-113.0"},{"result":158,"points":2,"place":1,"phase":1,"sequence":29,"prices":[175,186,158,209,181,188,177,167,208,154],"times":[1470,644,1185],"next_num":3,"trial_type":"ticket-choose","trial_index":114,"time_elapsed":1577687,"internal_node_id":"0.0-114.0"},{"result":167,"points":2,"place":1,"phase":1,"sequence":30,"prices":[175,187,178,209,179,187,167,169,208,153],"times":[792,848,890,774,704,782,1315],"next_num":7,"trial_type":"ticket-choose","trial_index":115,"time_elapsed":1587428,"internal_node_id":"0.0-115.0"},{"result":161,"points":3,"place":0,"phase":1,"sequence":31,"prices":[161,193,167,187,190,224,174,194,195,188],"times":[1872],"next_num":1,"trial_type":"ticket-choose","trial_index":116,"time_elapsed":1591870,"internal_node_id":"0.0-116.0"},{"result":163,"points":1,"place":2,"phase":1,"sequence":32,"prices":[183,163,185,180,166,148,160,186,176,184],"times":[1341,1075],"next_num":2,"trial_type":"ticket-choose","trial_index":117,"time_elapsed":1596809,"internal_node_id":"0.0-117.0"},{"result":169,"points":2,"place":1,"phase":1,"sequence":33,"prices":[181,215,169,147,182,193,177,184,176,179],"times":[1276,859,1341],"next_num":3,"trial_type":"ticket-choose","trial_index":118,"time_elapsed":1603050,"internal_node_id":"0.0-118.0"},{"result":156,"points":3,"place":0,"phase":1,"sequence":34,"prices":[156,201,162,166,185,214,165,202,204,179],"times":[1619],"next_num":1,"trial_type":"ticket-choose","trial_index":119,"time_elapsed":1607025,"internal_node_id":"0.0-119.0"},{"result":163,"points":2,"place":1,"phase":1,"sequence":35,"prices":[175,187,176,209,180,188,163,165,154,208],"times":[1097,645,758,708,767,691,1140],"next_num":7,"trial_type":"ticket-choose","trial_index":120,"time_elapsed":1616385,"internal_node_id":"0.0-120.0"},{"result":169,"points":1,"place":2,"phase":1,"sequence":36,"prices":[175,187,167,212,179,187,178,169,208,153],"times":[907,652,674,1182,775,780,1458,1142],"next_num":8,"trial_type":"ticket-choose","trial_index":121,"time_elapsed":1627737,"internal_node_id":"0.0-121.0"},{"result":169,"points":1,"place":3,"phase":1,"sequence":37,"prices":[198,193,169,163,202,182,152,164,177,171],"times":[1681,1030,1204],"next_num":3,"trial_type":"ticket-choose","trial_index":122,"time_elapsed":1634360,"internal_node_id":"0.0-122.0"},{"result":161,"points":3,"place":0,"phase":1,"sequence":38,"prices":[161,193,175,181,185,224,180,199,218,184],"times":[1314],"next_num":1,"trial_type":"ticket-choose","trial_index":123,"time_elapsed":1638732,"internal_node_id":"0.0-123.0"},{"result":167,"points":2,"place":1,"phase":1,"sequence":39,"prices":[212,192,188,184,167,193,189,164,176,170],"times":[998,809,703,675,1107],"next_num":5,"trial_type":"ticket-choose","trial_index":124,"time_elapsed":1646190,"internal_node_id":"0.0-124.0"},{"result":168,"points":1,"place":2,"phase":1,"sequence":40,"prices":[174,186,178,217,181,188,167,168,208,156],"times":[1022,719,711,937,770,679,751,1131],"next_num":8,"trial_type":"ticket-choose","trial_index":125,"time_elapsed":1656594,"internal_node_id":"0.0-125.0"},{"result":158,"points":2,"place":1,"phase":1,"sequence":41,"prices":[176,187,158,210,181,187,177,165,208,153],"times":[994,617,1356],"next_num":3,"trial_type":"ticket-choose","trial_index":126,"time_elapsed":1662440,"internal_node_id":"0.0-126.0"},{"result":158,"points":2,"place":1,"phase":1,"sequence":42,"prices":[175,186,177,209,181,188,158,167,208,154],"times":[901,656,660,697,856,679,1254],"next_num":7,"trial_type":"ticket-choose","trial_index":127,"time_elapsed":1671962,"internal_node_id":"0.0-127.0"},{"result":157,"points":3,"place":0,"phase":1,"sequence":43,"prices":[157,191,165,175,182,203,170,195,200,176],"times":[1312],"next_num":1,"trial_type":"ticket-choose","trial_index":128,"time_elapsed":1676008,"internal_node_id":"0.0-128.0"},{"result":163,"points":2,"place":1,"phase":1,"sequence":44,"prices":[174,186,163,212,181,187,176,166,153,209],"times":[2362,735,1301],"next_num":3,"trial_type":"ticket-choose","trial_index":129,"time_elapsed":1683367,"internal_node_id":"0.0-129.0"},{"result":152,"points":3,"place":0,"phase":1,"sequence":45,"prices":[200,181,203,152,175,171,160,154,176,191],"times":[1607,777,748,1259],"next_num":4,"trial_type":"ticket-choose","trial_index":130,"time_elapsed":1690908,"internal_node_id":"0.0-130.0"},{"result":163,"points":2,"place":1,"phase":1,"sequence":46,"prices":[176,186,163,214,179,187,176,166,153,208],"times":[1000,870,1225],"next_num":3,"trial_type":"ticket-choose","trial_index":131,"time_elapsed":1697104,"internal_node_id":"0.0-131.0"},{"result":167,"points":2,"place":1,"phase":1,"sequence":47,"prices":[174,186,167,211,181,188,178,168,208,156],"times":[1197,831,5023],"next_num":3,"trial_type":"ticket-choose","trial_index":132,"time_elapsed":1707294,"internal_node_id":"0.0-132.0"},{"result":157,"points":3,"place":0,"phase":1,"sequence":48,"prices":[201,187,157,184,198,179,188,185,178,170],"times":[1125,883,1133],"next_num":3,"trial_type":"ticket-choose","trial_index":133,"time_elapsed":1714176,"internal_node_id":"0.0-133.0"},{"result":159,"points":1,"place":2,"phase":1,"sequence":49,"prices":[180,159,149,175,185,141,163,174,178,207],"times":[1174,1411],"next_num":2,"trial_type":"ticket-choose","trial_index":134,"time_elapsed":1720382,"internal_node_id":"0.0-134.0"},{"responses":[{"value":0,"offby":0,"category":"$106 - $134","category_index":0},{"value":2,"offby":1,"category":"$135 - $150","category_index":1},{"value":4,"offby":1,"category":"$151 - $165","category_index":2},{"value":5,"offby":-1,"category":"$166 - $180","category_index":3},{"value":4,"offby":-2,"category":"$181 - $195","category_index":4},{"value":3,"offby":0,"category":"$196 - $210","category_index":5},{"value":1,"offby":0,"category":"$211 - $225","category_index":6}],"phase":1,"number":1,"trial_type":"bar-choose","trial_index":135,"time_elapsed":1755554,"internal_node_id":"0.0-135.0"},{"special_comment":"no","trial_type":"special_sequence","trial_index":136,"time_elapsed":1763418,"internal_node_id":"0.0-136.0"},{"during":"Nothing","bonus":284,"trial_type":"final","trial_index":137,"time_elapsed":1796822,"internal_node_id":"0.0-137.0"}],"bonus":284}