{"start_time":"2017-02-21 10:48:28","end_time":"2017-02-21 11:12:47","points_phase0":112,"points_phase1":108,"phase_order":1,"age":28,"gender":"m","tries":1,"during":"Nothing","worker_id":"A15FXHC1CVNW31","assignment_id":"3NAPMVF0ZX8EM3D62M2EWSJUM4R27M","data":[{"rt":23470,"url":"\/tickets\/utils\/consent.html","trial_type":"html","trial_index":0,"time_elapsed":23550,"internal_node_id":"0.0-0.0"},{"age":28,"gender":"m","trial_type":"age","trial_index":1,"time_elapsed":27015,"internal_node_id":"0.0-1.0"},{"worker_id":"A15FXHC1CVNW31","trial_type":"workerid","trial_index":2,"time_elapsed":33749,"internal_node_id":"0.0-2.0"},{"tries":1,"trial_type":"instructions_check","trial_index":3,"time_elapsed":70279,"internal_node_id":"0.0-3.0"},{"rt":12499,"url":"\/tickets\/utils\/start.html","trial_type":"html","trial_index":4,"time_elapsed":83893,"internal_node_id":"0.0-4.0"},{"trial_type":"number-animation","trial_index":5,"time_elapsed":122444,"internal_node_id":"0.0-5.0"},{"phase":0,"sequence":0,"avg":182,"response":180,"trial_type":"training_avg","trial_index":6,"time_elapsed":137148,"internal_node_id":"0.0-6.0"},{"trial_type":"number-animation","trial_index":7,"time_elapsed":198384,"internal_node_id":"0.0-7.0"},{"phase":0,"sequence":1,"avg":188,"response":188,"trial_type":"training_avg","trial_index":8,"time_elapsed":210829,"internal_node_id":"0.0-8.0"},{"trial_type":"number-animation","trial_index":9,"time_elapsed":264856,"internal_node_id":"0.0-9.0"},{"phase":0,"sequence":2,"avg":176,"response":165,"trial_type":"training_avg","trial_index":10,"time_elapsed":275874,"internal_node_id":"0.0-10.0"},{"trial_type":"number-animation","trial_index":11,"time_elapsed":309916,"internal_node_id":"0.0-11.0"},{"phase":0,"sequence":3,"avg":180,"response":181,"trial_type":"training_avg","trial_index":12,"time_elapsed":324499,"internal_node_id":"0.0-12.0"},{"trial_type":"number-animation","trial_index":13,"time_elapsed":357502,"internal_node_id":"0.0-13.0"},{"phase":0,"sequence":4,"avg":174,"response":174,"trial_type":"training_avg","trial_index":14,"time_elapsed":367072,"internal_node_id":"0.0-14.0"},{"responses":[{"value":0,"offby":-1,"category":"$90 - $120","category_index":0},{"value":0,"offby":-3,"category":"$121 - $145","category_index":1},{"value":2,"offby":-1,"category":"$146 - $170","category_index":2},{"value":13,"offby":7,"category":"$171 - $195","category_index":3},{"value":5,"offby":1,"category":"$196 - $220","category_index":4},{"value":0,"offby":-2,"category":"$221 - $245","category_index":5},{"value":0,"offby":-1,"category":"$246 - $270","category_index":6}],"phase":0,"number":0,"trial_type":"bar-choose","trial_index":15,"time_elapsed":415175,"internal_node_id":"0.0-15.0"},{"rt":9904,"url":"\/tickets\/\/utils\/testing.html","trial_type":"html","trial_index":16,"time_elapsed":426197,"internal_node_id":"0.0-16.0"},{"phase":0,"order":[9,12,6,48,30,33,37,20,25,1,11,22,15,28,29,17,14,8,10,7,40,2,45,41,13,39,46,21,32,35,43,31,47,49,18,26,0,38,42,16,19,3,34,5,4,36,44,24,27,23],"trial_type":"store_order","trial_index":17,"time_elapsed":427206,"internal_node_id":"0.0-17.0"},{"result":165,"points":2,"place":1,"phase":0,"sequence":-1,"prices":[184,180,224,165,181,199,185,193,218,126],"times":[5161,2504,2184,1595],"next_num":4,"trial_type":"ticket-choose","trial_index":18,"time_elapsed":441864,"internal_node_id":"0.0-18.0"},{"rt":18385,"url":"\/tickets\/utils\/testing_after.html","trial_type":"html","trial_index":19,"time_elapsed":461374,"internal_node_id":"0.0-19.0"},{"result":136,"points":2,"place":1,"phase":0,"sequence":0,"prices":[173,191,174,270,180,193,136,153,239,129],"times":[3140,563,528,485,603,500,831],"next_num":7,"trial_type":"ticket-choose","trial_index":20,"time_elapsed":471739,"internal_node_id":"0.0-20.0"},{"result":136,"points":2,"place":1,"phase":0,"sequence":1,"prices":[172,190,136,270,179,192,174,152,237,129],"times":[2548,430,791],"next_num":3,"trial_type":"ticket-choose","trial_index":21,"time_elapsed":478332,"internal_node_id":"0.0-21.0"},{"result":188,"points":1,"place":4,"phase":0,"sequence":2,"prices":[142,207,171,182,190,269,180,218,256,188],"times":[901,499,491,450,527,489,501,533,550,977],"next_num":10,"trial_type":"ticket-choose","trial_index":22,"time_elapsed":488251,"internal_node_id":"0.0-22.0"},{"result":146,"points":2,"place":1,"phase":0,"sequence":3,"prices":[170,193,146,268,178,195,172,149,126,241],"times":[997,503,1036],"next_num":3,"trial_type":"ticket-choose","trial_index":23,"time_elapsed":493106,"internal_node_id":"0.0-23.0"},{"result":128,"points":3,"place":0,"phase":0,"sequence":4,"prices":[196,221,149,164,216,167,175,128,176,181],"times":[1198,537,428,747,555,461,476,1384],"next_num":8,"trial_type":"ticket-choose","trial_index":24,"time_elapsed":503465,"internal_node_id":"0.0-24.0"},{"result":136,"points":2,"place":1,"phase":0,"sequence":5,"prices":[172,194,174,243,182,193,136,150,237,126],"times":[1453,437,486,494,469,509,680],"next_num":7,"trial_type":"ticket-choose","trial_index":25,"time_elapsed":511131,"internal_node_id":"0.0-25.0"},{"result":158,"points":1,"place":2,"phase":0,"sequence":6,"prices":[169,194,154,271,178,201,176,158,236,127],"times":[630,528,1091,536,432,542,490,785],"next_num":8,"trial_type":"ticket-choose","trial_index":26,"time_elapsed":519746,"internal_node_id":"0.0-26.0"},{"result":135,"points":3,"place":0,"phase":0,"sequence":7,"prices":[221,193,135,188,217,179,196,190,175,159],"times":[556,561,974],"next_num":3,"trial_type":"ticket-choose","trial_index":27,"time_elapsed":532619,"internal_node_id":"0.0-27.0"},{"result":146,"points":1,"place":2,"phase":0,"sequence":8,"prices":[186,146,191,179,152,116,140,201,172,187],"times":[2243,702],"next_num":2,"trial_type":"ticket-choose","trial_index":28,"time_elapsed":537520,"internal_node_id":"0.0-28.0"},{"result":132,"points":3,"place":0,"phase":0,"sequence":9,"prices":[168,192,176,242,183,197,154,156,237,132],"times":[549,511,453,682,622,758,783,521,529,547],"next_num":10,"trial_type":"ticket-choose","trial_index":29,"time_elapsed":547440,"internal_node_id":"0.0-29.0"},{"result":149,"points":3,"place":0,"phase":0,"sequence":10,"prices":[244,203,196,189,154,206,197,149,171,159],"times":[572,499,460,427,469,477,481,824],"next_num":8,"trial_type":"ticket-choose","trial_index":30,"time_elapsed":555388,"internal_node_id":"0.0-30.0"},{"result":189,"points":1,"place":4,"phase":0,"sequence":11,"prices":[157,213,159,187,194,242,161,222,225,189],"times":[557,481,342,426,470,522,797,528,541,495],"next_num":10,"trial_type":"ticket-choose","trial_index":31,"time_elapsed":564344,"internal_node_id":"0.0-31.0"},{"result":192,"points":1,"place":4,"phase":0,"sequence":12,"prices":[157,205,161,175,197,254,165,210,214,192],"times":[858,490,484,508,508,547,493,634,601,619],"next_num":10,"trial_type":"ticket-choose","trial_index":32,"time_elapsed":573858,"internal_node_id":"0.0-32.0"},{"result":146,"points":2,"place":1,"phase":0,"sequence":13,"prices":[173,191,146,242,178,194,172,152,126,235],"times":[517,436,751],"next_num":3,"trial_type":"ticket-choose","trial_index":33,"time_elapsed":577712,"internal_node_id":"0.0-33.0"},{"result":136,"points":3,"place":0,"phase":0,"sequence":14,"prices":[240,188,273,207,250,136,217,170,171,236],"times":[404,547,472,514,557,761],"next_num":6,"trial_type":"ticket-choose","trial_index":34,"time_elapsed":583794,"internal_node_id":"0.0-34.0"},{"result":119,"points":3,"place":0,"phase":0,"sequence":15,"prices":[198,119,169,141,195,233,136,208,177,217],"times":[946,1266],"next_num":2,"trial_type":"ticket-choose","trial_index":35,"time_elapsed":588088,"internal_node_id":"0.0-35.0"},{"result":137,"points":3,"place":0,"phase":0,"sequence":16,"prices":[137,187,152,156,166,231,155,194,202,160],"times":[1355],"next_num":1,"trial_type":"ticket-choose","trial_index":36,"time_elapsed":591223,"internal_node_id":"0.0-36.0"},{"result":135,"points":3,"place":0,"phase":0,"sequence":17,"prices":[135,202,150,169,183,225,160,211,220,172],"times":[904],"next_num":1,"trial_type":"ticket-choose","trial_index":37,"time_elapsed":593977,"internal_node_id":"0.0-37.0"},{"result":125,"points":3,"place":0,"phase":0,"sequence":18,"prices":[169,192,176,244,178,194,154,159,237,125],"times":[599,508,479,506,463,468,964,553,587,463],"next_num":10,"trial_type":"ticket-choose","trial_index":38,"time_elapsed":603263,"internal_node_id":"0.0-38.0"},{"result":131,"points":2,"place":1,"phase":0,"sequence":19,"prices":[221,234,131,136,132,149,154,90,176,173],"times":[583,438,720],"next_num":3,"trial_type":"ticket-choose","trial_index":39,"time_elapsed":607257,"internal_node_id":"0.0-39.0"},{"result":130,"points":2,"place":1,"phase":0,"sequence":20,"prices":[181,130,116,142,157,193,165,218,173,207],"times":[407,5048],"next_num":2,"trial_type":"ticket-choose","trial_index":40,"time_elapsed":614655,"internal_node_id":"0.0-40.0"},{"result":146,"points":2,"place":1,"phase":0,"sequence":21,"prices":[172,191,176,272,179,194,146,152,126,235],"times":[663,973,683,519,487,513,782],"next_num":7,"trial_type":"ticket-choose","trial_index":41,"time_elapsed":622374,"internal_node_id":"0.0-41.0"},{"result":146,"points":3,"place":0,"phase":0,"sequence":22,"prices":[156,218,212,216,191,210,275,146,174,152],"times":[668,466,489,446,541,523,458,798],"next_num":8,"trial_type":"ticket-choose","trial_index":42,"time_elapsed":629991,"internal_node_id":"0.0-42.0"},{"result":146,"points":2,"place":1,"phase":0,"sequence":23,"prices":[171,191,172,268,179,194,146,150,127,239],"times":[560,535,552,723,558,668,792],"next_num":7,"trial_type":"ticket-choose","trial_index":43,"time_elapsed":637448,"internal_node_id":"0.0-43.0"},{"result":158,"points":1,"place":3,"phase":0,"sequence":24,"prices":[216,206,158,145,224,185,124,149,175,162],"times":[609,474,716],"next_num":3,"trial_type":"ticket-choose","trial_index":44,"time_elapsed":641384,"internal_node_id":"0.0-44.0"},{"result":146,"points":2,"place":1,"phase":0,"sequence":25,"prices":[171,195,172,242,179,196,146,150,128,235],"times":[535,462,483,514,518,514,845],"next_num":7,"trial_type":"ticket-choose","trial_index":45,"time_elapsed":648669,"internal_node_id":"0.0-45.0"},{"result":136,"points":2,"place":1,"phase":0,"sequence":26,"prices":[170,192,174,242,181,196,136,153,236,128],"times":[673,487,722,508,577,544,764],"next_num":7,"trial_type":"ticket-choose","trial_index":46,"time_elapsed":655855,"internal_node_id":"0.0-46.0"},{"result":136,"points":2,"place":1,"phase":0,"sequence":27,"prices":[171,192,136,243,182,195,174,154,236,128],"times":[447,468,635],"next_num":3,"trial_type":"ticket-choose","trial_index":47,"time_elapsed":659638,"internal_node_id":"0.0-47.0"},{"result":162,"points":1,"place":3,"phase":0,"sequence":28,"prices":[197,153,181,215,150,155,164,247,177,162],"times":[625,518,445,514,906,563,547,542,699,535],"next_num":10,"trial_type":"ticket-choose","trial_index":48,"time_elapsed":669143,"internal_node_id":"0.0-48.0"},{"result":155,"points":1,"place":2,"phase":0,"sequence":29,"prices":[169,191,154,268,183,197,176,155,236,133],"times":[736,447,453,456,578,495,840,845],"next_num":8,"trial_type":"ticket-choose","trial_index":49,"time_elapsed":677230,"internal_node_id":"0.0-49.0"},{"result":126,"points":3,"place":0,"phase":0,"sequence":30,"prices":[170,193,176,245,178,194,154,159,236,126],"times":[704,501,451,453,453,511,1161,604,545,558],"next_num":10,"trial_type":"ticket-choose","trial_index":50,"time_elapsed":686702,"internal_node_id":"0.0-50.0"},{"result":196,"points":1,"place":4,"phase":0,"sequence":31,"prices":[143,206,153,194,201,267,168,208,210,196],"times":[519,554,642,487,588,462,490,5030,543,425],"next_num":10,"trial_type":"ticket-choose","trial_index":51,"time_elapsed":700133,"internal_node_id":"0.0-51.0"},{"result":154,"points":2,"place":1,"phase":0,"sequence":32,"prices":[168,192,154,237,182,196,176,156,235,133],"times":[804,475,873],"next_num":3,"trial_type":"ticket-choose","trial_index":52,"time_elapsed":704397,"internal_node_id":"0.0-52.0"},{"result":105,"points":3,"place":0,"phase":0,"sequence":33,"prices":[263,165,224,214,105,230,215,185,177,193],"times":[425,440,458,442,667],"next_num":5,"trial_type":"ticket-choose","trial_index":53,"time_elapsed":709774,"internal_node_id":"0.0-53.0"},{"result":126,"points":3,"place":0,"phase":0,"sequence":34,"prices":[169,193,154,255,178,194,176,158,239,126],"times":[503,529,533,493,492,511,472,735,534,468],"next_num":10,"trial_type":"ticket-choose","trial_index":54,"time_elapsed":718646,"internal_node_id":"0.0-54.0"},{"result":129,"points":2,"place":1,"phase":0,"sequence":35,"prices":[155,129,164,189,210,108,187,241,174,275],"times":[631,724],"next_num":2,"trial_type":"ticket-choose","trial_index":55,"time_elapsed":721916,"internal_node_id":"0.0-55.0"},{"result":124,"points":3,"place":0,"phase":0,"sequence":36,"prices":[219,183,227,124,176,161,140,129,171,201],"times":[544,470,462,1019],"next_num":4,"trial_type":"ticket-choose","trial_index":56,"time_elapsed":726732,"internal_node_id":"0.0-56.0"},{"result":136,"points":2,"place":1,"phase":0,"sequence":37,"prices":[171,192,136,265,180,194,174,152,239,127],"times":[613,412,862],"next_num":3,"trial_type":"ticket-choose","trial_index":57,"time_elapsed":730700,"internal_node_id":"0.0-57.0"},{"result":138,"points":1,"place":2,"phase":0,"sequence":38,"prices":[181,138,118,170,190,101,146,169,175,233],"times":[296,656],"next_num":2,"trial_type":"ticket-choose","trial_index":58,"time_elapsed":733731,"internal_node_id":"0.0-58.0"},{"result":117,"points":3,"place":0,"phase":0,"sequence":39,"prices":[117,161,120,147,153,259,144,191,195,149],"times":[1420],"next_num":1,"trial_type":"ticket-choose","trial_index":59,"time_elapsed":737367,"internal_node_id":"0.0-59.0"},{"result":126,"points":3,"place":0,"phase":0,"sequence":40,"prices":[168,191,146,252,183,193,172,153,126,238],"times":[564,496,485,506,476,486,486,771,727],"next_num":9,"trial_type":"ticket-choose","trial_index":60,"time_elapsed":745860,"internal_node_id":"0.0-60.0"},{"result":132,"points":3,"place":0,"phase":0,"sequence":41,"prices":[132,222,144,153,190,248,151,224,228,179],"times":[965],"next_num":1,"trial_type":"ticket-choose","trial_index":61,"time_elapsed":748581,"internal_node_id":"0.0-61.0"},{"result":121,"points":3,"place":0,"phase":0,"sequence":42,"prices":[121,191,128,141,166,217,129,196,202,157],"times":[593],"next_num":1,"trial_type":"ticket-choose","trial_index":62,"time_elapsed":750907,"internal_node_id":"0.0-62.0"},{"result":129,"points":3,"place":0,"phase":0,"sequence":43,"prices":[169,193,146,237,180,196,172,150,129,236],"times":[569,525,741,440,506,487,540,1946,623],"next_num":9,"trial_type":"ticket-choose","trial_index":63,"time_elapsed":760691,"internal_node_id":"0.0-63.0"},{"result":136,"points":2,"place":1,"phase":0,"sequence":44,"prices":[169,192,174,246,180,195,136,152,238,126],"times":[649,430,448,435,493,445,678],"next_num":7,"trial_type":"ticket-choose","trial_index":64,"time_elapsed":767347,"internal_node_id":"0.0-64.0"},{"result":125,"points":3,"place":0,"phase":0,"sequence":45,"prices":[168,191,172,240,183,193,146,151,125,238],"times":[481,676,446,461,508,446,470,370,739],"next_num":9,"trial_type":"ticket-choose","trial_index":65,"time_elapsed":775396,"internal_node_id":"0.0-65.0"},{"result":178,"points":1,"place":4,"phase":0,"sequence":46,"prices":[182,249,159,114,184,205,175,189,172,178],"times":[459,399,401,431,493,395,535,487,540,494],"next_num":10,"trial_type":"ticket-choose","trial_index":66,"time_elapsed":783726,"internal_node_id":"0.0-66.0"},{"result":131,"points":3,"place":0,"phase":0,"sequence":47,"prices":[170,190,176,251,183,192,154,157,236,131],"times":[898,526,496,531,493,506,562,553,594,451],"next_num":10,"trial_type":"ticket-choose","trial_index":67,"time_elapsed":793082,"internal_node_id":"0.0-67.0"},{"result":127,"points":3,"place":0,"phase":0,"sequence":48,"prices":[173,194,136,239,182,200,174,150,236,127],"times":[925,374,374,797,506,676,503,523,612,446],"next_num":10,"trial_type":"ticket-choose","trial_index":68,"time_elapsed":803344,"internal_node_id":"0.0-68.0"},{"result":124,"points":3,"place":0,"phase":0,"sequence":49,"prices":[124,220,136,165,185,234,143,225,228,179],"times":[950],"next_num":1,"trial_type":"ticket-choose","trial_index":69,"time_elapsed":806658,"internal_node_id":"0.0-69.0"},{"responses":[{"value":0,"offby":-1,"category":"$90 - $120","category_index":0},{"value":3,"offby":0,"category":"$121 - $145","category_index":1},{"value":4,"offby":1,"category":"$146 - $170","category_index":2},{"value":5,"offby":-1,"category":"$171 - $195","category_index":3},{"value":4,"offby":0,"category":"$196 - $220","category_index":4},{"value":3,"offby":1,"category":"$221 - $245","category_index":5},{"value":1,"offby":0,"category":"$246 - $270","category_index":6}],"phase":0,"number":1,"trial_type":"bar-choose","trial_index":70,"time_elapsed":832819,"internal_node_id":"0.0-70.0"},{"rt":11508,"url":"\/tickets\/utils\/start2.html","trial_type":"html","trial_index":71,"time_elapsed":845451,"internal_node_id":"0.0-71.0"},{"trial_type":"number-animation","trial_index":72,"time_elapsed":865525,"internal_node_id":"0.0-72.0"},{"phase":1,"sequence":0,"avg":181,"response":181,"trial_type":"training_avg","trial_index":73,"time_elapsed":873197,"internal_node_id":"0.0-73.0"},{"trial_type":"number-animation","trial_index":74,"time_elapsed":892777,"internal_node_id":"0.0-74.0"},{"phase":1,"sequence":1,"avg":188,"response":188,"trial_type":"training_avg","trial_index":75,"time_elapsed":897941,"internal_node_id":"0.0-75.0"},{"trial_type":"number-animation","trial_index":76,"time_elapsed":916373,"internal_node_id":"0.0-76.0"},{"phase":1,"sequence":2,"avg":188,"response":188,"trial_type":"training_avg","trial_index":77,"time_elapsed":920558,"internal_node_id":"0.0-77.0"},{"trial_type":"number-animation","trial_index":78,"time_elapsed":936485,"internal_node_id":"0.0-78.0"},{"phase":1,"sequence":3,"avg":177,"response":176,"trial_type":"training_avg","trial_index":79,"time_elapsed":943104,"internal_node_id":"0.0-79.0"},{"trial_type":"number-animation","trial_index":80,"time_elapsed":962165,"internal_node_id":"0.0-80.0"},{"phase":1,"sequence":4,"avg":182,"response":181,"trial_type":"training_avg","trial_index":81,"time_elapsed":966770,"internal_node_id":"0.0-81.0"},{"responses":[{"value":1,"offby":1,"category":"$106 - $134","category_index":0},{"value":2,"offby":1,"category":"$135 - $150","category_index":1},{"value":4,"offby":1,"category":"$151 - $165","category_index":2},{"value":5,"offby":-1,"category":"$166 - $180","category_index":3},{"value":4,"offby":-2,"category":"$181 - $195","category_index":4},{"value":2,"offby":-1,"category":"$196 - $210","category_index":5},{"value":2,"offby":1,"category":"$211 - $225","category_index":6}],"phase":1,"number":0,"trial_type":"bar-choose","trial_index":82,"time_elapsed":988426,"internal_node_id":"0.0-82.0"},{"rt":33739,"url":"\/tickets\/utils\/testing2.html","trial_type":"html","trial_index":83,"time_elapsed":1023307,"internal_node_id":"0.0-83.0"},{"phase":1,"order":[23,19,24,3,36,22,11,43,49,12,45,28,27,0,46,40,33,30,14,41,34,4,38,7,37,5,21,17,39,9,15,32,8,42,10,35,47,16,44,31,2,25,29,1,20,6,48,13,18,26],"trial_type":"store_order","trial_index":84,"time_elapsed":1024323,"internal_node_id":"0.0-84.0"},{"result":175,"points":1,"place":3,"phase":1,"sequence":0,"prices":[175,185,167,224,181,186,178,168,208,156],"times":[3456],"next_num":1,"trial_type":"ticket-choose","trial_index":85,"time_elapsed":1030441,"internal_node_id":"0.0-85.0"},{"result":156,"points":3,"place":0,"phase":1,"sequence":1,"prices":[174,186,178,217,181,188,167,168,208,156],"times":[550,438,442,465,533,491,908,460,564,475],"next_num":10,"trial_type":"ticket-choose","trial_index":86,"time_elapsed":1039676,"internal_node_id":"0.0-86.0"},{"result":153,"points":3,"place":0,"phase":1,"sequence":2,"prices":[174,186,176,217,181,187,163,166,153,209],"times":[723,408,455,506,494,484,650,577,809],"next_num":9,"trial_type":"ticket-choose","trial_index":87,"time_elapsed":1048211,"internal_node_id":"0.0-87.0"},{"result":147,"points":3,"place":0,"phase":1,"sequence":3,"prices":[181,215,169,147,182,193,177,184,176,179],"times":[2449,909,754,978],"next_num":4,"trial_type":"ticket-choose","trial_index":88,"time_elapsed":1055750,"internal_node_id":"0.0-88.0"},{"result":176,"points":1,"place":4,"phase":1,"sequence":4,"prices":[157,191,165,175,182,203,170,195,200,176],"times":[617,480,476,462,462,600,507,533,517,411],"next_num":10,"trial_type":"ticket-choose","trial_index":89,"time_elapsed":1064587,"internal_node_id":"0.0-89.0"},{"result":170,"points":1,"place":4,"phase":1,"sequence":5,"prices":[159,183,166,168,173,205,167,187,191,170],"times":[427,478,459,477,437,465,452,388,514,366],"next_num":10,"trial_type":"ticket-choose","trial_index":90,"time_elapsed":1072796,"internal_node_id":"0.0-90.0"},{"result":163,"points":2,"place":1,"phase":1,"sequence":6,"prices":[198,193,169,163,202,182,152,164,177,171],"times":[592,471,440,841],"next_num":4,"trial_type":"ticket-choose","trial_index":91,"time_elapsed":1077572,"internal_node_id":"0.0-91.0"},{"result":158,"points":2,"place":1,"phase":1,"sequence":7,"prices":[175,186,177,221,180,187,158,166,209,153],"times":[4506,434,432,551,569,486,734],"next_num":7,"trial_type":"ticket-choose","trial_index":92,"time_elapsed":1088267,"internal_node_id":"0.0-92.0"},{"result":179,"points":1,"place":4,"phase":1,"sequence":8,"prices":[156,201,162,166,185,214,165,202,204,179],"times":[481,425,352,419,357,471,471,564,476,298],"next_num":10,"trial_type":"ticket-choose","trial_index":93,"time_elapsed":1096308,"internal_node_id":"0.0-93.0"},{"result":154,"points":3,"place":0,"phase":1,"sequence":9,"prices":[175,187,163,209,180,188,176,165,154,208],"times":[556,423,438,459,520,508,479,965,704],"next_num":9,"trial_type":"ticket-choose","trial_index":94,"time_elapsed":1104723,"internal_node_id":"0.0-94.0"},{"result":167,"points":2,"place":1,"phase":1,"sequence":10,"prices":[175,187,167,212,179,187,178,169,208,153],"times":[753,504,1028],"next_num":3,"trial_type":"ticket-choose","trial_index":95,"time_elapsed":1109254,"internal_node_id":"0.0-95.0"},{"result":158,"points":2,"place":1,"phase":1,"sequence":11,"prices":[176,187,177,225,181,187,158,165,208,153],"times":[792,574,458,465,466,504,682],"next_num":7,"trial_type":"ticket-choose","trial_index":96,"time_elapsed":1116306,"internal_node_id":"0.0-96.0"},{"result":153,"points":3,"place":0,"phase":1,"sequence":12,"prices":[175,187,178,209,179,187,167,169,208,153],"times":[583,440,447,441,463,469,721,475,633,688],"next_num":10,"trial_type":"ticket-choose","trial_index":97,"time_elapsed":1125354,"internal_node_id":"0.0-97.0"},{"result":185,"points":1,"place":4,"phase":1,"sequence":13,"prices":[169,196,170,184,187,211,171,201,202,185],"times":[560,466,461,476,445,475,461,542,487,380],"next_num":10,"trial_type":"ticket-choose","trial_index":98,"time_elapsed":1133698,"internal_node_id":"0.0-98.0"},{"result":150,"points":3,"place":0,"phase":1,"sequence":14,"prices":[150,185,154,161,173,199,155,188,191,168],"times":[1485],"next_num":1,"trial_type":"ticket-choose","trial_index":99,"time_elapsed":1137212,"internal_node_id":"0.0-99.0"},{"result":158,"points":2,"place":1,"phase":1,"sequence":15,"prices":[175,186,158,209,181,188,177,167,208,154],"times":[466,431,668],"next_num":3,"trial_type":"ticket-choose","trial_index":100,"time_elapsed":1140962,"internal_node_id":"0.0-100.0"},{"result":153,"points":3,"place":0,"phase":1,"sequence":16,"prices":[175,186,178,212,179,187,167,169,209,153],"times":[521,447,446,513,434,495,454,589,565,367],"next_num":10,"trial_type":"ticket-choose","trial_index":101,"time_elapsed":1149358,"internal_node_id":"0.0-101.0"},{"result":156,"points":3,"place":0,"phase":1,"sequence":17,"prices":[174,186,167,211,181,188,178,168,208,156],"times":[587,498,437,472,436,446,475,499,534,324],"next_num":10,"trial_type":"ticket-choose","trial_index":102,"time_elapsed":1157617,"internal_node_id":"0.0-102.0"},{"result":153,"points":3,"place":0,"phase":1,"sequence":18,"prices":[175,186,167,225,179,187,178,169,209,153],"times":[484,366,300,389,505,465,447,448,493,355],"next_num":10,"trial_type":"ticket-choose","trial_index":103,"time_elapsed":1165376,"internal_node_id":"0.0-103.0"},{"result":163,"points":2,"place":1,"phase":1,"sequence":19,"prices":[175,186,176,224,179,187,163,165,153,210],"times":[414,272,361,361,421,508,946],"next_num":7,"trial_type":"ticket-choose","trial_index":104,"time_elapsed":1171785,"internal_node_id":"0.0-104.0"},{"result":150,"points":3,"place":0,"phase":1,"sequence":20,"prices":[189,150,175,160,188,207,158,194,178,199],"times":[551,829],"next_num":2,"trial_type":"ticket-choose","trial_index":105,"time_elapsed":1175252,"internal_node_id":"0.0-105.0"},{"result":212,"points":0,"place":9,"phase":1,"sequence":21,"prices":[174,186,163,212,181,187,176,166,153,209],"times":[484,568,4152,798],"next_num":4,"trial_type":"ticket-choose","trial_index":106,"time_elapsed":1183769,"internal_node_id":"0.0-106.0"},{"result":167,"points":2,"place":1,"phase":1,"sequence":22,"prices":[212,192,188,184,167,193,189,164,176,170],"times":[620,455,397,529,830],"next_num":5,"trial_type":"ticket-choose","trial_index":107,"time_elapsed":1189137,"internal_node_id":"0.0-107.0"},{"result":135,"points":3,"place":0,"phase":1,"sequence":23,"prices":[201,207,155,158,156,165,167,135,178,177],"times":[623,464,413,328,1306,491,550,673],"next_num":8,"trial_type":"ticket-choose","trial_index":108,"time_elapsed":1199481,"internal_node_id":"0.0-108.0"},{"result":156,"points":3,"place":0,"phase":1,"sequence":24,"prices":[175,185,178,215,181,186,167,168,208,156],"times":[631,452,439,459,446,531,1258,496,516,361],"next_num":10,"trial_type":"ticket-choose","trial_index":109,"time_elapsed":1208785,"internal_node_id":"0.0-109.0"},{"result":171,"points":1,"place":3,"phase":1,"sequence":25,"prices":[189,167,180,197,165,168,172,213,178,171],"times":[557,323,381,442,648,432,487,507,496,351],"next_num":10,"trial_type":"ticket-choose","trial_index":110,"time_elapsed":1216995,"internal_node_id":"0.0-110.0"},{"result":158,"points":3,"place":0,"phase":1,"sequence":26,"prices":[210,184,226,193,215,158,199,175,176,208],"times":[612,527,498,483,521,704],"next_num":6,"trial_type":"ticket-choose","trial_index":111,"time_elapsed":1223056,"internal_node_id":"0.0-111.0"},{"result":158,"points":2,"place":1,"phase":1,"sequence":27,"prices":[175,186,177,209,181,188,158,167,208,154],"times":[593,512,557,503,505,479,674],"next_num":7,"trial_type":"ticket-choose","trial_index":112,"time_elapsed":1229752,"internal_node_id":"0.0-112.0"},{"result":188,"points":1,"place":4,"phase":1,"sequence":28,"prices":[161,193,167,187,190,224,174,194,195,188],"times":[550,510,356,376,504,503,453,533,569,349],"next_num":10,"trial_type":"ticket-choose","trial_index":113,"time_elapsed":1238314,"internal_node_id":"0.0-113.0"},{"result":144,"points":3,"place":0,"phase":1,"sequence":29,"prices":[168,154,172,185,195,144,184,211,177,227],"times":[1682,398,410,473,473,1418],"next_num":6,"trial_type":"ticket-choose","trial_index":114,"time_elapsed":1246195,"internal_node_id":"0.0-114.0"},{"result":170,"points":2,"place":1,"phase":1,"sequence":30,"prices":[201,187,157,184,198,179,188,185,178,170],"times":[872,429,365,449,480,492,422,499,467,423],"next_num":10,"trial_type":"ticket-choose","trial_index":115,"time_elapsed":1254736,"internal_node_id":"0.0-115.0"},{"result":148,"points":3,"place":0,"phase":1,"sequence":31,"prices":[148,171,150,163,167,220,162,186,187,165],"times":[1055],"next_num":1,"trial_type":"ticket-choose","trial_index":116,"time_elapsed":1257705,"internal_node_id":"0.0-116.0"},{"result":152,"points":3,"place":0,"phase":1,"sequence":32,"prices":[200,181,203,152,175,171,160,154,176,191],"times":[570,429,500,965],"next_num":4,"trial_type":"ticket-choose","trial_index":117,"time_elapsed":1262649,"internal_node_id":"0.0-117.0"},{"result":184,"points":0,"place":7,"phase":1,"sequence":33,"prices":[183,163,185,180,166,148,160,186,176,184],"times":[497,413,443,488,493,413,427,534,508,353],"next_num":10,"trial_type":"ticket-choose","trial_index":118,"time_elapsed":1270943,"internal_node_id":"0.0-118.0"},{"result":158,"points":2,"place":1,"phase":1,"sequence":34,"prices":[176,187,158,210,181,187,177,165,208,153],"times":[515,386,708],"next_num":3,"trial_type":"ticket-choose","trial_index":119,"time_elapsed":1274670,"internal_node_id":"0.0-119.0"},{"result":152,"points":3,"place":0,"phase":1,"sequence":35,"prices":[152,200,158,173,182,207,161,202,204,180],"times":[732],"next_num":1,"trial_type":"ticket-choose","trial_index":120,"time_elapsed":1277087,"internal_node_id":"0.0-120.0"},{"result":153,"points":3,"place":0,"phase":1,"sequence":36,"prices":[176,186,163,214,179,187,176,166,153,208],"times":[481,399,555,541,468,461,517,486,692],"next_num":9,"trial_type":"ticket-choose","trial_index":121,"time_elapsed":1285029,"internal_node_id":"0.0-121.0"},{"result":163,"points":3,"place":0,"phase":1,"sequence":37,"prices":[168,199,196,198,185,195,227,163,177,166],"times":[2282,527,425,509,685,483,561,723],"next_num":8,"trial_type":"ticket-choose","trial_index":122,"time_elapsed":1294534,"internal_node_id":"0.0-122.0"},{"result":186,"points":1,"place":4,"phase":1,"sequence":38,"prices":[222,173,202,197,143,205,198,183,178,186],"times":[641,365,500,452,408,387,404,479,492,316],"next_num":10,"trial_type":"ticket-choose","trial_index":123,"time_elapsed":1302502,"internal_node_id":"0.0-123.0"},{"result":158,"points":2,"place":1,"phase":1,"sequence":39,"prices":[175,186,158,211,180,187,177,166,209,153],"times":[605,412,960],"next_num":3,"trial_type":"ticket-choose","trial_index":124,"time_elapsed":1306725,"internal_node_id":"0.0-124.0"},{"result":158,"points":2,"place":1,"phase":1,"sequence":40,"prices":[176,185,158,217,180,186,177,166,209,154],"times":[701,579,844],"next_num":3,"trial_type":"ticket-choose","trial_index":125,"time_elapsed":1310975,"internal_node_id":"0.0-125.0"},{"result":153,"points":3,"place":0,"phase":1,"sequence":41,"prices":[175,186,163,211,179,187,176,165,153,210],"times":[528,485,1011,538,487,469,487,726,690],"next_num":9,"trial_type":"ticket-choose","trial_index":126,"time_elapsed":1319821,"internal_node_id":"0.0-126.0"},{"result":155,"points":2,"place":1,"phase":1,"sequence":42,"prices":[181,155,148,161,168,187,172,199,176,194],"times":[613,931],"next_num":2,"trial_type":"ticket-choose","trial_index":127,"time_elapsed":1323271,"internal_node_id":"0.0-127.0"},{"result":154,"points":3,"place":0,"phase":1,"sequence":43,"prices":[175,187,176,209,180,188,163,165,154,208],"times":[501,432,461,502,527,509,482,442,712],"next_num":9,"trial_type":"ticket-choose","trial_index":128,"time_elapsed":1331327,"internal_node_id":"0.0-128.0"},{"result":163,"points":2,"place":1,"phase":1,"sequence":44,"prices":[176,186,176,210,179,187,163,166,153,208],"times":[573,508,481,544,525,490,825],"next_num":7,"trial_type":"ticket-choose","trial_index":129,"time_elapsed":1338305,"internal_node_id":"0.0-129.0"},{"result":154,"points":3,"place":0,"phase":1,"sequence":45,"prices":[188,200,165,172,198,174,177,154,177,180],"times":[491,557,814,511,477,595,501,804],"next_num":8,"trial_type":"ticket-choose","trial_index":130,"time_elapsed":1346256,"internal_node_id":"0.0-130.0"},{"result":149,"points":2,"place":1,"phase":1,"sequence":46,"prices":[180,159,149,175,185,141,163,174,178,207],"times":[542,520,1416],"next_num":3,"trial_type":"ticket-choose","trial_index":131,"time_elapsed":1350955,"internal_node_id":"0.0-131.0"},{"result":184,"points":1,"place":4,"phase":1,"sequence":47,"prices":[161,193,175,181,185,224,180,199,218,184],"times":[547,546,445,453,430,569,482,478,533,347],"next_num":10,"trial_type":"ticket-choose","trial_index":132,"time_elapsed":1359485,"internal_node_id":"0.0-132.0"},{"result":186,"points":1,"place":4,"phase":1,"sequence":48,"prices":[168,192,171,178,188,217,172,195,197,186],"times":[488,467,485,472,470,479,490,526,500,424],"next_num":10,"trial_type":"ticket-choose","trial_index":133,"time_elapsed":1368045,"internal_node_id":"0.0-133.0"},{"result":158,"points":2,"place":1,"phase":1,"sequence":49,"prices":[176,185,177,218,180,186,158,166,209,154],"times":[584,483,494,480,632,568,743],"next_num":7,"trial_type":"ticket-choose","trial_index":134,"time_elapsed":1375341,"internal_node_id":"0.0-134.0"},{"responses":[{"value":0,"offby":0,"category":"$106 - $134","category_index":0},{"value":1,"offby":0,"category":"$135 - $150","category_index":1},{"value":3,"offby":0,"category":"$151 - $165","category_index":2},{"value":5,"offby":-1,"category":"$166 - $180","category_index":3},{"value":4,"offby":-2,"category":"$181 - $195","category_index":4},{"value":4,"offby":1,"category":"$196 - $210","category_index":5},{"value":3,"offby":2,"category":"$211 - $225","category_index":6}],"phase":1,"number":1,"trial_type":"bar-choose","trial_index":135,"time_elapsed":1393680,"internal_node_id":"0.0-135.0"},{"special_comment":"Pricesstayed within an average range. But I did not notice anything extrodinarially special","trial_type":"special_sequence","trial_index":136,"time_elapsed":1422115,"internal_node_id":"0.0-136.0"},{"during":"Nothing","bonus":292,"trial_type":"final","trial_index":137,"time_elapsed":1457018,"internal_node_id":"0.0-137.0"}],"bonus":292}