{"start_time":"2017-02-27 11:30:17","end_time":"2017-02-27 11:54:57","points_phase0":115,"points_phase1":108,"phase_order":1,"age":23,"gender":"m","tries":2,"during":"Nothing","worker_id":"A15JP0TGZKLNIZ","assignment_id":"3TK8OJTYM2ECP0F8MIG6YJ7QJMJVP3","data":[{"rt":21557,"url":"\/tickets\/utils\/consent.html","trial_type":"html","trial_index":0,"time_elapsed":21649,"internal_node_id":"0.0-0.0"},{"age":23,"gender":"m","trial_type":"age","trial_index":1,"time_elapsed":25992,"internal_node_id":"0.0-1.0"},{"worker_id":"A15JP0TGZKLNIZ","trial_type":"workerid","trial_index":2,"time_elapsed":32344,"internal_node_id":"0.0-2.0"},{"tries":2,"trial_type":"instructions_check","trial_index":3,"time_elapsed":85906,"internal_node_id":"0.0-3.0"},{"rt":19433,"url":"\/tickets\/utils\/start.html","trial_type":"html","trial_index":4,"time_elapsed":106457,"internal_node_id":"0.0-4.0"},{"trial_type":"number-animation","trial_index":5,"time_elapsed":137316,"internal_node_id":"0.0-5.0"},{"phase":0,"sequence":0,"avg":166,"response":205,"trial_type":"training_avg","trial_index":6,"time_elapsed":150587,"internal_node_id":"0.0-6.0"},{"trial_type":"number-animation","trial_index":7,"time_elapsed":164628,"internal_node_id":"0.0-7.0"},{"phase":0,"sequence":1,"avg":198,"response":185,"trial_type":"training_avg","trial_index":8,"time_elapsed":173377,"internal_node_id":"0.0-8.0"},{"trial_type":"number-animation","trial_index":9,"time_elapsed":188624,"internal_node_id":"0.0-9.0"},{"phase":0,"sequence":2,"avg":177,"response":192,"trial_type":"training_avg","trial_index":10,"time_elapsed":196473,"internal_node_id":"0.0-10.0"},{"trial_type":"number-animation","trial_index":11,"time_elapsed":204141,"internal_node_id":"0.0-11.0"},{"phase":0,"sequence":3,"avg":190,"response":168,"trial_type":"training_avg","trial_index":12,"time_elapsed":217616,"internal_node_id":"0.0-12.0"},{"trial_type":"number-animation","trial_index":13,"time_elapsed":225884,"internal_node_id":"0.0-13.0"},{"phase":0,"sequence":4,"avg":201,"response":207,"trial_type":"training_avg","trial_index":14,"time_elapsed":231779,"internal_node_id":"0.0-14.0"},{"responses":[{"value":1,"offby":0,"category":"$30 - $75","category_index":0},{"value":2,"offby":0,"category":"$76 - $120","category_index":1},{"value":2,"offby":-2,"category":"$121 - $165","category_index":2},{"value":4,"offby":-2,"category":"$166 - $210","category_index":3},{"value":10,"offby":4,"category":"$211 - $255","category_index":4},{"value":1,"offby":0,"category":"$256 - $300","category_index":5},{"value":0,"offby":0,"category":"$301 - $345","category_index":6}],"phase":0,"number":0,"trial_type":"bar-choose","trial_index":15,"time_elapsed":290257,"internal_node_id":"0.0-15.0"},{"rt":8427,"url":"\/tickets\/\/utils\/testing.html","trial_type":"html","trial_index":16,"time_elapsed":299806,"internal_node_id":"0.0-16.0"},{"phase":0,"order":[10,16,23,32,33,30,38,48,12,29,18,40,37,1,34,2,35,28,44,36,41,15,42,25,20,27,46,5,17,8,4,14,39,31,7,11,13,3,43,24,22,47,9,6,19,26,21,0,45,49],"trial_type":"store_order","trial_index":17,"time_elapsed":300820,"internal_node_id":"0.0-17.0"},{"result":165,"points":2,"place":1,"phase":0,"sequence":-1,"prices":[184,180,224,165,181,199,185,193,218,126],"times":[7782,2861,2190,5984],"next_num":4,"trial_type":"ticket-choose","trial_index":18,"time_elapsed":323290,"internal_node_id":"0.0-18.0"},{"rt":15468,"url":"\/tickets\/utils\/testing_after.html","trial_type":"html","trial_index":19,"time_elapsed":339859,"internal_node_id":"0.0-19.0"},{"result":146,"points":1,"place":3,"phase":0,"sequence":0,"prices":[146,171,120,245,165,191,160,140,100,196],"times":[4898],"next_num":1,"trial_type":"ticket-choose","trial_index":20,"time_elapsed":348536,"internal_node_id":"0.0-20.0"},{"result":86,"points":3,"place":0,"phase":0,"sequence":1,"prices":[86,180,130,151,170,271,145,191,220,160],"times":[3330],"next_num":1,"trial_type":"ticket-choose","trial_index":21,"time_elapsed":356103,"internal_node_id":"0.0-21.0"},{"result":125,"points":2,"place":1,"phase":0,"sequence":2,"prices":[156,175,125,245,170,190,165,140,101,196],"times":[3149,1203,1567],"next_num":3,"trial_type":"ticket-choose","trial_index":22,"time_elapsed":365053,"internal_node_id":"0.0-22.0"},{"result":120,"points":2,"place":1,"phase":0,"sequence":3,"prices":[186,156,191,120,195,145,45,130,246,176],"times":[1470,1023,1098,1332],"next_num":4,"trial_type":"ticket-choose","trial_index":23,"time_elapsed":373437,"internal_node_id":"0.0-23.0"},{"result":116,"points":3,"place":0,"phase":0,"sequence":4,"prices":[176,150,276,171,261,116,130,201,166,231],"times":[939,493,620,610,755,1261],"next_num":6,"trial_type":"ticket-choose","trial_index":24,"time_elapsed":382165,"internal_node_id":"0.0-24.0"},{"result":131,"points":2,"place":1,"phase":0,"sequence":5,"prices":[156,181,171,256,175,200,131,150,110,206],"times":[1176,521,544,595,498,790,1168],"next_num":7,"trial_type":"ticket-choose","trial_index":25,"time_elapsed":391492,"internal_node_id":"0.0-25.0"},{"result":120,"points":2,"place":1,"phase":0,"sequence":6,"prices":[145,170,160,245,165,190,120,141,100,195],"times":[1558,535,1403,642,571,693,1252],"next_num":7,"trial_type":"ticket-choose","trial_index":26,"time_elapsed":401891,"internal_node_id":"0.0-26.0"},{"result":130,"points":3,"place":0,"phase":0,"sequence":7,"prices":[185,175,276,221,130,141,171,216,235,165],"times":[1298,353,428,480,1428],"next_num":5,"trial_type":"ticket-choose","trial_index":27,"time_elapsed":409068,"internal_node_id":"0.0-27.0"},{"result":120,"points":2,"place":1,"phase":0,"sequence":8,"prices":[150,170,160,241,166,186,120,136,96,191],"times":[809,391,430,572,403,452,1678],"next_num":7,"trial_type":"ticket-choose","trial_index":28,"time_elapsed":420677,"internal_node_id":"0.0-28.0"},{"result":155,"points":1,"place":4,"phase":0,"sequence":9,"prices":[135,180,141,151,175,220,145,196,211,155],"times":[2829,267,246,467,342,766,811,861,720,1608],"next_num":10,"trial_type":"ticket-choose","trial_index":29,"time_elapsed":433940,"internal_node_id":"0.0-29.0"},{"result":95,"points":3,"place":0,"phase":0,"sequence":10,"prices":[95,205,106,151,186,271,145,210,215,181],"times":[1569],"next_num":1,"trial_type":"ticket-choose","trial_index":30,"time_elapsed":438132,"internal_node_id":"0.0-30.0"},{"result":115,"points":2,"place":1,"phase":0,"sequence":11,"prices":[155,245,155,81,180,130,156,306,166,115],"times":[575,211,333,252,716,512,447,534,536,828],"next_num":10,"trial_type":"ticket-choose","trial_index":31,"time_elapsed":447189,"internal_node_id":"0.0-31.0"},{"result":121,"points":2,"place":1,"phase":0,"sequence":12,"prices":[146,170,121,245,166,190,161,141,100,195],"times":[1076,462,1430],"next_num":3,"trial_type":"ticket-choose","trial_index":32,"time_elapsed":452660,"internal_node_id":"0.0-32.0"},{"result":81,"points":3,"place":0,"phase":0,"sequence":13,"prices":[81,205,130,151,191,261,145,210,250,165],"times":[1449],"next_num":1,"trial_type":"ticket-choose","trial_index":33,"time_elapsed":456875,"internal_node_id":"0.0-33.0"},{"result":66,"points":3,"place":0,"phase":0,"sequence":14,"prices":[66,201,96,150,185,230,121,216,225,165],"times":[1548],"next_num":1,"trial_type":"ticket-choose","trial_index":34,"time_elapsed":461035,"internal_node_id":"0.0-34.0"},{"result":105,"points":3,"place":0,"phase":0,"sequence":15,"prices":[150,175,166,251,170,196,126,145,105,201],"times":[704,296,437,505,482,543,520,621,818],"next_num":9,"trial_type":"ticket-choose","trial_index":35,"time_elapsed":472730,"internal_node_id":"0.0-35.0"},{"result":105,"points":3,"place":0,"phase":0,"sequence":16,"prices":[151,176,126,251,170,196,165,145,105,201],"times":[4656,513,259,545,374,530,492,946,996],"next_num":9,"trial_type":"ticket-choose","trial_index":36,"time_elapsed":488030,"internal_node_id":"0.0-36.0"},{"result":75,"points":3,"place":0,"phase":0,"sequence":17,"prices":[75,171,131,151,161,250,145,190,206,156],"times":[1453],"next_num":1,"trial_type":"ticket-choose","trial_index":37,"time_elapsed":491798,"internal_node_id":"0.0-37.0"},{"result":126,"points":2,"place":1,"phase":0,"sequence":18,"prices":[150,176,126,251,171,195,165,145,105,200],"times":[4007,683,940],"next_num":3,"trial_type":"ticket-choose","trial_index":38,"time_elapsed":499943,"internal_node_id":"0.0-38.0"},{"result":111,"points":3,"place":0,"phase":0,"sequence":19,"prices":[156,181,131,256,176,200,171,151,111,206],"times":[507,664,970,578,453,682,569,971,906],"next_num":9,"trial_type":"ticket-choose","trial_index":39,"time_elapsed":510469,"internal_node_id":"0.0-39.0"},{"result":185,"points":0,"place":5,"phase":0,"sequence":20,"prices":[181,156,145,165,236,231,201,260,150,185],"times":[1108,1055,634,781,772,2061,618,513,950,768],"next_num":10,"trial_type":"ticket-choose","trial_index":40,"time_elapsed":525706,"internal_node_id":"0.0-40.0"},{"result":131,"points":2,"place":1,"phase":0,"sequence":21,"prices":[160,180,170,251,176,195,131,146,105,200],"times":[10275,560,277,504,569,527,2398],"next_num":7,"trial_type":"ticket-choose","trial_index":41,"time_elapsed":544136,"internal_node_id":"0.0-41.0"},{"result":106,"points":2,"place":1,"phase":0,"sequence":22,"prices":[185,180,235,210,106,266,76,115,250,205],"times":[740,524,525,537,1155],"next_num":5,"trial_type":"ticket-choose","trial_index":42,"time_elapsed":550535,"internal_node_id":"0.0-42.0"},{"result":91,"points":3,"place":0,"phase":0,"sequence":23,"prices":[176,150,141,91,290,201,106,266,206,126],"times":[542,326,479,1046],"next_num":4,"trial_type":"ticket-choose","trial_index":43,"time_elapsed":555767,"internal_node_id":"0.0-43.0"},{"result":111,"points":3,"place":0,"phase":0,"sequence":24,"prices":[156,181,130,255,175,200,170,150,111,205],"times":[2396,943,412,510,468,510,530,4444,787],"next_num":9,"trial_type":"ticket-choose","trial_index":44,"time_elapsed":591590,"internal_node_id":"0.0-44.0"},{"result":95,"points":3,"place":0,"phase":0,"sequence":25,"prices":[150,171,121,241,165,185,160,136,95,191],"times":[1017,302,208,508,331,413,683,487,853],"next_num":9,"trial_type":"ticket-choose","trial_index":45,"time_elapsed":599965,"internal_node_id":"0.0-45.0"},{"result":105,"points":3,"place":0,"phase":0,"sequence":26,"prices":[161,180,131,251,175,196,171,146,105,201],"times":[3855,437,1841,489,498,506,501,746,805],"next_num":9,"trial_type":"ticket-choose","trial_index":46,"time_elapsed":613330,"internal_node_id":"0.0-46.0"},{"result":130,"points":2,"place":1,"phase":0,"sequence":27,"prices":[155,181,170,255,176,200,130,150,110,205],"times":[581,506,536,638,599,670,2106],"next_num":7,"trial_type":"ticket-choose","trial_index":47,"time_elapsed":622153,"internal_node_id":"0.0-47.0"},{"result":165,"points":2,"place":1,"phase":0,"sequence":28,"prices":[175,211,266,286,111,216,220,245,230,165],"times":[521,521,512,488,1704,476,668,833,745,1210],"next_num":10,"trial_type":"ticket-choose","trial_index":48,"time_elapsed":633626,"internal_node_id":"0.0-48.0"},{"result":106,"points":3,"place":0,"phase":0,"sequence":29,"prices":[180,106,166,245,211,261,215,125,135,190],"times":[543,918],"next_num":2,"trial_type":"ticket-choose","trial_index":49,"time_elapsed":637697,"internal_node_id":"0.0-49.0"},{"result":145,"points":2,"place":1,"phase":0,"sequence":30,"prices":[246,145,155,191,176,270,185,136,160,215],"times":[3924,1167],"next_num":2,"trial_type":"ticket-choose","trial_index":50,"time_elapsed":645073,"internal_node_id":"0.0-50.0"},{"result":220,"points":0,"place":8,"phase":0,"sequence":31,"prices":[226,205,125,120,115,135,180,145,150,220],"times":[3865,313,245,690,570,691,563,754,924,1814],"next_num":11,"trial_type":"ticket-choose","trial_index":51,"time_elapsed":659808,"internal_node_id":"0.0-51.0"},{"result":126,"points":2,"place":1,"phase":0,"sequence":32,"prices":[156,176,165,246,171,190,126,141,101,196],"times":[800,580,619,1919,550,631,1103],"next_num":7,"trial_type":"ticket-choose","trial_index":52,"time_elapsed":669255,"internal_node_id":"0.0-52.0"},{"result":131,"points":2,"place":1,"phase":0,"sequence":33,"prices":[161,180,171,250,176,195,131,146,105,201],"times":[585,494,278,530,419,574,1121],"next_num":7,"trial_type":"ticket-choose","trial_index":53,"time_elapsed":676424,"internal_node_id":"0.0-53.0"},{"result":101,"points":3,"place":0,"phase":0,"sequence":34,"prices":[155,175,166,245,171,190,125,140,101,196],"times":[1776,390,475,476,463,458,467,633,809],"next_num":9,"trial_type":"ticket-choose","trial_index":54,"time_elapsed":686087,"internal_node_id":"0.0-54.0"},{"result":100,"points":3,"place":0,"phase":0,"sequence":35,"prices":[145,171,161,245,165,191,120,140,100,196],"times":[594,328,221,480,441,474,534,832,654],"next_num":9,"trial_type":"ticket-choose","trial_index":55,"time_elapsed":706183,"internal_node_id":"0.0-55.0"},{"result":105,"points":3,"place":0,"phase":0,"sequence":36,"prices":[151,175,166,251,170,195,126,146,105,201],"times":[865,2795,348,293,373,3029,430,2523,757],"next_num":9,"trial_type":"ticket-choose","trial_index":56,"time_elapsed":786175,"internal_node_id":"0.0-56.0"},{"result":65,"points":2,"place":1,"phase":0,"sequence":37,"prices":[220,236,176,65,185,101,110,61,156,191],"times":[1037,1621,357,1037],"next_num":4,"trial_type":"ticket-choose","trial_index":57,"time_elapsed":798807,"internal_node_id":"0.0-57.0"},{"result":185,"points":1,"place":4,"phase":0,"sequence":38,"prices":[105,216,146,165,210,260,161,235,241,185],"times":[1097,454,381,486,541,452,699,533,550,702],"next_num":10,"trial_type":"ticket-choose","trial_index":58,"time_elapsed":808526,"internal_node_id":"0.0-58.0"},{"result":95,"points":3,"place":0,"phase":0,"sequence":39,"prices":[150,170,160,240,166,185,121,136,95,191],"times":[393,372,397,357,357,597,869,1701,662],"next_num":9,"trial_type":"ticket-choose","trial_index":59,"time_elapsed":818598,"internal_node_id":"0.0-59.0"},{"result":175,"points":1,"place":4,"phase":0,"sequence":40,"prices":[130,195,141,155,181,226,150,216,221,175],"times":[2274,491,350,470,653,677,869,845,757,1022],"next_num":10,"trial_type":"ticket-choose","trial_index":60,"time_elapsed":830805,"internal_node_id":"0.0-60.0"},{"result":196,"points":1,"place":4,"phase":0,"sequence":41,"prices":[120,221,135,185,200,261,181,251,255,196],"times":[563,533,309,397,461,461,549,581,531,678],"next_num":10,"trial_type":"ticket-choose","trial_index":61,"time_elapsed":839580,"internal_node_id":"0.0-61.0"},{"result":51,"points":3,"place":0,"phase":0,"sequence":42,"prices":[221,175,51,196,146,130,166,80,126,156],"times":[465,461,1024],"next_num":3,"trial_type":"ticket-choose","trial_index":62,"time_elapsed":844119,"internal_node_id":"0.0-62.0"},{"result":30,"points":3,"place":0,"phase":0,"sequence":43,"prices":[155,30,101,55,136,276,70,181,200,261],"times":[466,974],"next_num":2,"trial_type":"ticket-choose","trial_index":63,"time_elapsed":847599,"internal_node_id":"0.0-63.0"},{"result":96,"points":3,"place":0,"phase":0,"sequence":44,"prices":[150,171,120,241,165,185,160,135,96,190],"times":[450,485,477,485,453,484,494,955,1022],"next_num":9,"trial_type":"ticket-choose","trial_index":64,"time_elapsed":856535,"internal_node_id":"0.0-64.0"},{"result":100,"points":3,"place":0,"phase":0,"sequence":45,"prices":[156,175,126,246,170,190,165,140,100,196],"times":[522,429,469,541,517,557,557,894,1267],"next_num":9,"trial_type":"ticket-choose","trial_index":65,"time_elapsed":865878,"internal_node_id":"0.0-65.0"},{"result":105,"points":3,"place":0,"phase":0,"sequence":46,"prices":[160,180,130,251,176,195,170,146,105,200],"times":[737,429,429,517,462,509,477,749,1221],"next_num":9,"trial_type":"ticket-choose","trial_index":66,"time_elapsed":874894,"internal_node_id":"0.0-66.0"},{"result":130,"points":2,"place":1,"phase":0,"sequence":47,"prices":[155,225,245,130,176,106,180,211,165,200],"times":[1301,941,501,1413],"next_num":4,"trial_type":"ticket-choose","trial_index":67,"time_elapsed":881565,"internal_node_id":"0.0-67.0"},{"result":61,"points":3,"place":0,"phase":0,"sequence":48,"prices":[255,166,266,175,136,145,155,61,96,301],"times":[471,446,494,501,429,429,477,958],"next_num":8,"trial_type":"ticket-choose","trial_index":68,"time_elapsed":889670,"internal_node_id":"0.0-68.0"},{"result":150,"points":1,"place":4,"phase":0,"sequence":49,"prices":[111,231,131,146,171,295,141,241,271,150],"times":[353,325,246,381,517,469,630,508,533,726],"next_num":10,"trial_type":"ticket-choose","trial_index":69,"time_elapsed":898165,"internal_node_id":"0.0-69.0"},{"responses":[{"value":1,"offby":0,"category":"$30 - $75","category_index":0},{"value":2,"offby":0,"category":"$76 - $120","category_index":1},{"value":4,"offby":0,"category":"$121 - $165","category_index":2},{"value":8,"offby":2,"category":"$166 - $210","category_index":3},{"value":2,"offby":-4,"category":"$211 - $255","category_index":4},{"value":1,"offby":0,"category":"$256 - $300","category_index":5},{"value":0,"offby":0,"category":"$301 - $345","category_index":6}],"phase":0,"number":1,"trial_type":"bar-choose","trial_index":70,"time_elapsed":923236,"internal_node_id":"0.0-70.0"},{"rt":5927,"url":"\/tickets\/utils\/start2.html","trial_type":"html","trial_index":71,"time_elapsed":930271,"internal_node_id":"0.0-71.0"},{"trial_type":"number-animation","trial_index":72,"time_elapsed":941311,"internal_node_id":"0.0-72.0"},{"phase":1,"sequence":0,"avg":180,"response":175,"trial_type":"training_avg","trial_index":73,"time_elapsed":946015,"internal_node_id":"0.0-73.0"},{"trial_type":"number-animation","trial_index":74,"time_elapsed":953229,"internal_node_id":"0.0-74.0"},{"phase":1,"sequence":1,"avg":178,"response":180,"trial_type":"training_avg","trial_index":75,"time_elapsed":958430,"internal_node_id":"0.0-75.0"},{"trial_type":"number-animation","trial_index":76,"time_elapsed":965152,"internal_node_id":"0.0-76.0"},{"phase":1,"sequence":2,"avg":176,"response":173,"trial_type":"training_avg","trial_index":77,"time_elapsed":969192,"internal_node_id":"0.0-77.0"},{"trial_type":"number-animation","trial_index":78,"time_elapsed":975608,"internal_node_id":"0.0-78.0"},{"phase":1,"sequence":3,"avg":178,"response":176,"trial_type":"training_avg","trial_index":79,"time_elapsed":980848,"internal_node_id":"0.0-79.0"},{"trial_type":"number-animation","trial_index":80,"time_elapsed":992888,"internal_node_id":"0.0-80.0"},{"phase":1,"sequence":4,"avg":179,"response":177,"trial_type":"training_avg","trial_index":81,"time_elapsed":997911,"internal_node_id":"0.0-81.0"},{"responses":[{"value":0,"offby":0,"category":"$140 - $250","category_index":0},{"value":1,"offby":1,"category":"$151 - $160","category_index":1},{"value":3,"offby":-1,"category":"$161 - $170","category_index":2},{"value":12,"offby":6,"category":"$171 - $180","category_index":3},{"value":3,"offby":-4,"category":"$181 - $190","category_index":4},{"value":1,"offby":-2,"category":"$191 - $200","category_index":5},{"value":0,"offby":0,"category":"$201 - $210","category_index":6}],"phase":1,"number":0,"trial_type":"bar-choose","trial_index":82,"time_elapsed":1024890,"internal_node_id":"0.0-82.0"},{"rt":2436,"url":"\/tickets\/utils\/testing2.html","trial_type":"html","trial_index":83,"time_elapsed":1028433,"internal_node_id":"0.0-83.0"},{"phase":1,"order":[18,24,1,37,40,15,23,38,21,32,25,42,19,30,31,6,2,28,3,10,47,13,34,45,11,16,8,14,46,41,48,36,5,12,4,22,7,43,26,20,33,27,35,44,17,0,9,49,39,29],"trial_type":"store_order","trial_index":84,"time_elapsed":1029435,"internal_node_id":"0.0-84.0"},{"result":166,"points":3,"place":0,"phase":1,"sequence":0,"prices":[175,180,170,195,179,184,178,174,166,185],"times":[4680,468,822,597,535,819,757,942,950],"next_num":9,"trial_type":"ticket-choose","trial_index":85,"time_elapsed":1047344,"internal_node_id":"0.0-85.0"},{"result":163,"points":3,"place":0,"phase":1,"sequence":1,"prices":[174,178,168,192,177,181,176,171,163,182],"times":[491,267,213,533,452,637,661,557,805],"next_num":9,"trial_type":"ticket-choose","trial_index":86,"time_elapsed":1055518,"internal_node_id":"0.0-86.0"},{"result":168,"points":2,"place":1,"phase":1,"sequence":2,"prices":[173,178,176,193,177,182,168,172,164,183],"times":[1023,1463,828,539,485,549,814],"next_num":7,"trial_type":"ticket-choose","trial_index":87,"time_elapsed":1064414,"internal_node_id":"0.0-87.0"},{"result":175,"points":1,"place":4,"phase":1,"sequence":3,"prices":[171,180,172,174,179,188,173,183,186,175],"times":[1257,437,565,525,438,516,747,757,941,1517],"next_num":10,"trial_type":"ticket-choose","trial_index":88,"time_elapsed":1075926,"internal_node_id":"0.0-88.0"},{"result":179,"points":1,"place":4,"phase":1,"sequence":4,"prices":[170,183,172,175,180,189,174,187,188,179],"times":[554,546,565,566,572,659,693,821,781,937],"next_num":10,"trial_type":"ticket-choose","trial_index":89,"time_elapsed":1086488,"internal_node_id":"0.0-89.0"},{"result":177,"points":1,"place":4,"phase":1,"sequence":5,"prices":[160,185,170,174,182,196,173,186,194,177],"times":[386,780,533,582,628,613,853,600,541,669],"next_num":10,"trial_type":"ticket-choose","trial_index":90,"time_elapsed":1096504,"internal_node_id":"0.0-90.0"},{"result":170,"points":3,"place":0,"phase":1,"sequence":6,"prices":[181,179,199,188,170,172,178,187,191,177],"times":[1081,525,525,542,1005],"next_num":5,"trial_type":"ticket-choose","trial_index":91,"time_elapsed":1103104,"internal_node_id":"0.0-91.0"},{"result":173,"points":2,"place":1,"phase":1,"sequence":7,"prices":[193,173,175,182,179,198,181,171,176,187],"times":[593,1469],"next_num":2,"trial_type":"ticket-choose","trial_index":92,"time_elapsed":1107247,"internal_node_id":"0.0-92.0"},{"result":170,"points":2,"place":1,"phase":1,"sequence":8,"prices":[176,180,178,194,179,183,170,173,165,184],"times":[1502,525,607,564,611,613,1229],"next_num":7,"trial_type":"ticket-choose","trial_index":93,"time_elapsed":1116111,"internal_node_id":"0.0-93.0"},{"result":172,"points":1,"place":2,"phase":1,"sequence":9,"prices":[166,190,170,173,178,203,172,192,198,174],"times":[442,676,581,597,565,742,2140],"next_num":7,"trial_type":"ticket-choose","trial_index":94,"time_elapsed":1125094,"internal_node_id":"0.0-94.0"},{"result":168,"points":2,"place":1,"phase":1,"sequence":10,"prices":[173,178,168,193,177,182,176,172,164,183],"times":[394,733,895],"next_num":3,"trial_type":"ticket-choose","trial_index":95,"time_elapsed":1129471,"internal_node_id":"0.0-95.0"},{"result":190,"points":0,"place":7,"phase":1,"sequence":11,"prices":[179,174,199,178,196,167,170,184,177,190],"times":[544,461,646,524,445,493,549,702,893,781],"next_num":10,"trial_type":"ticket-choose","trial_index":96,"time_elapsed":1139166,"internal_node_id":"0.0-96.0"},{"result":168,"points":2,"place":1,"phase":1,"sequence":12,"prices":[181,175,182,168,183,173,153,170,193,179],"times":[433,325,461,894],"next_num":4,"trial_type":"ticket-choose","trial_index":97,"time_elapsed":1143734,"internal_node_id":"0.0-97.0"},{"result":169,"points":2,"place":1,"phase":1,"sequence":13,"prices":[175,179,169,193,178,182,177,172,164,183],"times":[762,470,1133],"next_num":3,"trial_type":"ticket-choose","trial_index":98,"time_elapsed":1148329,"internal_node_id":"0.0-98.0"},{"result":159,"points":3,"place":0,"phase":1,"sequence":14,"prices":[181,180,191,186,165,197,159,167,194,185],"times":[582,476,876,476,262,604,781],"next_num":7,"trial_type":"ticket-choose","trial_index":99,"time_elapsed":1155616,"internal_node_id":"0.0-99.0"},{"result":165,"points":3,"place":0,"phase":1,"sequence":15,"prices":[174,179,169,194,178,183,177,173,165,184],"times":[656,493,381,468,652,469,533,1142,773],"next_num":9,"trial_type":"ticket-choose","trial_index":100,"time_elapsed":1164976,"internal_node_id":"0.0-100.0"},{"result":154,"points":3,"place":0,"phase":1,"sequence":16,"prices":[188,179,154,183,173,170,177,160,169,175],"times":[590,621,837],"next_num":3,"trial_type":"ticket-choose","trial_index":101,"time_elapsed":1169336,"internal_node_id":"0.0-101.0"},{"result":175,"points":1,"place":4,"phase":1,"sequence":17,"prices":[159,178,170,174,176,194,173,182,185,175],"times":[489,643,621,526,476,477,950,541,557,669],"next_num":10,"trial_type":"ticket-choose","trial_index":102,"time_elapsed":1178959,"internal_node_id":"0.0-102.0"},{"result":150,"points":3,"place":0,"phase":1,"sequence":18,"prices":[175,150,164,155,171,199,158,180,184,196],"times":[454,912],"next_num":2,"trial_type":"ticket-choose","trial_index":103,"time_elapsed":1182440,"internal_node_id":"0.0-103.0"},{"result":169,"points":1,"place":2,"phase":1,"sequence":19,"prices":[189,185,169,168,167,171,180,173,174,188],"times":[769,492,1212],"next_num":3,"trial_type":"ticket-choose","trial_index":104,"time_elapsed":1187241,"internal_node_id":"0.0-104.0"},{"result":165,"points":3,"place":0,"phase":1,"sequence":20,"prices":[180,165,177,193,186,196,187,169,171,182],"times":[407,1054],"next_num":2,"trial_type":"ticket-choose","trial_index":105,"time_elapsed":1191207,"internal_node_id":"0.0-105.0"},{"result":166,"points":3,"place":0,"phase":1,"sequence":21,"prices":[175,180,178,195,179,184,170,174,166,185],"times":[553,469,469,534,492,477,453,508,742],"next_num":9,"trial_type":"ticket-choose","trial_index":106,"time_elapsed":1199591,"internal_node_id":"0.0-106.0"},{"result":167,"points":2,"place":1,"phase":1,"sequence":22,"prices":[175,193,175,160,180,170,175,205,177,167],"times":[1016,661,357,317,621,574,550,517,501,853],"next_num":10,"trial_type":"ticket-choose","trial_index":107,"time_elapsed":1209248,"internal_node_id":"0.0-107.0"},{"result":163,"points":3,"place":0,"phase":1,"sequence":23,"prices":[163,185,165,174,181,198,173,186,187,180],"times":[1185],"next_num":1,"trial_type":"ticket-choose","trial_index":108,"time_elapsed":1212328,"internal_node_id":"0.0-108.0"},{"result":168,"points":2,"place":1,"phase":1,"sequence":24,"prices":[174,178,176,192,177,181,168,171,163,182],"times":[608,637,518,580,501,446,878],"next_num":7,"trial_type":"ticket-choose","trial_index":109,"time_elapsed":1219560,"internal_node_id":"0.0-109.0"},{"result":183,"points":1,"place":4,"phase":1,"sequence":25,"prices":[168,188,171,181,184,196,180,194,195,183],"times":[617,437,509,477,461,365,453,494,540,629],"next_num":10,"trial_type":"ticket-choose","trial_index":110,"time_elapsed":1228215,"internal_node_id":"0.0-110.0"},{"result":166,"points":3,"place":0,"phase":1,"sequence":26,"prices":[179,186,197,201,166,187,188,193,190,177],"times":[450,524,485,696,886],"next_num":5,"trial_type":"ticket-choose","trial_index":111,"time_elapsed":1233888,"internal_node_id":"0.0-111.0"},{"result":169,"points":2,"place":1,"phase":1,"sequence":27,"prices":[175,179,177,193,178,182,169,172,164,183],"times":[753,406,476,565,477,597,1118],"next_num":7,"trial_type":"ticket-choose","trial_index":112,"time_elapsed":1241375,"internal_node_id":"0.0-112.0"},{"result":168,"points":2,"place":1,"phase":1,"sequence":28,"prices":[174,178,168,192,177,181,176,171,163,182],"times":[345,445,1046],"next_num":3,"trial_type":"ticket-choose","trial_index":113,"time_elapsed":1245391,"internal_node_id":"0.0-113.0"},{"result":165,"points":3,"place":0,"phase":1,"sequence":29,"prices":[176,180,170,194,179,183,178,173,165,184],"times":[441,484,501,499,661,477,573,621,766],"next_num":9,"trial_type":"ticket-choose","trial_index":114,"time_elapsed":1253911,"internal_node_id":"0.0-114.0"},{"result":164,"points":3,"place":0,"phase":1,"sequence":30,"prices":[175,179,177,193,178,182,169,172,164,183],"times":[664,432,322,476,484,533,453,380,878],"next_num":9,"trial_type":"ticket-choose","trial_index":115,"time_elapsed":1261958,"internal_node_id":"0.0-115.0"},{"result":170,"points":2,"place":1,"phase":1,"sequence":31,"prices":[175,180,178,195,179,184,170,174,166,185],"times":[553,389,445,576,517,629,1294],"next_num":7,"trial_type":"ticket-choose","trial_index":116,"time_elapsed":1269537,"internal_node_id":"0.0-116.0"},{"result":156,"points":3,"place":0,"phase":1,"sequence":32,"prices":[195,177,197,179,171,173,175,156,163,204],"times":[497,852,349,501,541,1101,476,933],"next_num":8,"trial_type":"ticket-choose","trial_index":117,"time_elapsed":1278209,"internal_node_id":"0.0-117.0"},{"result":157,"points":3,"place":0,"phase":1,"sequence":33,"prices":[157,184,163,174,181,190,168,187,189,177],"times":[969],"next_num":1,"trial_type":"ticket-choose","trial_index":118,"time_elapsed":1280992,"internal_node_id":"0.0-118.0"},{"result":169,"points":2,"place":1,"phase":1,"sequence":34,"prices":[174,179,177,194,178,183,169,173,165,184],"times":[645,381,381,421,533,486,1150],"next_num":7,"trial_type":"ticket-choose","trial_index":119,"time_elapsed":1288057,"internal_node_id":"0.0-119.0"},{"result":166,"points":3,"place":0,"phase":1,"sequence":35,"prices":[175,180,170,195,179,184,178,174,166,185],"times":[371,452,470,477,429,349,365,581,782],"next_num":9,"trial_type":"ticket-choose","trial_index":120,"time_elapsed":1295728,"internal_node_id":"0.0-120.0"},{"result":165,"points":3,"place":0,"phase":1,"sequence":36,"prices":[176,180,178,194,179,183,170,173,165,184],"times":[462,269,389,309,357,462,428,510,734],"next_num":9,"trial_type":"ticket-choose","trial_index":121,"time_elapsed":1303208,"internal_node_id":"0.0-121.0"},{"result":165,"points":3,"place":0,"phase":1,"sequence":37,"prices":[174,179,169,194,178,183,177,173,165,184],"times":[354,277,245,405,701,365,477,525,741],"next_num":9,"trial_type":"ticket-choose","trial_index":122,"time_elapsed":1310743,"internal_node_id":"0.0-122.0"},{"result":166,"points":1,"place":3,"phase":1,"sequence":38,"prices":[188,191,179,157,181,164,166,156,175,182],"times":[706,637,411,333,692,485,734],"next_num":7,"trial_type":"ticket-choose","trial_index":123,"time_elapsed":1317879,"internal_node_id":"0.0-123.0"},{"result":161,"points":3,"place":0,"phase":1,"sequence":39,"prices":[161,180,170,174,178,198,173,182,188,176],"times":[1135],"next_num":1,"trial_type":"ticket-choose","trial_index":124,"time_elapsed":1321015,"internal_node_id":"0.0-124.0"},{"result":168,"points":2,"place":1,"phase":1,"sequence":40,"prices":[173,178,176,193,177,182,168,172,164,183],"times":[793,709,501,485,495,453,1222],"next_num":7,"trial_type":"ticket-choose","trial_index":125,"time_elapsed":1328824,"internal_node_id":"0.0-125.0"},{"result":181,"points":0,"place":5,"phase":1,"sequence":41,"prices":[180,175,173,177,191,190,184,196,174,181],"times":[446,486,428,486,589,574,581,565,645,966],"next_num":10,"trial_type":"ticket-choose","trial_index":126,"time_elapsed":1338385,"internal_node_id":"0.0-126.0"},{"result":165,"points":3,"place":0,"phase":1,"sequence":42,"prices":[176,180,170,194,179,183,178,173,165,184],"times":[1145,302,740,525,477,469,413,533,748],"next_num":9,"trial_type":"ticket-choose","trial_index":127,"time_elapsed":1347455,"internal_node_id":"0.0-127.0"},{"result":165,"points":3,"place":0,"phase":1,"sequence":43,"prices":[174,179,177,194,178,183,169,173,165,184],"times":[440,293,437,374,871,540,349,445,678],"next_num":9,"trial_type":"ticket-choose","trial_index":128,"time_elapsed":1355415,"internal_node_id":"0.0-128.0"},{"result":172,"points":1,"place":2,"phase":1,"sequence":44,"prices":[173,178,168,193,177,182,176,172,164,183],"times":[486,325,309,395,693,493,517,1685],"next_num":8,"trial_type":"ticket-choose","trial_index":129,"time_elapsed":1363631,"internal_node_id":"0.0-129.0"},{"result":181,"points":1,"place":4,"phase":1,"sequence":45,"prices":[165,187,173,177,186,196,176,191,192,181],"times":[398,573,269,405,405,427,349,709,549,605],"next_num":10,"trial_type":"ticket-choose","trial_index":130,"time_elapsed":1371958,"internal_node_id":"0.0-130.0"},{"result":168,"points":2,"place":1,"phase":1,"sequence":46,"prices":[174,178,176,192,177,181,168,171,163,182],"times":[792,1372,757,1365,1461,589,957],"next_num":7,"trial_type":"ticket-choose","trial_index":131,"time_elapsed":1382366,"internal_node_id":"0.0-131.0"},{"result":164,"points":3,"place":0,"phase":1,"sequence":47,"prices":[175,179,169,193,178,182,177,172,164,183],"times":[688,523,936,517,477,630,573,605,862],"next_num":9,"trial_type":"ticket-choose","trial_index":132,"time_elapsed":1391682,"internal_node_id":"0.0-132.0"},{"result":169,"points":1,"place":2,"phase":1,"sequence":48,"prices":[179,174,172,162,202,184,165,197,185,169],"times":[1128,583,452,477,677,533,877,869,621,709],"next_num":10,"trial_type":"ticket-choose","trial_index":133,"time_elapsed":1402296,"internal_node_id":"0.0-133.0"},{"result":165,"points":3,"place":0,"phase":1,"sequence":49,"prices":[175,189,193,170,179,165,180,186,177,184],"times":[697,455,514,493,669,943],"next_num":6,"trial_type":"ticket-choose","trial_index":134,"time_elapsed":1409240,"internal_node_id":"0.0-134.0"},{"responses":[{"value":1,"offby":1,"category":"$140 - $250","category_index":0},{"value":2,"offby":2,"category":"$151 - $160","category_index":1},{"value":4,"offby":0,"category":"$161 - $170","category_index":2},{"value":7,"offby":1,"category":"$171 - $180","category_index":3},{"value":5,"offby":-2,"category":"$181 - $190","category_index":4},{"value":1,"offby":-2,"category":"$191 - $200","category_index":5},{"value":0,"offby":0,"category":"$201 - $210","category_index":6}],"phase":1,"number":1,"trial_type":"bar-choose","trial_index":135,"time_elapsed":1435393,"internal_node_id":"0.0-135.0"},{"special_comment":"Theyusually always had ay least 1 160 card.","trial_type":"special_sequence","trial_index":136,"time_elapsed":1461794,"internal_node_id":"0.0-136.0"},{"during":"Nothing","bonus":296,"trial_type":"final","trial_index":137,"time_elapsed":1477531,"internal_node_id":"0.0-137.0"}],"bonus":296}