{"start_time":"2017-02-16 15:30:24","end_time":"2017-02-16 15:51:27","points_phase0":108,"points_phase1":116,"phase_order":1,"age":33,"gender":"m","tries":1,"during":"Nothing","worker_id":"A15V8K8M4TXT9Y","assignment_id":"3WI0P0II62LB7WV18PK1XS1YJQXRD7","data":[{"rt":28389,"url":"\/tickets\/utils\/consent.html","trial_type":"html","trial_index":0,"time_elapsed":28524,"internal_node_id":"0.0-0.0"},{"age":33,"gender":"m","trial_type":"age","trial_index":1,"time_elapsed":32995,"internal_node_id":"0.0-1.0"},{"worker_id":"A15V8K8M4TXT9Y","trial_type":"workerid","trial_index":2,"time_elapsed":41154,"internal_node_id":"0.0-2.0"},{"tries":1,"trial_type":"instructions_check","trial_index":3,"time_elapsed":78515,"internal_node_id":"0.0-3.0"},{"rt":25843,"url":"\/tickets\/utils\/start.html","trial_type":"html","trial_index":4,"time_elapsed":105499,"internal_node_id":"0.0-4.0"},{"trial_type":"number-animation","trial_index":5,"time_elapsed":119581,"internal_node_id":"0.0-5.0"},{"phase":0,"sequence":0,"avg":182,"response":165,"trial_type":"training_avg","trial_index":6,"time_elapsed":128291,"internal_node_id":"0.0-6.0"},{"trial_type":"number-animation","trial_index":7,"time_elapsed":140188,"internal_node_id":"0.0-7.0"},{"phase":0,"sequence":1,"avg":188,"response":200,"trial_type":"training_avg","trial_index":8,"time_elapsed":151307,"internal_node_id":"0.0-8.0"},{"trial_type":"number-animation","trial_index":9,"time_elapsed":161132,"internal_node_id":"0.0-9.0"},{"phase":0,"sequence":2,"avg":176,"response":170,"trial_type":"training_avg","trial_index":10,"time_elapsed":167107,"internal_node_id":"0.0-10.0"},{"trial_type":"number-animation","trial_index":11,"time_elapsed":175403,"internal_node_id":"0.0-11.0"},{"phase":0,"sequence":3,"avg":180,"response":172,"trial_type":"training_avg","trial_index":12,"time_elapsed":181402,"internal_node_id":"0.0-12.0"},{"trial_type":"number-animation","trial_index":13,"time_elapsed":189281,"internal_node_id":"0.0-13.0"},{"phase":0,"sequence":4,"avg":174,"response":178,"trial_type":"training_avg","trial_index":14,"time_elapsed":196410,"internal_node_id":"0.0-14.0"},{"responses":[{"value":0,"offby":-1,"category":"$90 - $120","category_index":0},{"value":2,"offby":-1,"category":"$121 - $145","category_index":1},{"value":4,"offby":1,"category":"$146 - $170","category_index":2},{"value":8,"offby":2,"category":"$171 - $195","category_index":3},{"value":3,"offby":-1,"category":"$196 - $220","category_index":4},{"value":2,"offby":0,"category":"$221 - $245","category_index":5},{"value":1,"offby":0,"category":"$246 - $270","category_index":6}],"phase":0,"number":0,"trial_type":"bar-choose","trial_index":15,"time_elapsed":256268,"internal_node_id":"0.0-15.0"},{"rt":17699,"url":"\/tickets\/\/utils\/testing.html","trial_type":"html","trial_index":16,"time_elapsed":275123,"internal_node_id":"0.0-16.0"},{"phase":0,"order":[40,24,0,33,6,3,31,32,26,38,17,13,27,29,11,46,22,14,12,18,10,20,41,45,28,37,39,2,7,23,19,25,8,35,36,21,43,16,42,49,1,4,30,9,5,44,47,48,15,34],"trial_type":"store_order","trial_index":17,"time_elapsed":276128,"internal_node_id":"0.0-17.0"},{"result":126,"points":3,"place":0,"phase":0,"sequence":-1,"times":[3235,1422,1037,5134,782,814,879,909,798,1524],"next_num":10,"trial_type":"ticket-choose","trial_index":18,"time_elapsed":297091,"internal_node_id":"0.0-18.0"},{"rt":42157,"url":"\/tickets\/utils\/testing_after.html","trial_type":"html","trial_index":19,"time_elapsed":340403,"internal_node_id":"0.0-19.0"},{"result":136,"points":2,"place":1,"phase":0,"sequence":0,"times":[2045,757,1303],"next_num":3,"trial_type":"ticket-choose","trial_index":20,"time_elapsed":348010,"internal_node_id":"0.0-20.0"},{"result":117,"points":3,"place":0,"phase":0,"sequence":1,"times":[1483],"next_num":1,"trial_type":"ticket-choose","trial_index":21,"time_elapsed":351563,"internal_node_id":"0.0-21.0"},{"result":136,"points":2,"place":1,"phase":0,"sequence":2,"times":[1058,615,1110],"next_num":3,"trial_type":"ticket-choose","trial_index":22,"time_elapsed":356946,"internal_node_id":"0.0-22.0"},{"result":130,"points":2,"place":1,"phase":0,"sequence":3,"times":[1001,1045],"next_num":2,"trial_type":"ticket-choose","trial_index":23,"time_elapsed":361258,"internal_node_id":"0.0-23.0"},{"result":158,"points":1,"place":2,"phase":0,"sequence":4,"times":[1570,565,1148,590,662,710,861,1062],"next_num":8,"trial_type":"ticket-choose","trial_index":24,"time_elapsed":372746,"internal_node_id":"0.0-24.0"},{"result":154,"points":2,"place":1,"phase":0,"sequence":5,"times":[1554,693,814,678,789,726,1670],"next_num":7,"trial_type":"ticket-choose","trial_index":25,"time_elapsed":383450,"internal_node_id":"0.0-25.0"},{"result":146,"points":2,"place":1,"phase":0,"sequence":6,"times":[1771,574,638,526,549,551,940],"next_num":7,"trial_type":"ticket-choose","trial_index":26,"time_elapsed":392602,"internal_node_id":"0.0-26.0"},{"result":146,"points":2,"place":1,"phase":0,"sequence":7,"times":[1087,625,532,500,597,572,1034],"next_num":7,"trial_type":"ticket-choose","trial_index":27,"time_elapsed":400899,"internal_node_id":"0.0-27.0"},{"result":170,"points":1,"place":3,"phase":0,"sequence":8,"times":[627],"next_num":1,"trial_type":"ticket-choose","trial_index":28,"time_elapsed":404842,"internal_node_id":"0.0-28.0"},{"result":156,"points":1,"place":2,"phase":0,"sequence":9,"times":[815,502,1582,468,557,567,535,2013],"next_num":8,"trial_type":"ticket-choose","trial_index":29,"time_elapsed":416226,"internal_node_id":"0.0-29.0"},{"result":154,"points":2,"place":1,"phase":0,"sequence":10,"times":[997,647,580,558,517,534,1539],"next_num":7,"trial_type":"ticket-choose","trial_index":30,"time_elapsed":425827,"internal_node_id":"0.0-30.0"},{"result":114,"points":3,"place":0,"phase":0,"sequence":11,"times":[635,727,846,1045],"next_num":4,"trial_type":"ticket-choose","trial_index":31,"time_elapsed":431827,"internal_node_id":"0.0-31.0"},{"result":146,"points":2,"place":1,"phase":0,"sequence":12,"times":[1684,525,1213],"next_num":3,"trial_type":"ticket-choose","trial_index":32,"time_elapsed":437857,"internal_node_id":"0.0-32.0"},{"result":136,"points":2,"place":1,"phase":0,"sequence":13,"times":[721,594,614,535,732,589,1039],"next_num":7,"trial_type":"ticket-choose","trial_index":33,"time_elapsed":446162,"internal_node_id":"0.0-33.0"},{"result":125,"points":3,"place":0,"phase":0,"sequence":14,"times":[512,501,511,566,572,518,1859,541,907,1084],"next_num":10,"trial_type":"ticket-choose","trial_index":34,"time_elapsed":457713,"internal_node_id":"0.0-34.0"},{"result":162,"points":1,"place":3,"phase":0,"sequence":15,"times":[552,829,454,493,511,620,679,606,555,852],"next_num":10,"trial_type":"ticket-choose","trial_index":35,"time_elapsed":467737,"internal_node_id":"0.0-35.0"},{"result":189,"points":1,"place":4,"phase":0,"sequence":16,"times":[681,500,544,517,550,532,704,878,542,869],"next_num":10,"trial_type":"ticket-choose","trial_index":36,"time_elapsed":477956,"internal_node_id":"0.0-36.0"},{"result":121,"points":3,"place":0,"phase":0,"sequence":17,"times":[1263],"next_num":1,"trial_type":"ticket-choose","trial_index":37,"time_elapsed":481280,"internal_node_id":"0.0-37.0"},{"result":124,"points":3,"place":0,"phase":0,"sequence":18,"times":[1172,509,439,866],"next_num":4,"trial_type":"ticket-choose","trial_index":38,"time_elapsed":486820,"internal_node_id":"0.0-38.0"},{"result":132,"points":3,"place":0,"phase":0,"sequence":19,"times":[1081],"next_num":1,"trial_type":"ticket-choose","trial_index":39,"time_elapsed":489819,"internal_node_id":"0.0-39.0"},{"result":149,"points":1,"place":2,"phase":0,"sequence":20,"times":[630,444,925,430,461,468,495,1197],"next_num":8,"trial_type":"ticket-choose","trial_index":40,"time_elapsed":498404,"internal_node_id":"0.0-40.0"},{"result":119,"points":3,"place":0,"phase":0,"sequence":21,"times":[728,956],"next_num":2,"trial_type":"ticket-choose","trial_index":41,"time_elapsed":502268,"internal_node_id":"0.0-41.0"},{"result":136,"points":2,"place":1,"phase":0,"sequence":22,"times":[1213,446,516,501,543,499,1247],"next_num":7,"trial_type":"ticket-choose","trial_index":42,"time_elapsed":510548,"internal_node_id":"0.0-42.0"},{"result":136,"points":2,"place":1,"phase":0,"sequence":23,"times":[519,430,445,495,510,478,1027],"next_num":7,"trial_type":"ticket-choose","trial_index":43,"time_elapsed":517594,"internal_node_id":"0.0-43.0"},{"result":136,"points":2,"place":1,"phase":0,"sequence":24,"times":[216,461,446,427,436,454,860],"next_num":7,"trial_type":"ticket-choose","trial_index":44,"time_elapsed":523995,"internal_node_id":"0.0-44.0"},{"result":153,"points":1,"place":2,"phase":0,"sequence":25,"times":[511,429,844,391,532,518,551,2246],"next_num":8,"trial_type":"ticket-choose","trial_index":45,"time_elapsed":533493,"internal_node_id":"0.0-45.0"},{"result":133,"points":3,"place":0,"phase":0,"sequence":26,"times":[493,398,1443,430,447,443,469,759,797,903],"next_num":10,"trial_type":"ticket-choose","trial_index":46,"time_elapsed":543795,"internal_node_id":"0.0-46.0"},{"result":146,"points":2,"place":1,"phase":0,"sequence":27,"times":[754,515,446,462,567,541,1197],"next_num":7,"trial_type":"ticket-choose","trial_index":47,"time_elapsed":551362,"internal_node_id":"0.0-47.0"},{"result":188,"points":1,"place":4,"phase":0,"sequence":28,"times":[525,663,501,454,443,471,516,542,717,854],"next_num":10,"trial_type":"ticket-choose","trial_index":48,"time_elapsed":560771,"internal_node_id":"0.0-48.0"},{"result":146,"points":2,"place":1,"phase":0,"sequence":29,"times":[792,450,2716],"next_num":3,"trial_type":"ticket-choose","trial_index":49,"time_elapsed":567059,"internal_node_id":"0.0-49.0"},{"result":128,"points":3,"place":0,"phase":0,"sequence":30,"times":[329,455,597,486,454,453,519,941],"next_num":8,"trial_type":"ticket-choose","trial_index":50,"time_elapsed":574563,"internal_node_id":"0.0-50.0"},{"result":136,"points":3,"place":0,"phase":0,"sequence":31,"times":[461,491,477,492,428,934],"next_num":6,"trial_type":"ticket-choose","trial_index":51,"time_elapsed":581012,"internal_node_id":"0.0-51.0"},{"result":136,"points":2,"place":1,"phase":0,"sequence":32,"times":[758,460,1055],"next_num":3,"trial_type":"ticket-choose","trial_index":52,"time_elapsed":585643,"internal_node_id":"0.0-52.0"},{"result":116,"points":3,"place":0,"phase":0,"sequence":33,"times":[1750,828,463,444,510,820],"next_num":6,"trial_type":"ticket-choose","trial_index":53,"time_elapsed":594267,"internal_node_id":"0.0-53.0"},{"result":137,"points":3,"place":0,"phase":0,"sequence":34,"times":[1687],"next_num":1,"trial_type":"ticket-choose","trial_index":54,"time_elapsed":597930,"internal_node_id":"0.0-54.0"},{"result":146,"points":3,"place":0,"phase":0,"sequence":35,"times":[955,460,653,437,494,458,470,1405],"next_num":8,"trial_type":"ticket-choose","trial_index":55,"time_elapsed":606811,"internal_node_id":"0.0-55.0"},{"result":135,"points":3,"place":0,"phase":0,"sequence":36,"times":[1249],"next_num":1,"trial_type":"ticket-choose","trial_index":56,"time_elapsed":609947,"internal_node_id":"0.0-56.0"},{"result":192,"points":1,"place":4,"phase":0,"sequence":37,"times":[721,430,461,453,446,460,590,556,543,940],"next_num":10,"trial_type":"ticket-choose","trial_index":57,"time_elapsed":619362,"internal_node_id":"0.0-57.0"},{"result":145,"points":2,"place":1,"phase":0,"sequence":38,"times":[432,411,678,2709],"next_num":4,"trial_type":"ticket-choose","trial_index":58,"time_elapsed":626083,"internal_node_id":"0.0-58.0"},{"result":146,"points":2,"place":1,"phase":0,"sequence":39,"times":[626,447,404,438,462,524,2139],"next_num":7,"trial_type":"ticket-choose","trial_index":59,"time_elapsed":634290,"internal_node_id":"0.0-59.0"},{"result":196,"points":1,"place":4,"phase":0,"sequence":40,"times":[2371,407,413,470,428,437,703,487,670,774],"next_num":10,"trial_type":"ticket-choose","trial_index":60,"time_elapsed":645148,"internal_node_id":"0.0-60.0"},{"result":136,"points":2,"place":1,"phase":0,"sequence":41,"times":[412,413,884],"next_num":3,"trial_type":"ticket-choose","trial_index":61,"time_elapsed":649131,"internal_node_id":"0.0-61.0"},{"result":138,"points":1,"place":2,"phase":0,"sequence":42,"times":[467,971],"next_num":2,"trial_type":"ticket-choose","trial_index":62,"time_elapsed":652667,"internal_node_id":"0.0-62.0"},{"result":136,"points":2,"place":1,"phase":0,"sequence":43,"times":[342,428,1261],"next_num":3,"trial_type":"ticket-choose","trial_index":63,"time_elapsed":657770,"internal_node_id":"0.0-63.0"},{"result":126,"points":3,"place":0,"phase":0,"sequence":44,"times":[520,486,619,487,493,504,549,2781,492,662],"next_num":10,"trial_type":"ticket-choose","trial_index":64,"time_elapsed":669145,"internal_node_id":"0.0-64.0"},{"result":105,"points":3,"place":0,"phase":0,"sequence":45,"times":[629,869,431,463,889],"next_num":5,"trial_type":"ticket-choose","trial_index":65,"time_elapsed":675177,"internal_node_id":"0.0-65.0"},{"result":149,"points":3,"place":0,"phase":0,"sequence":46,"times":[950,476,476,408,974,453,500,1310],"next_num":8,"trial_type":"ticket-choose","trial_index":66,"time_elapsed":684331,"internal_node_id":"0.0-66.0"},{"result":135,"points":3,"place":0,"phase":0,"sequence":47,"times":[592,514,863],"next_num":3,"trial_type":"ticket-choose","trial_index":67,"time_elapsed":688594,"internal_node_id":"0.0-67.0"},{"result":131,"points":2,"place":1,"phase":0,"sequence":48,"times":[501,469,1069],"next_num":3,"trial_type":"ticket-choose","trial_index":68,"time_elapsed":693234,"internal_node_id":"0.0-68.0"},{"result":108,"points":3,"place":0,"phase":0,"sequence":49,"times":[540,444,429,455,485,780],"next_num":6,"trial_type":"ticket-choose","trial_index":69,"time_elapsed":699402,"internal_node_id":"0.0-69.0"},{"responses":[{"value":1,"offby":0,"category":"$90 - $120","category_index":0},{"value":2,"offby":-1,"category":"$121 - $145","category_index":1},{"value":4,"offby":1,"category":"$146 - $170","category_index":2},{"value":6,"offby":0,"category":"$171 - $195","category_index":3},{"value":4,"offby":0,"category":"$196 - $220","category_index":4},{"value":2,"offby":0,"category":"$221 - $245","category_index":5},{"value":1,"offby":0,"category":"$246 - $270","category_index":6}],"phase":0,"number":1,"trial_type":"bar-choose","trial_index":70,"time_elapsed":725667,"internal_node_id":"0.0-70.0"},{"rt":17367,"url":"\/tickets\/utils\/start2.html","trial_type":"html","trial_index":71,"time_elapsed":744186,"internal_node_id":"0.0-71.0"},{"trial_type":"number-animation","trial_index":72,"time_elapsed":754066,"internal_node_id":"0.0-72.0"},{"phase":1,"sequence":0,"avg":181,"response":166,"trial_type":"training_avg","trial_index":73,"time_elapsed":761956,"internal_node_id":"0.0-73.0"},{"trial_type":"number-animation","trial_index":74,"time_elapsed":768889,"internal_node_id":"0.0-74.0"},{"phase":1,"sequence":1,"avg":188,"response":186,"trial_type":"training_avg","trial_index":75,"time_elapsed":774914,"internal_node_id":"0.0-75.0"},{"trial_type":"number-animation","trial_index":76,"time_elapsed":781699,"internal_node_id":"0.0-76.0"},{"phase":1,"sequence":2,"avg":188,"response":190,"trial_type":"training_avg","trial_index":77,"time_elapsed":786378,"internal_node_id":"0.0-77.0"},{"trial_type":"number-animation","trial_index":78,"time_elapsed":793091,"internal_node_id":"0.0-78.0"},{"phase":1,"sequence":3,"avg":177,"response":180,"trial_type":"training_avg","trial_index":79,"time_elapsed":799034,"internal_node_id":"0.0-79.0"},{"trial_type":"number-animation","trial_index":80,"time_elapsed":805420,"internal_node_id":"0.0-80.0"},{"phase":1,"sequence":4,"avg":182,"response":178,"trial_type":"training_avg","trial_index":81,"time_elapsed":809843,"internal_node_id":"0.0-81.0"},{"responses":[{"value":1,"offby":1,"category":"$106 - $134","category_index":0},{"value":2,"offby":1,"category":"$135 - $150","category_index":1},{"value":4,"offby":1,"category":"$151 - $165","category_index":2},{"value":6,"offby":0,"category":"$166 - $180","category_index":3},{"value":4,"offby":-2,"category":"$181 - $195","category_index":4},{"value":2,"offby":-1,"category":"$196 - $210","category_index":5},{"value":1,"offby":0,"category":"$211 - $225","category_index":6}],"phase":1,"number":0,"trial_type":"bar-choose","trial_index":82,"time_elapsed":842155,"internal_node_id":"0.0-82.0"},{"rt":8702,"url":"\/tickets\/utils\/testing2.html","trial_type":"html","trial_index":83,"time_elapsed":852018,"internal_node_id":"0.0-83.0"},{"phase":1,"order":[18,31,16,34,11,12,4,5,13,8,15,48,1,20,14,39,28,29,47,25,3,40,23,22,21,2,9,6,24,0,36,46,17,49,33,38,30,27,37,7,32,19,44,26,10,42,45,43,41,35],"trial_type":"store_order","trial_index":84,"time_elapsed":853022,"internal_node_id":"0.0-84.0"},{"result":150,"points":3,"place":0,"phase":1,"sequence":0,"times":[1022,6388],"next_num":2,"trial_type":"ticket-choose","trial_index":85,"time_elapsed":863020,"internal_node_id":"0.0-85.0"},{"result":184,"points":1,"place":4,"phase":1,"sequence":1,"times":[1234,460,531,454,471,541,599,611,717,711],"next_num":10,"trial_type":"ticket-choose","trial_index":86,"time_elapsed":873235,"internal_node_id":"0.0-86.0"},{"result":163,"points":2,"place":1,"phase":1,"sequence":2,"times":[1169,473,975],"next_num":3,"trial_type":"ticket-choose","trial_index":87,"time_elapsed":878457,"internal_node_id":"0.0-87.0"},{"result":170,"points":1,"place":4,"phase":1,"sequence":3,"times":[1870,445,628,475,598,478,646,579,629,684],"next_num":10,"trial_type":"ticket-choose","trial_index":88,"time_elapsed":889250,"internal_node_id":"0.0-88.0"},{"result":153,"points":3,"place":0,"phase":1,"sequence":4,"times":[867,487,620,510,517,503,1142,835,774],"next_num":9,"trial_type":"ticket-choose","trial_index":89,"time_elapsed":899202,"internal_node_id":"0.0-89.0"},{"result":165,"points":1,"place":2,"phase":1,"sequence":5,"times":[722,670,415,485,469,494,508,1085],"next_num":8,"trial_type":"ticket-choose","trial_index":90,"time_elapsed":907642,"internal_node_id":"0.0-90.0"},{"result":148,"points":3,"place":0,"phase":1,"sequence":6,"times":[1119],"next_num":1,"trial_type":"ticket-choose","trial_index":91,"time_elapsed":910697,"internal_node_id":"0.0-91.0"},{"result":188,"points":1,"place":4,"phase":1,"sequence":7,"times":[1092,447,558,387,422,476,479,547,757,700],"next_num":10,"trial_type":"ticket-choose","trial_index":92,"time_elapsed":920474,"internal_node_id":"0.0-92.0"},{"result":152,"points":3,"place":0,"phase":1,"sequence":8,"times":[772],"next_num":1,"trial_type":"ticket-choose","trial_index":93,"time_elapsed":923066,"internal_node_id":"0.0-93.0"},{"result":163,"points":3,"place":0,"phase":1,"sequence":9,"times":[771,448,470,456,683,547,510,964],"next_num":8,"trial_type":"ticket-choose","trial_index":94,"time_elapsed":931234,"internal_node_id":"0.0-94.0"},{"result":158,"points":2,"place":1,"phase":1,"sequence":10,"times":[812,509,957],"next_num":3,"trial_type":"ticket-choose","trial_index":95,"time_elapsed":935738,"internal_node_id":"0.0-95.0"},{"result":156,"points":3,"place":0,"phase":1,"sequence":11,"times":[462,506,470,690,484,461,1918,1117,509,686],"next_num":10,"trial_type":"ticket-choose","trial_index":96,"time_elapsed":946730,"internal_node_id":"0.0-96.0"},{"result":186,"points":1,"place":4,"phase":1,"sequence":12,"times":[494,484,620,594,466,512,1053,518,751,736],"next_num":10,"trial_type":"ticket-choose","trial_index":97,"time_elapsed":956563,"internal_node_id":"0.0-97.0"},{"result":150,"points":3,"place":0,"phase":1,"sequence":13,"times":[1095],"next_num":1,"trial_type":"ticket-choose","trial_index":98,"time_elapsed":959396,"internal_node_id":"0.0-98.0"},{"result":169,"points":1,"place":2,"phase":1,"sequence":14,"times":[530,469,715,431,492,541,637,1829],"next_num":8,"trial_type":"ticket-choose","trial_index":99,"time_elapsed":968355,"internal_node_id":"0.0-99.0"},{"result":158,"points":3,"place":0,"phase":1,"sequence":15,"times":[503,484,454,487,484,910],"next_num":6,"trial_type":"ticket-choose","trial_index":100,"time_elapsed":974434,"internal_node_id":"0.0-100.0"},{"result":158,"points":2,"place":1,"phase":1,"sequence":16,"times":[749,492,477,492,511,460,886],"next_num":7,"trial_type":"ticket-choose","trial_index":101,"time_elapsed":981499,"internal_node_id":"0.0-101.0"},{"result":167,"points":2,"place":1,"phase":1,"sequence":17,"times":[447,476,494,486,484,502,759],"next_num":7,"trial_type":"ticket-choose","trial_index":102,"time_elapsed":988171,"internal_node_id":"0.0-102.0"},{"result":156,"points":3,"place":0,"phase":1,"sequence":18,"times":[410,413,423,410,397,439,476,1997,437,703],"next_num":10,"trial_type":"ticket-choose","trial_index":103,"time_elapsed":998115,"internal_node_id":"0.0-103.0"},{"result":158,"points":2,"place":1,"phase":1,"sequence":19,"times":[762,430,924],"next_num":3,"trial_type":"ticket-choose","trial_index":104,"time_elapsed":1002417,"internal_node_id":"0.0-104.0"},{"result":153,"points":3,"place":0,"phase":1,"sequence":20,"times":[480,494,646,398,485,493,565,1301,444,701],"next_num":10,"trial_type":"ticket-choose","trial_index":105,"time_elapsed":1012029,"internal_node_id":"0.0-105.0"},{"result":158,"points":2,"place":1,"phase":1,"sequence":21,"times":[674,457,484,444,487,462,1046],"next_num":7,"trial_type":"ticket-choose","trial_index":106,"time_elapsed":1019123,"internal_node_id":"0.0-106.0"},{"result":155,"points":2,"place":1,"phase":1,"sequence":22,"times":[703,646,966],"next_num":3,"trial_type":"ticket-choose","trial_index":107,"time_elapsed":1023627,"internal_node_id":"0.0-107.0"},{"result":164,"points":3,"place":0,"phase":1,"sequence":23,"times":[441,485,469,478,804,468,453,949],"next_num":8,"trial_type":"ticket-choose","trial_index":108,"time_elapsed":1031547,"internal_node_id":"0.0-108.0"},{"result":185,"points":1,"place":4,"phase":1,"sequence":24,"times":[762,662,558,543,445,495,645,461,478,917],"next_num":10,"trial_type":"ticket-choose","trial_index":109,"time_elapsed":1041131,"internal_node_id":"0.0-109.0"},{"result":163,"points":2,"place":1,"phase":1,"sequence":25,"times":[469,528,1099,1294],"next_num":4,"trial_type":"ticket-choose","trial_index":110,"time_elapsed":1046979,"internal_node_id":"0.0-110.0"},{"result":171,"points":1,"place":3,"phase":1,"sequence":26,"times":[470,1214,404,461,2293,493,476,511,667,711],"next_num":10,"trial_type":"ticket-choose","trial_index":111,"time_elapsed":1058337,"internal_node_id":"0.0-111.0"},{"result":166,"points":1,"place":2,"phase":1,"sequence":27,"times":[572,479,580,477,405,437,481,4251],"next_num":8,"trial_type":"ticket-choose","trial_index":112,"time_elapsed":1069348,"internal_node_id":"0.0-112.0"},{"result":163,"points":2,"place":1,"phase":1,"sequence":28,"times":[623,460,414,429,447,451,803],"next_num":7,"trial_type":"ticket-choose","trial_index":113,"time_elapsed":1075954,"internal_node_id":"0.0-113.0"},{"result":154,"points":3,"place":0,"phase":1,"sequence":29,"times":[673,446,422,405,423,515,510,382,459,655],"next_num":10,"trial_type":"ticket-choose","trial_index":114,"time_elapsed":1084509,"internal_node_id":"0.0-114.0"},{"result":154,"points":3,"place":0,"phase":1,"sequence":30,"times":[735,455,341,438,417,405,460,1190,446,675],"next_num":10,"trial_type":"ticket-choose","trial_index":115,"time_elapsed":1093755,"internal_node_id":"0.0-115.0"},{"result":156,"points":3,"place":0,"phase":1,"sequence":31,"times":[1475],"next_num":1,"trial_type":"ticket-choose","trial_index":116,"time_elapsed":1097051,"internal_node_id":"0.0-116.0"},{"result":156,"points":3,"place":0,"phase":1,"sequence":32,"times":[533,492,844,445,487,461,583,1316,478,671],"next_num":10,"trial_type":"ticket-choose","trial_index":117,"time_elapsed":1107163,"internal_node_id":"0.0-117.0"},{"result":154,"points":2,"place":1,"phase":1,"sequence":33,"times":[775,917],"next_num":2,"trial_type":"ticket-choose","trial_index":118,"time_elapsed":1110875,"internal_node_id":"0.0-118.0"},{"result":154,"points":3,"place":0,"phase":1,"sequence":34,"times":[446,485,492,461,455,509,488,869],"next_num":8,"trial_type":"ticket-choose","trial_index":119,"time_elapsed":1118290,"internal_node_id":"0.0-119.0"},{"result":158,"points":2,"place":1,"phase":1,"sequence":35,"times":[1563,487,453,470,454,468,1007],"next_num":7,"trial_type":"ticket-choose","trial_index":120,"time_elapsed":1126179,"internal_node_id":"0.0-120.0"},{"result":157,"points":3,"place":0,"phase":1,"sequence":36,"times":[472,476,812],"next_num":3,"trial_type":"ticket-choose","trial_index":121,"time_elapsed":1130034,"internal_node_id":"0.0-121.0"},{"result":158,"points":2,"place":1,"phase":1,"sequence":37,"times":[493,454,1020],"next_num":3,"trial_type":"ticket-choose","trial_index":122,"time_elapsed":1134155,"internal_node_id":"0.0-122.0"},{"result":143,"points":3,"place":0,"phase":1,"sequence":38,"times":[777,567,453,478,855],"next_num":5,"trial_type":"ticket-choose","trial_index":123,"time_elapsed":1139842,"internal_node_id":"0.0-123.0"},{"result":148,"points":3,"place":0,"phase":1,"sequence":39,"times":[506,1093,439,437,446,876],"next_num":6,"trial_type":"ticket-choose","trial_index":124,"time_elapsed":1146384,"internal_node_id":"0.0-124.0"},{"result":163,"points":2,"place":1,"phase":1,"sequence":40,"times":[950,484,917],"next_num":3,"trial_type":"ticket-choose","trial_index":125,"time_elapsed":1150888,"internal_node_id":"0.0-125.0"},{"result":153,"points":3,"place":0,"phase":1,"sequence":41,"times":[495,445,453,557,509,495,2903,659,965],"next_num":9,"trial_type":"ticket-choose","trial_index":126,"time_elapsed":1161752,"internal_node_id":"0.0-126.0"},{"result":157,"points":3,"place":0,"phase":1,"sequence":42,"times":[1319],"next_num":1,"trial_type":"ticket-choose","trial_index":127,"time_elapsed":1164825,"internal_node_id":"0.0-127.0"},{"result":156,"points":3,"place":0,"phase":1,"sequence":43,"times":[502,437,591,453,447,476,470,917,615,532],"next_num":10,"trial_type":"ticket-choose","trial_index":128,"time_elapsed":1173777,"internal_node_id":"0.0-128.0"},{"result":163,"points":2,"place":1,"phase":1,"sequence":44,"times":[591,461,566,445,498,429,2119],"next_num":7,"trial_type":"ticket-choose","trial_index":129,"time_elapsed":1181841,"internal_node_id":"0.0-129.0"},{"result":149,"points":2,"place":1,"phase":1,"sequence":45,"times":[641,465,853],"next_num":3,"trial_type":"ticket-choose","trial_index":130,"time_elapsed":1185978,"internal_node_id":"0.0-130.0"},{"result":152,"points":3,"place":0,"phase":1,"sequence":46,"times":[554,451,534,861],"next_num":4,"trial_type":"ticket-choose","trial_index":131,"time_elapsed":1190666,"internal_node_id":"0.0-131.0"},{"result":147,"points":3,"place":0,"phase":1,"sequence":47,"times":[483,452,669,805],"next_num":4,"trial_type":"ticket-choose","trial_index":132,"time_elapsed":1195385,"internal_node_id":"0.0-132.0"},{"result":153,"points":3,"place":0,"phase":1,"sequence":48,"times":[567,557,555,499,493,494,1206,712,581,565],"next_num":10,"trial_type":"ticket-choose","trial_index":133,"time_elapsed":1205250,"internal_node_id":"0.0-133.0"},{"result":155,"points":2,"place":1,"phase":1,"sequence":49,"times":[590,835],"next_num":2,"trial_type":"ticket-choose","trial_index":134,"time_elapsed":1208521,"internal_node_id":"0.0-134.0"},{"responses":[{"value":0,"offby":0,"category":"$106 - $134","category_index":0},{"value":1,"offby":0,"category":"$135 - $150","category_index":1},{"value":2,"offby":-1,"category":"$151 - $165","category_index":2},{"value":7,"offby":1,"category":"$166 - $180","category_index":3},{"value":6,"offby":0,"category":"$181 - $195","category_index":4},{"value":2,"offby":-1,"category":"$196 - $210","category_index":5},{"value":2,"offby":1,"category":"$211 - $225","category_index":6}],"phase":1,"number":1,"trial_type":"bar-choose","trial_index":135,"time_elapsed":1235858,"internal_node_id":"0.0-135.0"},{"special_comment":"no","trial_type":"special_sequence","trial_index":136,"time_elapsed":1241138,"internal_node_id":"0.0-136.0"},{"during":"Nothing","bonus":300,"trial_type":"final","trial_index":137,"time_elapsed":1261396,"internal_node_id":"0.0-137.0"}],"bonus":300}