{"start_time":"2017-02-27 11:23:32","end_time":"2017-02-27 11:50:14","points_phase0":101,"points_phase1":87,"phase_order":0,"age":26,"gender":"m","tries":1,"during":"Nothing","worker_id":"A1689SP9SJBJDA","assignment_id":"3RU7GD8VPPMWX8Y4SNB1NWNJKIPSPV","data":[{"rt":93267,"url":"\/tickets\/utils\/consent.html","trial_type":"html","trial_index":0,"time_elapsed":93433,"internal_node_id":"0.0-0.0"},{"age":26,"gender":"m","trial_type":"age","trial_index":1,"time_elapsed":97263,"internal_node_id":"0.0-1.0"},{"worker_id":"A1689SP9SJBJDA","trial_type":"workerid","trial_index":2,"time_elapsed":107057,"internal_node_id":"0.0-2.0"},{"tries":1,"trial_type":"instructions_check","trial_index":3,"time_elapsed":151624,"internal_node_id":"0.0-3.0"},{"rt":19272,"url":"\/tickets\/utils\/start.html","trial_type":"html","trial_index":4,"time_elapsed":172188,"internal_node_id":"0.0-4.0"},{"trial_type":"number-animation","trial_index":5,"time_elapsed":191214,"internal_node_id":"0.0-5.0"},{"phase":0,"sequence":0,"avg":180,"response":180,"trial_type":"training_avg","trial_index":6,"time_elapsed":209832,"internal_node_id":"0.0-6.0"},{"trial_type":"number-animation","trial_index":7,"time_elapsed":235525,"internal_node_id":"0.0-7.0"},{"phase":0,"sequence":1,"avg":178,"response":183,"trial_type":"training_avg","trial_index":8,"time_elapsed":245172,"internal_node_id":"0.0-8.0"},{"trial_type":"number-animation","trial_index":9,"time_elapsed":255808,"internal_node_id":"0.0-9.0"},{"phase":0,"sequence":2,"avg":176,"response":181,"trial_type":"training_avg","trial_index":10,"time_elapsed":261985,"internal_node_id":"0.0-10.0"},{"trial_type":"number-animation","trial_index":11,"time_elapsed":272371,"internal_node_id":"0.0-11.0"},{"phase":0,"sequence":3,"avg":178,"response":177,"trial_type":"training_avg","trial_index":12,"time_elapsed":281783,"internal_node_id":"0.0-12.0"},{"trial_type":"number-animation","trial_index":13,"time_elapsed":290204,"internal_node_id":"0.0-13.0"},{"phase":0,"sequence":4,"avg":179,"response":184,"trial_type":"training_avg","trial_index":14,"time_elapsed":296418,"internal_node_id":"0.0-14.0"},{"responses":[{"value":3,"offby":3,"category":"$140 - $250","category_index":0},{"value":2,"offby":2,"category":"$151 - $160","category_index":1},{"value":3,"offby":-1,"category":"$161 - $170","category_index":2},{"value":4,"offby":-2,"category":"$171 - $180","category_index":3},{"value":2,"offby":-5,"category":"$181 - $190","category_index":4},{"value":3,"offby":0,"category":"$191 - $200","category_index":5},{"value":3,"offby":3,"category":"$201 - $210","category_index":6}],"phase":0,"number":0,"trial_type":"bar-choose","trial_index":15,"time_elapsed":374360,"internal_node_id":"0.0-15.0"},{"rt":28723,"url":"\/tickets\/\/utils\/testing.html","trial_type":"html","trial_index":16,"time_elapsed":404618,"internal_node_id":"0.0-16.0"},{"phase":0,"order":[34,24,46,38,7,12,45,19,29,17,16,20,2,9,32,22,40,48,8,37,3,23,5,15,13,26,33,18,41,25,21,0,44,36,10,43,47,31,27,14,11,28,6,35,1,49,42,30,4,39],"trial_type":"store_order","trial_index":17,"time_elapsed":405619,"internal_node_id":"0.0-17.0"},{"result":126,"points":3,"place":0,"phase":0,"sequence":-1,"prices":[184,180,224,165,181,199,185,193,218,126],"times":[3729,540,471,454,469,423,401,388,325,414],"next_num":11,"trial_type":"ticket-choose","trial_index":18,"time_elapsed":417701,"internal_node_id":"0.0-18.0"},{"rt":12360,"url":"\/tickets\/utils\/testing_after.html","trial_type":"html","trial_index":19,"time_elapsed":431244,"internal_node_id":"0.0-19.0"},{"result":185,"points":0,"place":5,"phase":0,"sequence":0,"prices":[181,180,191,186,165,197,159,167,194,185],"times":[7368,642,611,505,596,583,556,607,636,568],"next_num":11,"trial_type":"ticket-choose","trial_index":20,"time_elapsed":448788,"internal_node_id":"0.0-20.0"},{"result":176,"points":1,"place":4,"phase":0,"sequence":1,"prices":[161,180,170,174,178,198,173,182,188,176],"times":[16332,575,529,430,448,509,470,559,812,4449],"next_num":11,"trial_type":"ticket-choose","trial_index":21,"time_elapsed":482052,"internal_node_id":"0.0-21.0"},{"result":177,"points":2,"place":1,"phase":0,"sequence":2,"prices":[179,186,197,201,166,187,188,193,190,177],"times":[1961,3184,645,846,2318,659,1028,789,636,780],"next_num":10,"trial_type":"ticket-choose","trial_index":22,"time_elapsed":499146,"internal_node_id":"0.0-22.0"},{"result":177,"points":1,"place":2,"phase":0,"sequence":3,"prices":[181,179,199,188,170,172,178,187,191,177],"times":[792,581,622,627,928,730,622,738,934,662],"next_num":10,"trial_type":"ticket-choose","trial_index":23,"time_elapsed":510414,"internal_node_id":"0.0-23.0"},{"result":169,"points":2,"place":1,"phase":0,"sequence":4,"prices":[174,179,177,194,178,183,169,173,165,184],"times":[1172,374,573,741,782,1113,1069],"next_num":7,"trial_type":"ticket-choose","trial_index":24,"time_elapsed":519649,"internal_node_id":"0.0-24.0"},{"result":170,"points":2,"place":1,"phase":0,"sequence":5,"prices":[176,180,178,194,179,183,170,173,165,184],"times":[1131,663,611,598,566,808,1159],"next_num":7,"trial_type":"ticket-choose","trial_index":25,"time_elapsed":528619,"internal_node_id":"0.0-25.0"},{"result":169,"points":1,"place":2,"phase":0,"sequence":6,"prices":[179,174,172,162,202,184,165,197,185,169],"times":[951,360,363,486,453,636,596,540,718,906],"next_num":10,"trial_type":"ticket-choose","trial_index":26,"time_elapsed":538494,"internal_node_id":"0.0-26.0"},{"result":168,"points":2,"place":1,"phase":0,"sequence":7,"prices":[173,178,168,193,177,182,176,172,164,183],"times":[827,493,1406],"next_num":3,"trial_type":"ticket-choose","trial_index":27,"time_elapsed":543659,"internal_node_id":"0.0-27.0"},{"result":174,"points":1,"place":4,"phase":0,"sequence":8,"prices":[166,190,170,173,178,203,172,192,198,174],"times":[954,836,509,621,577,597,778,929,657,688],"next_num":10,"trial_type":"ticket-choose","trial_index":28,"time_elapsed":554729,"internal_node_id":"0.0-28.0"},{"result":168,"points":2,"place":1,"phase":0,"sequence":9,"prices":[174,178,168,192,177,181,176,171,163,182],"times":[728,559,2082],"next_num":3,"trial_type":"ticket-choose","trial_index":29,"time_elapsed":562561,"internal_node_id":"0.0-29.0"},{"result":163,"points":3,"place":0,"phase":0,"sequence":10,"prices":[174,178,168,192,177,181,176,171,163,182],"times":[1134,350,499,515,541,705,567,575,1076],"next_num":9,"trial_type":"ticket-choose","trial_index":30,"time_elapsed":572548,"internal_node_id":"0.0-30.0"},{"result":168,"points":2,"place":1,"phase":0,"sequence":11,"prices":[174,178,176,192,177,181,168,171,163,182],"times":[828,442,468,390,460,653,1090],"next_num":7,"trial_type":"ticket-choose","trial_index":31,"time_elapsed":580130,"internal_node_id":"0.0-31.0"},{"result":165,"points":3,"place":0,"phase":0,"sequence":12,"prices":[174,179,169,194,178,183,177,173,165,184],"times":[713,440,496,373,570,702,564,621,1136],"next_num":9,"trial_type":"ticket-choose","trial_index":32,"time_elapsed":589706,"internal_node_id":"0.0-32.0"},{"result":173,"points":1,"place":2,"phase":0,"sequence":13,"prices":[176,180,170,194,179,183,178,173,165,184],"times":[698,421,443,487,522,638,641,1165],"next_num":8,"trial_type":"ticket-choose","trial_index":33,"time_elapsed":598300,"internal_node_id":"0.0-33.0"},{"result":175,"points":1,"place":4,"phase":0,"sequence":14,"prices":[171,180,172,174,179,188,173,183,186,175],"times":[1067,485,525,501,581,634,597,683,754,629],"next_num":10,"trial_type":"ticket-choose","trial_index":34,"time_elapsed":608503,"internal_node_id":"0.0-34.0"},{"result":164,"points":3,"place":0,"phase":0,"sequence":15,"prices":[173,178,176,193,177,182,168,172,164,183],"times":[960,3108,544,292,326,403,666,542,1637],"next_num":9,"trial_type":"ticket-choose","trial_index":35,"time_elapsed":620857,"internal_node_id":"0.0-35.0"},{"result":167,"points":3,"place":0,"phase":0,"sequence":16,"prices":[179,174,199,178,196,167,170,184,177,190],"times":[1108,297,263,228,735,1134],"next_num":6,"trial_type":"ticket-choose","trial_index":36,"time_elapsed":627861,"internal_node_id":"0.0-36.0"},{"result":171,"points":3,"place":0,"phase":0,"sequence":17,"prices":[193,173,175,182,179,198,181,171,176,187],"times":[870,806,509,621,685,647,677,1125],"next_num":8,"trial_type":"ticket-choose","trial_index":37,"time_elapsed":637350,"internal_node_id":"0.0-37.0"},{"result":170,"points":2,"place":1,"phase":0,"sequence":18,"prices":[176,180,170,194,179,183,178,173,165,184],"times":[746,599,1122],"next_num":3,"trial_type":"ticket-choose","trial_index":38,"time_elapsed":643126,"internal_node_id":"0.0-38.0"},{"result":153,"points":3,"place":0,"phase":0,"sequence":19,"prices":[181,175,182,168,183,173,153,170,193,179],"times":[721,444,484,671,420,595,1601],"next_num":7,"trial_type":"ticket-choose","trial_index":39,"time_elapsed":651453,"internal_node_id":"0.0-39.0"},{"result":169,"points":2,"place":1,"phase":0,"sequence":20,"prices":[174,179,169,194,178,183,177,173,165,184],"times":[837,893,1529],"next_num":3,"trial_type":"ticket-choose","trial_index":40,"time_elapsed":657391,"internal_node_id":"0.0-40.0"},{"result":168,"points":2,"place":1,"phase":0,"sequence":21,"prices":[173,178,176,193,177,182,168,172,164,183],"times":[1084,535,664,708,614,613,1045],"next_num":7,"trial_type":"ticket-choose","trial_index":41,"time_elapsed":666006,"internal_node_id":"0.0-41.0"},{"result":169,"points":2,"place":1,"phase":0,"sequence":22,"prices":[175,179,177,193,178,182,169,172,164,183],"times":[741,430,479,533,570,727,1060],"next_num":7,"trial_type":"ticket-choose","trial_index":42,"time_elapsed":673816,"internal_node_id":"0.0-42.0"},{"result":166,"points":3,"place":0,"phase":0,"sequence":23,"prices":[175,180,178,195,179,184,170,174,166,185],"times":[702,453,438,550,650,638,747,649,1190],"next_num":9,"trial_type":"ticket-choose","trial_index":43,"time_elapsed":683368,"internal_node_id":"0.0-43.0"},{"result":170,"points":2,"place":1,"phase":0,"sequence":24,"prices":[176,180,178,194,179,183,170,173,165,184],"times":[903,680,581,636,572,717,1259],"next_num":7,"trial_type":"ticket-choose","trial_index":44,"time_elapsed":692299,"internal_node_id":"0.0-44.0"},{"result":165,"points":3,"place":0,"phase":0,"sequence":25,"prices":[165,187,173,177,186,196,176,191,192,181],"times":[1133],"next_num":1,"trial_type":"ticket-choose","trial_index":45,"time_elapsed":695515,"internal_node_id":"0.0-45.0"},{"result":179,"points":1,"place":4,"phase":0,"sequence":26,"prices":[170,183,172,175,180,189,174,187,188,179],"times":[731,628,550,643,573,688,613,682,774,860],"next_num":10,"trial_type":"ticket-choose","trial_index":46,"time_elapsed":706260,"internal_node_id":"0.0-46.0"},{"result":172,"points":1,"place":2,"phase":0,"sequence":27,"prices":[173,178,168,193,177,182,176,172,164,183],"times":[2051,369,473,407,550,623,769,1064],"next_num":8,"trial_type":"ticket-choose","trial_index":47,"time_elapsed":715971,"internal_node_id":"0.0-47.0"},{"result":169,"points":2,"place":1,"phase":0,"sequence":28,"prices":[180,165,177,193,186,196,187,169,171,182],"times":[776,661,647,584,526,662,653,1249],"next_num":8,"trial_type":"ticket-choose","trial_index":48,"time_elapsed":725230,"internal_node_id":"0.0-48.0"},{"result":163,"points":3,"place":0,"phase":0,"sequence":29,"prices":[163,185,165,174,181,198,173,186,187,180],"times":[1703],"next_num":1,"trial_type":"ticket-choose","trial_index":49,"time_elapsed":729102,"internal_node_id":"0.0-49.0"},{"result":168,"points":2,"place":1,"phase":0,"sequence":30,"prices":[174,178,176,192,177,181,168,171,163,182],"times":[767,647,524,391,502,648,1011],"next_num":7,"trial_type":"ticket-choose","trial_index":50,"time_elapsed":736699,"internal_node_id":"0.0-50.0"},{"result":169,"points":2,"place":1,"phase":0,"sequence":31,"prices":[175,179,169,193,178,182,177,172,164,183],"times":[544,2121,1182],"next_num":3,"trial_type":"ticket-choose","trial_index":51,"time_elapsed":743513,"internal_node_id":"0.0-51.0"},{"result":150,"points":3,"place":0,"phase":0,"sequence":32,"prices":[175,150,164,155,171,199,158,180,184,196],"times":[4219,1052],"next_num":2,"trial_type":"ticket-choose","trial_index":52,"time_elapsed":751189,"internal_node_id":"0.0-52.0"},{"result":169,"points":1,"place":2,"phase":0,"sequence":33,"prices":[189,185,169,168,167,171,180,173,174,188],"times":[914,580,1062],"next_num":3,"trial_type":"ticket-choose","trial_index":53,"time_elapsed":756158,"internal_node_id":"0.0-53.0"},{"result":166,"points":3,"place":0,"phase":0,"sequence":34,"prices":[175,180,170,195,179,184,178,174,166,185],"times":[2014,599,566,718,580,622,626,994,1089],"next_num":9,"trial_type":"ticket-choose","trial_index":54,"time_elapsed":768215,"internal_node_id":"0.0-54.0"},{"result":157,"points":2,"place":1,"phase":0,"sequence":35,"prices":[188,191,179,157,181,164,166,156,175,182],"times":[1680,412,551,978],"next_num":4,"trial_type":"ticket-choose","trial_index":55,"time_elapsed":774542,"internal_node_id":"0.0-55.0"},{"result":173,"points":3,"place":0,"phase":0,"sequence":36,"prices":[180,175,173,177,191,190,184,196,174,181],"times":[3064,11937,1108],"next_num":3,"trial_type":"ticket-choose","trial_index":56,"time_elapsed":793445,"internal_node_id":"0.0-56.0"},{"result":157,"points":3,"place":0,"phase":0,"sequence":37,"prices":[157,184,163,174,181,190,168,187,189,177],"times":[1368],"next_num":1,"trial_type":"ticket-choose","trial_index":57,"time_elapsed":796647,"internal_node_id":"0.0-57.0"},{"result":183,"points":1,"place":4,"phase":0,"sequence":38,"prices":[168,188,171,181,184,196,180,194,195,183],"times":[718,693,584,582,552,597,751,603,668,685],"next_num":10,"trial_type":"ticket-choose","trial_index":58,"time_elapsed":807659,"internal_node_id":"0.0-58.0"},{"result":170,"points":2,"place":1,"phase":0,"sequence":39,"prices":[175,180,178,195,179,184,170,174,166,185],"times":[1016,615,645,579,629,583,1170],"next_num":7,"trial_type":"ticket-choose","trial_index":59,"time_elapsed":816168,"internal_node_id":"0.0-59.0"},{"result":170,"points":2,"place":1,"phase":0,"sequence":40,"prices":[175,180,170,195,179,184,178,174,166,185],"times":[1329,726,1195],"next_num":3,"trial_type":"ticket-choose","trial_index":60,"time_elapsed":821732,"internal_node_id":"0.0-60.0"},{"result":175,"points":1,"place":4,"phase":0,"sequence":41,"prices":[159,178,170,174,176,194,173,182,185,175],"times":[1048,463,460,381,405,453,414,660,551,725],"next_num":10,"trial_type":"ticket-choose","trial_index":61,"time_elapsed":831714,"internal_node_id":"0.0-61.0"},{"result":169,"points":2,"place":1,"phase":0,"sequence":42,"prices":[174,179,177,194,178,183,169,173,165,184],"times":[1187,559,708,1141,710,1430,1499],"next_num":7,"trial_type":"ticket-choose","trial_index":62,"time_elapsed":842436,"internal_node_id":"0.0-62.0"},{"result":154,"points":3,"place":0,"phase":0,"sequence":43,"prices":[188,179,154,183,173,170,177,160,169,175],"times":[2288,2644,1487],"next_num":3,"trial_type":"ticket-choose","trial_index":63,"time_elapsed":852252,"internal_node_id":"0.0-63.0"},{"result":172,"points":1,"place":2,"phase":0,"sequence":44,"prices":[175,179,169,193,178,182,177,172,164,183],"times":[982,884,887,1095,783,789,1600,1555],"next_num":8,"trial_type":"ticket-choose","trial_index":64,"time_elapsed":864436,"internal_node_id":"0.0-64.0"},{"result":170,"points":2,"place":1,"phase":0,"sequence":45,"prices":[175,189,193,170,179,165,180,186,177,184],"times":[967,964,791,1462],"next_num":4,"trial_type":"ticket-choose","trial_index":65,"time_elapsed":871476,"internal_node_id":"0.0-65.0"},{"result":160,"points":3,"place":0,"phase":0,"sequence":46,"prices":[175,193,175,160,180,170,175,205,177,167],"times":[638,681,527,1231],"next_num":4,"trial_type":"ticket-choose","trial_index":66,"time_elapsed":877207,"internal_node_id":"0.0-66.0"},{"result":160,"points":3,"place":0,"phase":0,"sequence":47,"prices":[160,185,170,174,182,196,173,186,194,177],"times":[1436],"next_num":1,"trial_type":"ticket-choose","trial_index":67,"time_elapsed":881031,"internal_node_id":"0.0-67.0"},{"result":169,"points":2,"place":1,"phase":0,"sequence":48,"prices":[175,179,177,193,178,182,169,172,164,183],"times":[671,577,571,655,532,615,1134],"next_num":7,"trial_type":"ticket-choose","trial_index":68,"time_elapsed":889075,"internal_node_id":"0.0-68.0"},{"result":173,"points":1,"place":3,"phase":0,"sequence":49,"prices":[195,177,197,179,171,173,175,156,163,204],"times":[1133,318,525,397,477,1200],"next_num":6,"trial_type":"ticket-choose","trial_index":69,"time_elapsed":896035,"internal_node_id":"0.0-69.0"},{"responses":[{"value":20,"offby":20,"category":"$140 - $250","category_index":0},{"value":0,"offby":0,"category":"$151 - $160","category_index":1},{"value":0,"offby":-4,"category":"$161 - $170","category_index":2},{"value":0,"offby":-6,"category":"$171 - $180","category_index":3},{"value":0,"offby":-7,"category":"$181 - $190","category_index":4},{"value":0,"offby":-3,"category":"$191 - $200","category_index":5},{"value":0,"offby":0,"category":"$201 - $210","category_index":6}],"phase":0,"number":1,"trial_type":"bar-choose","trial_index":70,"time_elapsed":928712,"internal_node_id":"0.0-70.0"},{"rt":9975,"url":"\/tickets\/utils\/start2.html","trial_type":"html","trial_index":71,"time_elapsed":939888,"internal_node_id":"0.0-71.0"},{"trial_type":"number-animation","trial_index":72,"time_elapsed":950592,"internal_node_id":"0.0-72.0"},{"phase":1,"sequence":0,"avg":166,"response":174,"trial_type":"training_avg","trial_index":73,"time_elapsed":961557,"internal_node_id":"0.0-73.0"},{"trial_type":"number-animation","trial_index":74,"time_elapsed":971688,"internal_node_id":"0.0-74.0"},{"phase":1,"sequence":1,"avg":198,"response":200,"trial_type":"training_avg","trial_index":75,"time_elapsed":979730,"internal_node_id":"0.0-75.0"},{"trial_type":"number-animation","trial_index":76,"time_elapsed":989208,"internal_node_id":"0.0-76.0"},{"phase":1,"sequence":2,"avg":177,"response":175,"trial_type":"training_avg","trial_index":77,"time_elapsed":1004915,"internal_node_id":"0.0-77.0"},{"trial_type":"number-animation","trial_index":78,"time_elapsed":1012179,"internal_node_id":"0.0-78.0"},{"phase":1,"sequence":3,"avg":190,"response":171,"trial_type":"training_avg","trial_index":79,"time_elapsed":1019096,"internal_node_id":"0.0-79.0"},{"trial_type":"number-animation","trial_index":80,"time_elapsed":1026353,"internal_node_id":"0.0-80.0"},{"phase":1,"sequence":4,"avg":201,"response":219,"trial_type":"training_avg","trial_index":81,"time_elapsed":1033593,"internal_node_id":"0.0-81.0"},{"responses":[{"value":1,"offby":0,"category":"$30 - $75","category_index":0},{"value":2,"offby":0,"category":"$76 - $120","category_index":1},{"value":4,"offby":0,"category":"$121 - $165","category_index":2},{"value":4,"offby":-2,"category":"$166 - $210","category_index":3},{"value":4,"offby":-2,"category":"$211 - $255","category_index":4},{"value":3,"offby":2,"category":"$256 - $300","category_index":5},{"value":2,"offby":2,"category":"$301 - $345","category_index":6}],"phase":1,"number":0,"trial_type":"bar-choose","trial_index":82,"time_elapsed":1081316,"internal_node_id":"0.0-82.0"},{"rt":16844,"url":"\/tickets\/utils\/testing2.html","trial_type":"html","trial_index":83,"time_elapsed":1099588,"internal_node_id":"0.0-83.0"},{"phase":1,"order":[27,48,2,39,19,14,7,0,12,4,38,8,34,1,18,43,23,20,36,45,13,47,40,6,17,35,22,42,9,5,29,31,30,46,10,49,41,24,21,37,25,15,11,16,32,33,26,44,3,28],"trial_type":"store_order","trial_index":84,"time_elapsed":1100590,"internal_node_id":"0.0-84.0"},{"result":196,"points":1,"place":4,"phase":1,"sequence":0,"prices":[120,221,135,185,200,261,181,251,255,196],"times":[2239,596,525,623,617,610,789,575,659,729],"next_num":10,"trial_type":"ticket-choose","trial_index":85,"time_elapsed":1112555,"internal_node_id":"0.0-85.0"},{"result":145,"points":2,"place":1,"phase":1,"sequence":1,"prices":[246,145,155,191,176,270,185,136,160,215],"times":[1293,1192],"next_num":2,"trial_type":"ticket-choose","trial_index":86,"time_elapsed":1117169,"internal_node_id":"0.0-86.0"},{"result":165,"points":1,"place":4,"phase":1,"sequence":2,"prices":[151,176,126,251,170,196,165,145,105,201],"times":[470,598,595,596,627,595,1338],"next_num":7,"trial_type":"ticket-choose","trial_index":87,"time_elapsed":1125206,"internal_node_id":"0.0-87.0"},{"result":136,"points":1,"place":2,"phase":1,"sequence":3,"prices":[255,166,266,175,136,145,155,61,96,301],"times":[700,2455,537,619,1054],"next_num":5,"trial_type":"ticket-choose","trial_index":88,"time_elapsed":1133346,"internal_node_id":"0.0-88.0"},{"result":121,"points":2,"place":1,"phase":1,"sequence":4,"prices":[146,170,121,245,166,190,161,141,100,195],"times":[678,5521,2402],"next_num":3,"trial_type":"ticket-choose","trial_index":89,"time_elapsed":1144352,"internal_node_id":"0.0-89.0"},{"result":130,"points":2,"place":1,"phase":1,"sequence":5,"prices":[155,181,170,255,176,200,130,150,110,205],"times":[794,403,537,486,368,819,993],"next_num":7,"trial_type":"ticket-choose","trial_index":90,"time_elapsed":1151868,"internal_node_id":"0.0-90.0"},{"result":126,"points":2,"place":1,"phase":1,"sequence":6,"prices":[151,175,166,251,170,195,126,146,105,201],"times":[732,429,339,442,442,392,1082],"next_num":7,"trial_type":"ticket-choose","trial_index":91,"time_elapsed":1159189,"internal_node_id":"0.0-91.0"},{"result":165,"points":1,"place":4,"phase":1,"sequence":7,"prices":[156,175,126,246,170,190,165,140,100,196],"times":[1327,394,348,746,561,553,1035],"next_num":7,"trial_type":"ticket-choose","trial_index":92,"time_elapsed":1167877,"internal_node_id":"0.0-92.0"},{"result":176,"points":0,"place":5,"phase":1,"sequence":8,"prices":[161,180,171,250,176,195,131,146,105,201],"times":[4792,542,2946,668,1027],"next_num":5,"trial_type":"ticket-choose","trial_index":93,"time_elapsed":1180941,"internal_node_id":"0.0-93.0"},{"result":171,"points":0,"place":5,"phase":1,"sequence":9,"prices":[155,175,166,245,171,190,125,140,101,196],"times":[1287,267,456,567,1061],"next_num":5,"trial_type":"ticket-choose","trial_index":94,"time_elapsed":1187825,"internal_node_id":"0.0-94.0"},{"result":130,"points":3,"place":0,"phase":1,"sequence":10,"prices":[185,175,276,221,130,141,171,216,235,165],"times":[739,427,543,466,1100],"next_num":5,"trial_type":"ticket-choose","trial_index":95,"time_elapsed":1193792,"internal_node_id":"0.0-95.0"},{"result":171,"points":1,"place":4,"phase":1,"sequence":11,"prices":[161,180,131,251,175,196,171,146,105,201],"times":[5947,2342,1479,418,300,522,986],"next_num":7,"trial_type":"ticket-choose","trial_index":96,"time_elapsed":1209023,"internal_node_id":"0.0-96.0"},{"result":106,"points":2,"place":1,"phase":1,"sequence":12,"prices":[185,180,235,210,106,266,76,115,250,205],"times":[970,612,625,596,1289],"next_num":5,"trial_type":"ticket-choose","trial_index":97,"time_elapsed":1215874,"internal_node_id":"0.0-97.0"},{"result":125,"points":2,"place":1,"phase":1,"sequence":13,"prices":[156,175,125,245,170,190,165,140,101,196],"times":[947,1086,1141],"next_num":3,"trial_type":"ticket-choose","trial_index":98,"time_elapsed":1221577,"internal_node_id":"0.0-98.0"},{"result":120,"points":2,"place":1,"phase":1,"sequence":14,"prices":[146,171,120,245,165,191,160,140,100,196],"times":[73451,554,913],"next_num":3,"trial_type":"ticket-choose","trial_index":99,"time_elapsed":1298837,"internal_node_id":"0.0-99.0"},{"result":176,"points":0,"place":5,"phase":1,"sequence":15,"prices":[220,236,176,65,185,101,110,61,156,191],"times":[631,4486,1008],"next_num":3,"trial_type":"ticket-choose","trial_index":100,"time_elapsed":1307700,"internal_node_id":"0.0-100.0"},{"result":165,"points":0,"place":5,"phase":1,"sequence":16,"prices":[145,170,160,245,165,190,120,141,100,195],"times":[907,580,522,519,1136],"next_num":5,"trial_type":"ticket-choose","trial_index":101,"time_elapsed":1314039,"internal_node_id":"0.0-101.0"},{"result":121,"points":2,"place":1,"phase":1,"sequence":17,"prices":[150,170,160,240,166,185,121,136,95,191],"times":[821,507,438,593,561,597,1182],"next_num":7,"trial_type":"ticket-choose","trial_index":102,"time_elapsed":1322517,"internal_node_id":"0.0-102.0"},{"result":205,"points":0,"place":7,"phase":1,"sequence":18,"prices":[226,205,125,120,115,135,180,145,150,220],"times":[4931,1062],"next_num":2,"trial_type":"ticket-choose","trial_index":103,"time_elapsed":1330669,"internal_node_id":"0.0-103.0"},{"result":150,"points":1,"place":4,"phase":1,"sequence":19,"prices":[176,150,141,91,290,201,106,266,206,126],"times":[642,912],"next_num":2,"trial_type":"ticket-choose","trial_index":104,"time_elapsed":1334368,"internal_node_id":"0.0-104.0"},{"result":131,"points":2,"place":1,"phase":1,"sequence":20,"prices":[160,180,170,251,176,195,131,146,105,200],"times":[2491,623,542,611,527,589,1108],"next_num":7,"trial_type":"ticket-choose","trial_index":105,"time_elapsed":1344064,"internal_node_id":"0.0-105.0"},{"result":156,"points":1,"place":2,"phase":1,"sequence":21,"prices":[181,156,145,165,236,231,201,260,150,185],"times":[771,1043],"next_num":2,"trial_type":"ticket-choose","trial_index":106,"time_elapsed":1348058,"internal_node_id":"0.0-106.0"},{"result":150,"points":1,"place":2,"phase":1,"sequence":22,"prices":[176,150,276,171,261,116,130,201,166,231],"times":[729,909],"next_num":2,"trial_type":"ticket-choose","trial_index":107,"time_elapsed":1351792,"internal_node_id":"0.0-107.0"},{"result":150,"points":1,"place":3,"phase":1,"sequence":23,"prices":[150,175,166,251,170,196,126,145,105,201],"times":[1012],"next_num":1,"trial_type":"ticket-choose","trial_index":108,"time_elapsed":1354595,"internal_node_id":"0.0-108.0"},{"result":120,"points":2,"place":1,"phase":1,"sequence":24,"prices":[150,171,120,241,165,185,160,135,96,190],"times":[534,468,1012],"next_num":3,"trial_type":"ticket-choose","trial_index":109,"time_elapsed":1358939,"internal_node_id":"0.0-109.0"},{"result":51,"points":3,"place":0,"phase":1,"sequence":25,"prices":[221,175,51,196,146,130,166,80,126,156],"times":[823,600,934],"next_num":3,"trial_type":"ticket-choose","trial_index":110,"time_elapsed":1363507,"internal_node_id":"0.0-110.0"},{"result":165,"points":0,"place":5,"phase":1,"sequence":26,"prices":[145,171,161,245,165,191,120,140,100,196],"times":[1274,596,685,557,963],"next_num":5,"trial_type":"ticket-choose","trial_index":111,"time_elapsed":1370174,"internal_node_id":"0.0-111.0"},{"result":155,"points":1,"place":3,"phase":1,"sequence":27,"prices":[155,245,155,81,180,130,156,306,166,115],"times":[16319,15781,1092],"next_num":3,"trial_type":"ticket-choose","trial_index":112,"time_elapsed":1405650,"internal_node_id":"0.0-112.0"},{"result":130,"points":2,"place":1,"phase":1,"sequence":28,"prices":[160,180,130,251,176,195,170,146,105,200],"times":[560,563,838],"next_num":3,"trial_type":"ticket-choose","trial_index":113,"time_elapsed":1409784,"internal_node_id":"0.0-113.0"},{"result":126,"points":2,"place":1,"phase":1,"sequence":29,"prices":[156,176,165,246,171,190,126,141,101,196],"times":[601,537,329,471,616,576,949],"next_num":7,"trial_type":"ticket-choose","trial_index":114,"time_elapsed":1416961,"internal_node_id":"0.0-114.0"},{"result":131,"points":2,"place":1,"phase":1,"sequence":30,"prices":[111,231,131,146,171,295,141,241,271,150],"times":[643,865,967],"next_num":3,"trial_type":"ticket-choose","trial_index":115,"time_elapsed":1421640,"internal_node_id":"0.0-115.0"},{"result":66,"points":3,"place":0,"phase":1,"sequence":31,"prices":[66,201,96,150,185,230,121,216,225,165],"times":[1074],"next_num":1,"trial_type":"ticket-choose","trial_index":116,"time_elapsed":1424496,"internal_node_id":"0.0-116.0"},{"result":81,"points":3,"place":0,"phase":1,"sequence":32,"prices":[81,205,130,151,191,261,145,210,250,165],"times":[914],"next_num":1,"trial_type":"ticket-choose","trial_index":117,"time_elapsed":1427197,"internal_node_id":"0.0-117.0"},{"result":111,"points":3,"place":0,"phase":1,"sequence":33,"prices":[175,211,266,286,111,216,220,245,230,165],"times":[771,590,544,487,886],"next_num":5,"trial_type":"ticket-choose","trial_index":118,"time_elapsed":1433091,"internal_node_id":"0.0-118.0"},{"result":131,"points":2,"place":1,"phase":1,"sequence":34,"prices":[156,181,131,256,176,200,171,151,111,206],"times":[446,518,939],"next_num":3,"trial_type":"ticket-choose","trial_index":119,"time_elapsed":1437242,"internal_node_id":"0.0-119.0"},{"result":130,"points":2,"place":1,"phase":1,"sequence":35,"prices":[155,225,245,130,176,106,180,211,165,200],"times":[436,577,566,1047],"next_num":4,"trial_type":"ticket-choose","trial_index":120,"time_elapsed":1446119,"internal_node_id":"0.0-120.0"},{"result":106,"points":3,"place":0,"phase":1,"sequence":36,"prices":[180,106,166,245,211,261,215,125,135,190],"times":[1202,1096],"next_num":2,"trial_type":"ticket-choose","trial_index":121,"time_elapsed":1450761,"internal_node_id":"0.0-121.0"},{"result":220,"points":0,"place":8,"phase":1,"sequence":37,"prices":[86,180,130,151,170,271,145,191,220,160],"times":[429,918,1213,576,596,599,596,651,684],"next_num":9,"trial_type":"ticket-choose","trial_index":122,"time_elapsed":1460787,"internal_node_id":"0.0-122.0"},{"result":120,"points":2,"place":1,"phase":1,"sequence":38,"prices":[150,170,160,241,166,186,120,136,96,191],"times":[904,539,568,630,764,571,1195],"next_num":7,"trial_type":"ticket-choose","trial_index":123,"time_elapsed":1469197,"internal_node_id":"0.0-123.0"},{"result":120,"points":2,"place":1,"phase":1,"sequence":39,"prices":[186,156,191,120,195,145,45,130,246,176],"times":[1236,875,616,1133],"next_num":4,"trial_type":"ticket-choose","trial_index":124,"time_elapsed":1475672,"internal_node_id":"0.0-124.0"},{"result":95,"points":3,"place":0,"phase":1,"sequence":40,"prices":[95,205,106,151,186,271,145,210,215,181],"times":[1011],"next_num":1,"trial_type":"ticket-choose","trial_index":125,"time_elapsed":1478640,"internal_node_id":"0.0-125.0"},{"result":131,"points":2,"place":1,"phase":1,"sequence":41,"prices":[156,181,171,256,175,200,131,150,110,206],"times":[801,591,621,628,606,644,1172],"next_num":7,"trial_type":"ticket-choose","trial_index":126,"time_elapsed":1486841,"internal_node_id":"0.0-126.0"},{"result":130,"points":2,"place":1,"phase":1,"sequence":42,"prices":[156,181,130,255,175,200,170,150,111,205],"times":[484,611,907],"next_num":3,"trial_type":"ticket-choose","trial_index":127,"time_elapsed":1491076,"internal_node_id":"0.0-127.0"},{"result":121,"points":2,"place":1,"phase":1,"sequence":43,"prices":[150,171,121,241,165,185,160,136,95,191],"times":[467,535,965],"next_num":3,"trial_type":"ticket-choose","trial_index":128,"time_elapsed":1495247,"internal_node_id":"0.0-128.0"},{"result":155,"points":1,"place":4,"phase":1,"sequence":44,"prices":[135,180,141,151,175,220,145,196,211,155],"times":[418,574,573,784,614,629,623,635,926,636],"next_num":10,"trial_type":"ticket-choose","trial_index":129,"time_elapsed":1505378,"internal_node_id":"0.0-129.0"},{"result":130,"points":3,"place":0,"phase":1,"sequence":45,"prices":[130,195,141,155,181,226,150,216,221,175],"times":[2031],"next_num":1,"trial_type":"ticket-choose","trial_index":130,"time_elapsed":1509457,"internal_node_id":"0.0-130.0"},{"result":105,"points":3,"place":0,"phase":1,"sequence":46,"prices":[105,216,146,165,210,260,161,235,241,185],"times":[7855],"next_num":1,"trial_type":"ticket-choose","trial_index":131,"time_elapsed":1519249,"internal_node_id":"0.0-131.0"},{"result":30,"points":3,"place":0,"phase":1,"sequence":47,"prices":[155,30,101,55,136,276,70,181,200,261],"times":[494,904],"next_num":2,"trial_type":"ticket-choose","trial_index":132,"time_elapsed":1522615,"internal_node_id":"0.0-132.0"},{"result":105,"points":3,"place":0,"phase":1,"sequence":48,"prices":[150,176,126,251,171,195,165,145,105,200],"times":[793,565,565,506,552,624,567,613,737],"next_num":9,"trial_type":"ticket-choose","trial_index":133,"time_elapsed":1531989,"internal_node_id":"0.0-133.0"},{"result":75,"points":3,"place":0,"phase":1,"sequence":49,"prices":[75,171,131,151,161,250,145,190,206,156],"times":[1464],"next_num":1,"trial_type":"ticket-choose","trial_index":134,"time_elapsed":1535571,"internal_node_id":"0.0-134.0"},{"responses":[{"value":4,"offby":3,"category":"$30 - $75","category_index":0},{"value":3,"offby":1,"category":"$76 - $120","category_index":1},{"value":5,"offby":1,"category":"$121 - $165","category_index":2},{"value":2,"offby":-4,"category":"$166 - $210","category_index":3},{"value":1,"offby":-5,"category":"$211 - $255","category_index":4},{"value":2,"offby":1,"category":"$256 - $300","category_index":5},{"value":1,"offby":1,"category":"$301 - $345","category_index":6}],"phase":1,"number":1,"trial_type":"bar-choose","trial_index":135,"time_elapsed":1562027,"internal_node_id":"0.0-135.0"},{"special_comment":"No","trial_type":"special_sequence","trial_index":136,"time_elapsed":1567124,"internal_node_id":"0.0-136.0"},{"during":"Nothing","bonus":252,"trial_type":"final","trial_index":137,"time_elapsed":1599152,"internal_node_id":"0.0-137.0"}],"bonus":252}