{"start_time":"2017-03-01 08:23:39","end_time":"2017-03-01 09:20:48","points_phase0":121,"points_phase1":121,"phase_order":0,"age":64,"gender":"f","tries":1,"during":"Nothing","worker_id":"A17K8XNE6EVFLI","assignment_id":"3BGYGHDBBYD702G0WALJ012MCLY22U","data":[{"rt":33363,"url":"\/tickets\/utils\/consent.html","trial_type":"html","trial_index":0,"time_elapsed":33536,"internal_node_id":"0.0-0.0"},{"age":64,"gender":"f","trial_type":"age","trial_index":1,"time_elapsed":44141,"internal_node_id":"0.0-1.0"},{"worker_id":"A17K8XNE6EVFLI","trial_type":"workerid","trial_index":2,"time_elapsed":61324,"internal_node_id":"0.0-2.0"},{"tries":1,"trial_type":"instructions_check","trial_index":3,"time_elapsed":102693,"internal_node_id":"0.0-3.0"},{"rt":13778,"url":"\/tickets\/utils\/start.html","trial_type":"html","trial_index":4,"time_elapsed":117668,"internal_node_id":"0.0-4.0"},{"trial_type":"number-animation","trial_index":5,"time_elapsed":244626,"internal_node_id":"0.0-5.0"},{"phase":0,"sequence":0,"avg":162,"response":145,"trial_type":"training_avg","trial_index":6,"time_elapsed":269428,"internal_node_id":"0.0-6.0"},{"trial_type":"number-animation","trial_index":7,"time_elapsed":451080,"internal_node_id":"0.0-7.0"},{"phase":0,"sequence":1,"avg":158,"response":158,"trial_type":"training_avg","trial_index":8,"time_elapsed":514134,"internal_node_id":"0.0-8.0"},{"trial_type":"number-animation","trial_index":9,"time_elapsed":712971,"internal_node_id":"0.0-9.0"},{"phase":0,"sequence":2,"avg":166,"response":161,"trial_type":"training_avg","trial_index":10,"time_elapsed":765381,"internal_node_id":"0.0-10.0"},{"trial_type":"number-animation","trial_index":11,"time_elapsed":942533,"internal_node_id":"0.0-11.0"},{"phase":0,"sequence":3,"avg":153,"response":153,"trial_type":"training_avg","trial_index":12,"time_elapsed":952435,"internal_node_id":"0.0-12.0"},{"trial_type":"number-animation","trial_index":13,"time_elapsed":1086904,"internal_node_id":"0.0-13.0"},{"phase":0,"sequence":4,"avg":164,"response":140,"trial_type":"training_avg","trial_index":14,"time_elapsed":1103080,"internal_node_id":"0.0-14.0"},{"responses":[{"value":1,"offby":1,"category":"$105 - $120","category_index":0},{"value":2,"offby":1,"category":"$121 - $135","category_index":1},{"value":5,"offby":2,"category":"$136 - $150","category_index":2},{"value":5,"offby":-2,"category":"$151 - $165","category_index":3},{"value":7,"offby":1,"category":"$166 - $180","category_index":4},{"value":0,"offby":-3,"category":"$181 - $195","category_index":5},{"value":0,"offby":0,"category":"$196 - $210","category_index":6}],"phase":0,"number":0,"trial_type":"bar-choose","trial_index":15,"time_elapsed":1178566,"internal_node_id":"0.0-15.0"},{"rt":12239,"url":"\/tickets\/\/utils\/testing.html","trial_type":"html","trial_index":16,"time_elapsed":1191967,"internal_node_id":"0.0-16.0"},{"phase":0,"order":[41,18,9,31,29,16,47,15,32,37,3,5,27,21,49,42,24,2,46,36,26,20,34,4,14,19,23,0,35,48,30,45,6,40,39,17,25,7,10,12,28,38,13,8,22,1,11,43,44,33],"trial_type":"store_order","trial_index":17,"time_elapsed":1192969,"internal_node_id":"0.0-17.0"},{"result":126,"points":3,"place":0,"phase":0,"sequence":-1,"prices":[184,180,224,165,181,199,185,193,218,126],"times":[2820,828,733,1335,666,700,683,715,855,1442],"next_num":10,"trial_type":"ticket-choose","trial_index":18,"time_elapsed":1209223,"internal_node_id":"0.0-18.0"},{"rt":20131,"url":"\/tickets\/utils\/testing_after.html","trial_type":"html","trial_index":19,"time_elapsed":1230556,"internal_node_id":"0.0-19.0"},{"result":115,"points":3,"place":0,"phase":0,"sequence":0,"prices":[181,187,135,138,136,145,147,115,158,157],"times":[1691,545,539,965,712,799,550,1360],"next_num":8,"trial_type":"ticket-choose","trial_index":20,"time_elapsed":1244081,"internal_node_id":"0.0-20.0"},{"result":133,"points":3,"place":0,"phase":0,"sequence":1,"prices":[156,167,138,205,161,167,157,145,188,133],"times":[1709,741,1964,603,587,634,660,641,732,2672],"next_num":11,"trial_type":"ticket-choose","trial_index":21,"time_elapsed":1264441,"internal_node_id":"0.0-21.0"},{"result":136,"points":3,"place":0,"phase":0,"sequence":2,"prices":[155,165,147,204,161,166,158,148,188,136],"times":[2218,652,501,1336,676,611,666,2592,717,1638],"next_num":10,"trial_type":"ticket-choose","trial_index":22,"time_elapsed":1282491,"internal_node_id":"0.0-22.0"},{"result":128,"points":3,"place":0,"phase":0,"sequence":3,"prices":[128,151,130,143,147,200,142,166,167,145],"times":[3557],"next_num":1,"trial_type":"ticket-choose","trial_index":23,"time_elapsed":1289029,"internal_node_id":"0.0-23.0"},{"result":130,"points":3,"place":0,"phase":0,"sequence":4,"prices":[130,165,134,141,153,179,135,168,171,148],"times":[7298],"next_num":1,"trial_type":"ticket-choose","trial_index":24,"time_elapsed":1299809,"internal_node_id":"0.0-24.0"},{"result":133,"points":3,"place":0,"phase":0,"sequence":5,"prices":[155,166,138,203,160,167,157,146,189,133],"times":[5738,620,547,771,638,563,556,629,837,2255],"next_num":10,"trial_type":"ticket-choose","trial_index":25,"time_elapsed":1317958,"internal_node_id":"0.0-25.0"},{"result":132,"points":3,"place":0,"phase":0,"sequence":6,"prices":[180,161,183,132,155,151,140,134,156,171],"times":[1648,677,660,1634],"next_num":4,"trial_type":"ticket-choose","trial_index":26,"time_elapsed":1326195,"internal_node_id":"0.0-26.0"},{"result":133,"points":3,"place":0,"phase":0,"sequence":7,"prices":[155,167,158,205,159,167,147,149,188,133],"times":[1994,611,643,598,473,482,475,603,715,1498],"next_num":10,"trial_type":"ticket-choose","trial_index":27,"time_elapsed":1339398,"internal_node_id":"0.0-27.0"},{"result":168,"points":1,"place":4,"phase":0,"sequence":8,"prices":[141,173,147,167,170,204,154,174,175,168],"times":[4063,633,502,458,546,620,573,620,635,702],"next_num":11,"trial_type":"ticket-choose","trial_index":28,"time_elapsed":1353739,"internal_node_id":"0.0-28.0"},{"result":151,"points":1,"place":4,"phase":0,"sequence":9,"prices":[178,173,149,143,182,162,132,144,157,151],"times":[1741,555,493,633,620,597,620,1520,886,780],"next_num":11,"trial_type":"ticket-choose","trial_index":29,"time_elapsed":1366732,"internal_node_id":"0.0-29.0"},{"result":133,"points":3,"place":0,"phase":0,"sequence":10,"prices":[155,166,143,204,159,167,156,145,133,190],"times":[1227,694,1013,744,996,645,665,862,1093],"next_num":9,"trial_type":"ticket-choose","trial_index":30,"time_elapsed":1378761,"internal_node_id":"0.0-30.0"},{"result":134,"points":3,"place":0,"phase":0,"sequence":11,"prices":[155,167,156,206,160,168,143,145,134,188],"times":[1124,660,589,717,627,658,886,1057,933],"next_num":9,"trial_type":"ticket-choose","trial_index":31,"time_elapsed":1390074,"internal_node_id":"0.0-31.0"},{"result":166,"points":1,"place":4,"phase":0,"sequence":12,"prices":[148,172,151,158,168,197,152,175,177,166],"times":[4517,603,564,605,650,581,570,614,667,2591],"next_num":11,"trial_type":"ticket-choose","trial_index":32,"time_elapsed":1406267,"internal_node_id":"0.0-32.0"},{"result":138,"points":2,"place":1,"phase":0,"sequence":13,"prices":[155,166,157,203,161,168,138,147,188,134],"times":[1175,867,696,690,594,554,1057],"next_num":7,"trial_type":"ticket-choose","trial_index":33,"time_elapsed":1415762,"internal_node_id":"0.0-33.0"},{"result":128,"points":3,"place":0,"phase":0,"sequence":14,"prices":[163,143,165,160,146,128,140,166,156,164],"times":[2091,2376,570,678,540,1048],"next_num":6,"trial_type":"ticket-choose","trial_index":34,"time_elapsed":1426575,"internal_node_id":"0.0-34.0"},{"result":123,"points":3,"place":0,"phase":0,"sequence":15,"prices":[202,153,182,177,123,185,178,163,158,166],"times":[2287,716,659,588,1409],"next_num":5,"trial_type":"ticket-choose","trial_index":35,"time_elapsed":1435473,"internal_node_id":"0.0-35.0"},{"result":164,"points":1,"place":4,"phase":0,"sequence":16,"prices":[141,173,155,161,165,204,160,179,198,164],"times":[3386,579,750,620,1014,612,643,837,750,3680],"next_num":10,"trial_type":"ticket-choose","trial_index":36,"time_elapsed":1452467,"internal_node_id":"0.0-36.0"},{"result":133,"points":3,"place":0,"phase":0,"sequence":17,"prices":[154,166,143,205,161,167,156,146,133,189],"times":[2274,974,983,757,564,653,1015,2511,1015],"next_num":9,"trial_type":"ticket-choose","trial_index":37,"time_elapsed":1467275,"internal_node_id":"0.0-37.0"},{"result":138,"points":3,"place":0,"phase":0,"sequence":18,"prices":[190,164,206,173,195,138,179,155,156,188],"times":[1949,660,710,627,627,2756],"next_num":6,"trial_type":"ticket-choose","trial_index":38,"time_elapsed":1478180,"internal_node_id":"0.0-38.0"},{"result":134,"points":3,"place":0,"phase":0,"sequence":19,"prices":[168,180,145,152,178,154,157,134,157,160],"times":[1663,2705,967,619,936,586,645,967],"next_num":8,"trial_type":"ticket-choose","trial_index":39,"time_elapsed":1490975,"internal_node_id":"0.0-39.0"},{"result":132,"points":3,"place":0,"phase":0,"sequence":20,"prices":[132,180,138,153,162,187,141,182,184,160],"times":[2464],"next_num":1,"trial_type":"ticket-choose","trial_index":40,"time_elapsed":1495721,"internal_node_id":"0.0-40.0"},{"result":138,"points":2,"place":1,"phase":0,"sequence":21,"prices":[155,166,157,203,160,167,138,146,189,133],"times":[1069,692,597,1119,613,564,1015],"next_num":7,"trial_type":"ticket-choose","trial_index":41,"time_elapsed":1504773,"internal_node_id":"0.0-41.0"},{"result":135,"points":2,"place":1,"phase":0,"sequence":22,"prices":[161,135,128,141,148,167,152,179,156,174],"times":[1247,1079],"next_num":2,"trial_type":"ticket-choose","trial_index":42,"time_elapsed":1509517,"internal_node_id":"0.0-42.0"},{"result":133,"points":3,"place":0,"phase":0,"sequence":23,"prices":[156,166,156,206,159,167,143,146,133,188],"times":[989,642,500,900,550,611,1741,1053,1055],"next_num":9,"trial_type":"ticket-choose","trial_index":43,"time_elapsed":1521593,"internal_node_id":"0.0-43.0"},{"result":133,"points":3,"place":0,"phase":0,"sequence":24,"prices":[155,166,158,205,159,167,147,149,189,133],"times":[3147,603,827,774,611,815,708,865,633,1112],"next_num":10,"trial_type":"ticket-choose","trial_index":44,"time_elapsed":1535686,"internal_node_id":"0.0-44.0"},{"result":138,"points":2,"place":1,"phase":0,"sequence":25,"prices":[156,165,138,205,160,166,157,146,189,134],"times":[2593,700,1015],"next_num":3,"trial_type":"ticket-choose","trial_index":45,"time_elapsed":1542589,"internal_node_id":"0.0-45.0"},{"result":138,"points":2,"place":1,"phase":0,"sequence":26,"prices":[156,165,157,205,160,166,138,146,189,134],"times":[1040,732,731,692,563,638,1797],"next_num":7,"trial_type":"ticket-choose","trial_index":46,"time_elapsed":1552078,"internal_node_id":"0.0-46.0"},{"result":133,"points":3,"place":0,"phase":0,"sequence":27,"prices":[156,166,143,206,159,167,156,146,133,188],"times":[1269,524,496,887,497,547,523,789,1457],"next_num":9,"trial_type":"ticket-choose","trial_index":47,"time_elapsed":1563048,"internal_node_id":"0.0-47.0"},{"result":134,"points":2,"place":1,"phase":0,"sequence":28,"prices":[148,134,152,165,175,124,164,191,157,207],"times":[1823,2263],"next_num":2,"trial_type":"ticket-choose","trial_index":48,"time_elapsed":1569596,"internal_node_id":"0.0-48.0"},{"result":159,"points":1,"place":4,"phase":0,"sequence":29,"prices":[161,195,149,127,162,173,157,164,156,159],"times":[1043,637,571,579,942,684,638,626,1021,1265],"next_num":11,"trial_type":"ticket-choose","trial_index":49,"time_elapsed":1581851,"internal_node_id":"0.0-49.0"},{"result":156,"points":1,"place":4,"phase":0,"sequence":30,"prices":[137,171,145,155,162,183,150,175,180,156],"times":[3644,532,805,571,509,642,571,588,555,1264],"next_num":10,"trial_type":"ticket-choose","trial_index":50,"time_elapsed":1595398,"internal_node_id":"0.0-50.0"},{"result":150,"points":1,"place":2,"phase":0,"sequence":31,"prices":[192,172,168,164,147,173,169,144,156,150],"times":[2058,556,587,678,990,715,554,677,636,1248],"next_num":10,"trial_type":"ticket-choose","trial_index":51,"time_elapsed":1607995,"internal_node_id":"0.0-51.0"},{"result":133,"points":3,"place":0,"phase":0,"sequence":32,"prices":[154,166,156,205,161,167,143,146,133,189],"times":[1462,733,732,1378,893,573,901,918,1193],"next_num":9,"trial_type":"ticket-choose","trial_index":52,"time_elapsed":1620962,"internal_node_id":"0.0-52.0"},{"result":130,"points":3,"place":0,"phase":0,"sequence":33,"prices":[169,130,155,140,168,187,138,174,158,179],"times":[1969,1377],"next_num":2,"trial_type":"ticket-choose","trial_index":53,"time_elapsed":1626905,"internal_node_id":"0.0-53.0"},{"result":151,"points":1,"place":3,"phase":0,"sequence":34,"prices":[169,147,160,177,145,148,152,193,158,151],"times":[1039,943,588,554,853,1056,581,788,635,1363],"next_num":10,"trial_type":"ticket-choose","trial_index":54,"time_elapsed":1639479,"internal_node_id":"0.0-54.0"},{"result":138,"points":2,"place":1,"phase":0,"sequence":35,"prices":[155,166,138,203,161,168,157,147,188,134],"times":[1874,555,1218],"next_num":3,"trial_type":"ticket-choose","trial_index":55,"time_elapsed":1645682,"internal_node_id":"0.0-55.0"},{"result":136,"points":3,"place":0,"phase":0,"sequence":36,"prices":[136,181,142,146,165,194,145,182,184,159],"times":[1785],"next_num":1,"trial_type":"ticket-choose","trial_index":56,"time_elapsed":1649798,"internal_node_id":"0.0-56.0"},{"result":133,"points":3,"place":0,"phase":0,"sequence":37,"prices":[155,166,156,204,159,167,143,145,133,190],"times":[1292,742,522,700,636,581,764,637,1036],"next_num":9,"trial_type":"ticket-choose","trial_index":57,"time_elapsed":1660648,"internal_node_id":"0.0-57.0"},{"result":133,"points":3,"place":0,"phase":0,"sequence":38,"prices":[155,166,147,205,159,167,158,149,189,133],"times":[2292,629,650,693,686,820,692,620,610,873],"next_num":10,"trial_type":"ticket-choose","trial_index":58,"time_elapsed":1673237,"internal_node_id":"0.0-58.0"},{"result":136,"points":3,"place":0,"phase":0,"sequence":39,"prices":[154,166,158,205,161,168,147,148,188,136],"times":[1866,1900,749,731,579,919,1054,621,714,977],"next_num":10,"trial_type":"ticket-choose","trial_index":59,"time_elapsed":1687341,"internal_node_id":"0.0-59.0"},{"result":165,"points":1,"place":4,"phase":0,"sequence":40,"prices":[149,176,150,164,167,191,151,181,182,165],"times":[1030,749,642,935,634,646,603,919,692,1183],"next_num":10,"trial_type":"ticket-choose","trial_index":60,"time_elapsed":1699369,"internal_node_id":"0.0-60.0"},{"result":146,"points":2,"place":1,"phase":0,"sequence":41,"prices":[148,179,176,178,165,175,207,143,157,146],"times":[1471,597,628,620,548,636,1201,690,684,647],"next_num":11,"trial_type":"ticket-choose","trial_index":61,"time_elapsed":1711267,"internal_node_id":"0.0-61.0"},{"result":136,"points":3,"place":0,"phase":0,"sequence":42,"prices":[155,165,158,204,161,166,147,148,188,136],"times":[1382,957,589,582,620,620,976,603,605,1041],"next_num":10,"trial_type":"ticket-choose","trial_index":62,"time_elapsed":1723207,"internal_node_id":"0.0-62.0"},{"result":136,"points":3,"place":0,"phase":0,"sequence":43,"prices":[154,166,147,205,161,168,158,148,188,136],"times":[1954,1328,565,757,924,621,685,614,636,1072],"next_num":10,"trial_type":"ticket-choose","trial_index":63,"time_elapsed":1742626,"internal_node_id":"0.0-63.0"},{"result":133,"points":3,"place":0,"phase":0,"sequence":44,"prices":[156,167,157,205,161,167,138,145,188,133],"times":[18701,7944,36155,5662,45900,25727,8014,9714,6981,54225],"next_num":11,"trial_type":"ticket-choose","trial_index":64,"time_elapsed":1972964,"internal_node_id":"0.0-64.0"},{"result":134,"points":3,"place":0,"phase":0,"sequence":45,"prices":[155,167,143,206,160,168,156,145,134,188],"times":[9889,838,2440,605,540,541,660,546,1435],"next_num":9,"trial_type":"ticket-choose","trial_index":65,"time_elapsed":1995438,"internal_node_id":"0.0-65.0"},{"result":133,"points":3,"place":0,"phase":0,"sequence":46,"prices":[155,167,147,205,159,167,158,149,188,133],"times":[9483,805,1448,515,509,522,671,666,693,945],"next_num":10,"trial_type":"ticket-choose","trial_index":66,"time_elapsed":2015711,"internal_node_id":"0.0-66.0"},{"result":150,"points":2,"place":1,"phase":0,"sequence":47,"prices":[181,167,137,164,178,159,168,165,158,150],"times":[3959,507,451,675,484,387,620,547,550,941],"next_num":11,"trial_type":"ticket-choose","trial_index":67,"time_elapsed":2028940,"internal_node_id":"0.0-67.0"},{"result":139,"points":1,"place":2,"phase":0,"sequence":48,"prices":[160,139,129,155,165,121,143,154,158,187],"times":[1521,1183],"next_num":2,"trial_type":"ticket-choose","trial_index":68,"time_elapsed":2034063,"internal_node_id":"0.0-68.0"},{"result":139,"points":3,"place":0,"phase":0,"sequence":49,"prices":[139,163,146,148,153,185,147,167,171,150],"times":[3161],"next_num":1,"trial_type":"ticket-choose","trial_index":69,"time_elapsed":2039799,"internal_node_id":"0.0-69.0"},{"responses":[{"value":0,"offby":0,"category":"$105 - $120","category_index":0},{"value":4,"offby":3,"category":"$121 - $135","category_index":1},{"value":4,"offby":1,"category":"$136 - $150","category_index":2},{"value":4,"offby":-3,"category":"$151 - $165","category_index":3},{"value":5,"offby":-1,"category":"$166 - $180","category_index":4},{"value":2,"offby":-1,"category":"$181 - $195","category_index":5},{"value":1,"offby":1,"category":"$196 - $210","category_index":6}],"phase":0,"number":1,"trial_type":"bar-choose","trial_index":70,"time_elapsed":2108621,"internal_node_id":"0.0-70.0"},{"rt":14913,"url":"\/tickets\/utils\/start2.html","trial_type":"html","trial_index":71,"time_elapsed":2124710,"internal_node_id":"0.0-71.0"},{"trial_type":"number-animation","trial_index":72,"time_elapsed":2278821,"internal_node_id":"0.0-72.0"},{"phase":1,"sequence":0,"avg":188,"response":193,"trial_type":"training_avg","trial_index":73,"time_elapsed":2290331,"internal_node_id":"0.0-73.0"},{"trial_type":"number-animation","trial_index":74,"time_elapsed":2409910,"internal_node_id":"0.0-74.0"},{"phase":1,"sequence":1,"avg":202,"response":202,"trial_type":"training_avg","trial_index":75,"time_elapsed":2418171,"internal_node_id":"0.0-75.0"},{"trial_type":"number-animation","trial_index":76,"time_elapsed":2523968,"internal_node_id":"0.0-76.0"},{"phase":1,"sequence":2,"avg":200,"response":200,"trial_type":"training_avg","trial_index":77,"time_elapsed":2532399,"internal_node_id":"0.0-77.0"},{"trial_type":"number-animation","trial_index":78,"time_elapsed":2634070,"internal_node_id":"0.0-78.0"},{"phase":1,"sequence":3,"avg":209,"response":209,"trial_type":"training_avg","trial_index":79,"time_elapsed":2643674,"internal_node_id":"0.0-79.0"},{"trial_type":"number-animation","trial_index":80,"time_elapsed":2750276,"internal_node_id":"0.0-80.0"},{"phase":1,"sequence":4,"avg":195,"response":195,"trial_type":"training_avg","trial_index":81,"time_elapsed":2761181,"internal_node_id":"0.0-81.0"},{"responses":[{"value":2,"offby":2,"category":"$145 - $160","category_index":0},{"value":4,"offby":3,"category":"$161 - $175","category_index":1},{"value":5,"offby":2,"category":"$176 - $190","category_index":2},{"value":5,"offby":-2,"category":"$191 - $205","category_index":3},{"value":2,"offby":-4,"category":"$206 - $220","category_index":4},{"value":1,"offby":-2,"category":"$221 - $235","category_index":5},{"value":1,"offby":1,"category":"$226 - $260","category_index":6}],"phase":1,"number":0,"trial_type":"bar-choose","trial_index":82,"time_elapsed":2816640,"internal_node_id":"0.0-82.0"},{"rt":6514,"url":"\/tickets\/utils\/testing2.html","trial_type":"html","trial_index":83,"time_elapsed":2824318,"internal_node_id":"0.0-83.0"},{"phase":1,"order":[49,2,17,34,22,24,33,15,43,29,35,26,23,5,27,20,30,39,12,40,10,6,25,4,0,7,19,41,21,28,42,36,16,8,3,46,14,44,9,31,11,1,37,32,38,48,45,47,13,18],"trial_type":"store_order","trial_index":84,"time_elapsed":2825321,"internal_node_id":"0.0-84.0"},{"result":204,"points":0,"place":7,"phase":1,"sequence":0,"prices":[203,183,205,200,186,168,180,206,196,204],"times":[2836,331,627,546,564,692,596,651,671,1207],"next_num":11,"trial_type":"ticket-choose","trial_index":85,"time_elapsed":2838100,"internal_node_id":"0.0-85.0"},{"result":186,"points":1,"place":2,"phase":1,"sequence":1,"prices":[194,206,183,245,201,207,196,186,173,229],"times":[1420,790,667,828,804,1055,716,2271],"next_num":8,"trial_type":"ticket-choose","trial_index":86,"time_elapsed":2850322,"internal_node_id":"0.0-86.0"},{"result":174,"points":3,"place":0,"phase":1,"sequence":2,"prices":[195,206,178,243,201,208,197,187,228,174],"times":[1150,660,562,620,216,242,585,951,611,1079],"next_num":10,"trial_type":"ticket-choose","trial_index":87,"time_elapsed":2861429,"internal_node_id":"0.0-87.0"},{"result":168,"points":3,"place":0,"phase":1,"sequence":3,"prices":[201,175,168,181,188,207,192,219,196,214],"times":[1325,613,883],"next_num":3,"trial_type":"ticket-choose","trial_index":88,"time_elapsed":2866784,"internal_node_id":"0.0-88.0"},{"result":173,"points":3,"place":0,"phase":1,"sequence":4,"prices":[196,207,197,245,201,207,178,185,228,173],"times":[1171,692,669,627,823,717,628,675,619,766],"next_num":10,"trial_type":"ticket-choose","trial_index":89,"time_elapsed":2878407,"internal_node_id":"0.0-89.0"},{"result":181,"points":3,"place":0,"phase":1,"sequence":5,"prices":[181,213,195,201,205,244,200,219,238,204],"times":[6318],"next_num":1,"trial_type":"ticket-choose","trial_index":90,"time_elapsed":2887610,"internal_node_id":"0.0-90.0"},{"result":179,"points":3,"place":0,"phase":1,"sequence":6,"prices":[179,203,186,188,193,225,187,207,211,190],"times":[1237],"next_num":1,"trial_type":"ticket-choose","trial_index":91,"time_elapsed":2891151,"internal_node_id":"0.0-91.0"},{"result":173,"points":3,"place":0,"phase":1,"sequence":7,"prices":[195,207,198,245,199,207,187,189,228,173],"times":[1100,1110,491,652,548,660,1135,700,637,844],"next_num":10,"trial_type":"ticket-choose","trial_index":92,"time_elapsed":2903044,"internal_node_id":"0.0-92.0"},{"result":177,"points":3,"place":0,"phase":1,"sequence":8,"prices":[221,207,177,204,218,199,208,205,198,190],"times":[1431,722,1589],"next_num":3,"trial_type":"ticket-choose","trial_index":93,"time_elapsed":2909348,"internal_node_id":"0.0-93.0"},{"result":170,"points":3,"place":0,"phase":1,"sequence":9,"prices":[170,205,174,181,193,219,175,208,211,188],"times":[1235],"next_num":1,"trial_type":"ticket-choose","trial_index":94,"time_elapsed":2912698,"internal_node_id":"0.0-94.0"},{"result":188,"points":1,"place":2,"phase":1,"sequence":10,"prices":[188,174,192,205,215,164,204,231,197,247],"times":[2984],"next_num":1,"trial_type":"ticket-choose","trial_index":95,"time_elapsed":2917753,"internal_node_id":"0.0-95.0"},{"result":172,"points":3,"place":0,"phase":1,"sequence":11,"prices":[172,220,178,193,202,227,181,222,224,200],"times":[1044],"next_num":1,"trial_type":"ticket-choose","trial_index":96,"time_elapsed":2920928,"internal_node_id":"0.0-96.0"},{"result":196,"points":1,"place":3,"phase":1,"sequence":12,"prices":[196,205,197,245,200,206,178,186,229,174],"times":[947],"next_num":1,"trial_type":"ticket-choose","trial_index":97,"time_elapsed":2924984,"internal_node_id":"0.0-97.0"},{"result":174,"points":3,"place":0,"phase":1,"sequence":13,"prices":[195,207,196,246,200,208,183,185,174,228],"times":[1046,650,661,226,467,644,2141,580,1038],"next_num":9,"trial_type":"ticket-choose","trial_index":98,"time_elapsed":2936329,"internal_node_id":"0.0-98.0"},{"result":188,"points":3,"place":0,"phase":1,"sequence":14,"prices":[188,212,191,198,208,237,192,215,217,206],"times":[1093],"next_num":1,"trial_type":"ticket-choose","trial_index":99,"time_elapsed":2939381,"internal_node_id":"0.0-99.0"},{"result":178,"points":2,"place":1,"phase":1,"sequence":15,"prices":[195,206,197,243,200,207,178,186,229,173],"times":[1286,748,356,668,602,579,1555],"next_num":7,"trial_type":"ticket-choose","trial_index":100,"time_elapsed":2948583,"internal_node_id":"0.0-100.0"},{"result":177,"points":3,"place":0,"phase":1,"sequence":16,"prices":[177,211,185,195,202,223,190,215,220,196],"times":[988],"next_num":1,"trial_type":"ticket-choose","trial_index":101,"time_elapsed":2951361,"internal_node_id":"0.0-101.0"},{"result":185,"points":3,"place":0,"phase":1,"sequence":17,"prices":[209,187,200,217,185,188,192,233,198,191],"times":[987,952,691,563,1287],"next_num":5,"trial_type":"ticket-choose","trial_index":102,"time_elapsed":2958839,"internal_node_id":"0.0-102.0"},{"result":176,"points":3,"place":0,"phase":1,"sequence":18,"prices":[194,206,198,245,201,208,187,188,228,176],"times":[763,572,217,668,667,556,974,1044,602,732],"next_num":10,"trial_type":"ticket-choose","trial_index":103,"time_elapsed":2969354,"internal_node_id":"0.0-103.0"},{"result":170,"points":3,"place":0,"phase":1,"sequence":19,"prices":[209,170,195,180,208,227,178,214,198,219],"times":[1825,1263],"next_num":2,"trial_type":"ticket-choose","trial_index":104,"time_elapsed":2974595,"internal_node_id":"0.0-104.0"},{"result":173,"points":3,"place":0,"phase":1,"sequence":20,"prices":[195,206,187,245,199,207,198,189,229,173],"times":[897,691,1198,558,363,531,638,645,650,717],"next_num":10,"trial_type":"ticket-choose","trial_index":105,"time_elapsed":2986150,"internal_node_id":"0.0-105.0"},{"result":183,"points":2,"place":1,"phase":1,"sequence":21,"prices":[194,206,196,245,201,207,183,186,173,229],"times":[1325,683,775,640,687,529,2973],"next_num":7,"trial_type":"ticket-choose","trial_index":106,"time_elapsed":2996874,"internal_node_id":"0.0-106.0"},{"result":176,"points":3,"place":0,"phase":1,"sequence":22,"prices":[176,221,182,186,205,234,185,222,224,199],"times":[1246],"next_num":1,"trial_type":"ticket-choose","trial_index":107,"time_elapsed":2999991,"internal_node_id":"0.0-107.0"},{"result":173,"points":3,"place":0,"phase":1,"sequence":23,"prices":[196,206,196,246,199,207,183,186,173,228],"times":[961,645,917,475,240,436,442,637,1055],"next_num":9,"trial_type":"ticket-choose","trial_index":108,"time_elapsed":3009788,"internal_node_id":"0.0-108.0"},{"result":183,"points":2,"place":1,"phase":1,"sequence":24,"prices":[196,206,183,246,199,207,196,186,173,228],"times":[1600,601,2020],"next_num":3,"trial_type":"ticket-choose","trial_index":109,"time_elapsed":3016414,"internal_node_id":"0.0-109.0"},{"result":173,"points":3,"place":0,"phase":1,"sequence":25,"prices":[195,206,196,244,199,207,183,185,173,230],"times":[938,675,976,595,716,588,2174,990,1391],"next_num":9,"trial_type":"ticket-choose","trial_index":110,"time_elapsed":3029225,"internal_node_id":"0.0-110.0"},{"result":178,"points":2,"place":1,"phase":1,"sequence":26,"prices":[196,205,178,245,200,206,197,186,229,174],"times":[1928,603,1135],"next_num":3,"trial_type":"ticket-choose","trial_index":111,"time_elapsed":3035126,"internal_node_id":"0.0-111.0"},{"result":175,"points":2,"place":1,"phase":1,"sequence":27,"prices":[221,227,175,178,176,185,187,155,198,197],"times":[960,614,1213],"next_num":3,"trial_type":"ticket-choose","trial_index":112,"time_elapsed":3040279,"internal_node_id":"0.0-112.0"},{"result":178,"points":2,"place":1,"phase":1,"sequence":28,"prices":[195,206,197,243,201,208,178,187,228,174],"times":[695,564,553,629,739,524,1813],"next_num":7,"trial_type":"ticket-choose","trial_index":113,"time_elapsed":3049192,"internal_node_id":"0.0-113.0"},{"result":205,"points":1,"place":4,"phase":1,"sequence":29,"prices":[189,216,190,204,207,231,191,221,222,205],"times":[1139,637,916,557,554,573,845,571,605,965],"next_num":10,"trial_type":"ticket-choose","trial_index":114,"time_elapsed":3060369,"internal_node_id":"0.0-114.0"},{"result":163,"points":3,"place":0,"phase":1,"sequence":30,"prices":[242,193,222,217,163,225,218,203,198,206],"times":[1694,627,651,590,974],"next_num":5,"trial_type":"ticket-choose","trial_index":115,"time_elapsed":3067785,"internal_node_id":"0.0-115.0"},{"result":185,"points":2,"place":1,"phase":1,"sequence":31,"prices":[208,220,185,192,218,194,197,174,197,200],"times":[939,725,6327],"next_num":3,"trial_type":"ticket-choose","trial_index":116,"time_elapsed":3078229,"internal_node_id":"0.0-116.0"},{"result":173,"points":3,"place":0,"phase":1,"sequence":32,"prices":[195,206,178,243,200,207,197,186,229,173],"times":[772,545,515,748,574,473,581,564,910,1208],"next_num":10,"trial_type":"ticket-choose","trial_index":117,"time_elapsed":3091825,"internal_node_id":"0.0-117.0"},{"result":176,"points":3,"place":0,"phase":1,"sequence":33,"prices":[194,206,187,245,201,208,198,188,228,176],"times":[4492,619,328,684,588,619,854,652,870,715],"next_num":10,"trial_type":"ticket-choose","trial_index":118,"time_elapsed":3106181,"internal_node_id":"0.0-118.0"},{"result":173,"points":3,"place":0,"phase":1,"sequence":34,"prices":[195,206,183,244,199,207,196,185,173,230],"times":[860,691,1523,716,1211,595,580,2833,1022],"next_num":9,"trial_type":"ticket-choose","trial_index":119,"time_elapsed":3120249,"internal_node_id":"0.0-119.0"},{"result":228,"points":0,"place":6,"phase":1,"sequence":35,"prices":[230,204,246,213,235,178,219,195,196,228],"times":[1567,659,644,572,628,620,892,466,813,622],"next_num":11,"trial_type":"ticket-choose","trial_index":120,"time_elapsed":3131919,"internal_node_id":"0.0-120.0"},{"result":173,"points":3,"place":0,"phase":1,"sequence":36,"prices":[195,206,198,245,199,207,187,189,229,173],"times":[1022,613,756,619,733,637,643,766,739,611],"next_num":11,"trial_type":"ticket-choose","trial_index":121,"time_elapsed":3143120,"internal_node_id":"0.0-121.0"},{"result":179,"points":1,"place":2,"phase":1,"sequence":37,"prices":[200,179,169,195,205,161,183,194,198,227],"times":[1179,1484],"next_num":2,"trial_type":"ticket-choose","trial_index":122,"time_elapsed":3148023,"internal_node_id":"0.0-122.0"},{"result":176,"points":3,"place":0,"phase":1,"sequence":38,"prices":[195,205,187,244,201,206,198,188,228,176],"times":[1373,741,886,604,556,610,797,1079,635,949],"next_num":10,"trial_type":"ticket-choose","trial_index":123,"time_elapsed":3160133,"internal_node_id":"0.0-123.0"},{"result":168,"points":3,"place":0,"phase":1,"sequence":39,"prices":[168,191,170,183,187,240,182,206,207,185],"times":[2324],"next_num":1,"trial_type":"ticket-choose","trial_index":124,"time_elapsed":3164402,"internal_node_id":"0.0-124.0"},{"result":173,"points":3,"place":0,"phase":1,"sequence":40,"prices":[195,207,187,245,199,207,198,189,228,173],"times":[978,582,830,667,668,684,821,588,661,634],"next_num":10,"trial_type":"ticket-choose","trial_index":125,"time_elapsed":3175225,"internal_node_id":"0.0-125.0"},{"result":174,"points":3,"place":0,"phase":1,"sequence":41,"prices":[195,207,183,246,200,208,196,185,174,228],"times":[1109,611,871,555,645,620,862,1240,990],"next_num":9,"trial_type":"ticket-choose","trial_index":126,"time_elapsed":3186927,"internal_node_id":"0.0-126.0"},{"result":191,"points":1,"place":4,"phase":1,"sequence":42,"prices":[218,213,189,183,222,202,172,184,197,191],"times":[938,604,1127,2554,669,612,540,781,660,660],"next_num":11,"trial_type":"ticket-choose","trial_index":127,"time_elapsed":3200455,"internal_node_id":"0.0-127.0"},{"result":208,"points":1,"place":4,"phase":1,"sequence":43,"prices":[181,213,187,207,210,244,194,214,215,208],"times":[1253,1134,645,2329,514,618,1262,590,659,1457],"next_num":11,"trial_type":"ticket-choose","trial_index":128,"time_elapsed":3215023,"internal_node_id":"0.0-128.0"},{"result":186,"points":2,"place":1,"phase":1,"sequence":44,"prices":[188,219,216,218,205,215,247,183,197,186],"times":[1434,734,554,507,717,572,779,596,645,564],"next_num":11,"trial_type":"ticket-choose","trial_index":129,"time_elapsed":3226170,"internal_node_id":"0.0-129.0"},{"result":167,"points":3,"place":0,"phase":1,"sequence":45,"prices":[201,235,189,167,202,213,197,204,196,199],"times":[1943,1086,685,1215],"next_num":4,"trial_type":"ticket-choose","trial_index":130,"time_elapsed":3233771,"internal_node_id":"0.0-130.0"},{"result":184,"points":3,"place":0,"phase":1,"sequence":46,"prices":[232,212,208,204,187,213,209,184,196,190],"times":[898,686,1480,604,1078,612,845,1450],"next_num":8,"trial_type":"ticket-choose","trial_index":131,"time_elapsed":3244910,"internal_node_id":"0.0-131.0"},{"result":172,"points":3,"place":0,"phase":1,"sequence":47,"prices":[220,201,223,172,195,191,180,174,196,211],"times":[1938,659,635,1136],"next_num":4,"trial_type":"ticket-choose","trial_index":132,"time_elapsed":3251869,"internal_node_id":"0.0-132.0"},{"result":176,"points":3,"place":0,"phase":1,"sequence":48,"prices":[195,205,198,244,201,206,187,188,228,176],"times":[2510,610,660,749,821,597,1084,1151,631,762],"next_num":10,"trial_type":"ticket-choose","trial_index":133,"time_elapsed":3266335,"internal_node_id":"0.0-133.0"},{"result":178,"points":2,"place":1,"phase":1,"sequence":49,"prices":[196,207,178,245,201,207,197,185,228,173],"times":[2041,1594,1039],"next_num":3,"trial_type":"ticket-choose","trial_index":134,"time_elapsed":3273470,"internal_node_id":"0.0-134.0"},{"responses":[{"value":1,"offby":1,"category":"$145 - $160","category_index":0},{"value":2,"offby":1,"category":"$161 - $175","category_index":1},{"value":3,"offby":0,"category":"$176 - $190","category_index":2},{"value":6,"offby":-1,"category":"$191 - $205","category_index":3},{"value":6,"offby":0,"category":"$206 - $220","category_index":4},{"value":1,"offby":-2,"category":"$221 - $235","category_index":5},{"value":1,"offby":1,"category":"$226 - $260","category_index":6}],"phase":1,"number":1,"trial_type":"bar-choose","trial_index":135,"time_elapsed":3349733,"internal_node_id":"0.0-135.0"},{"special_comment":"They ascended with each batch","trial_type":"special_sequence","trial_index":136,"time_elapsed":3370957,"internal_node_id":"0.0-136.0"},{"during":"Nothing","bonus":324,"trial_type":"final","trial_index":137,"time_elapsed":3427302,"internal_node_id":"0.0-137.0"}],"bonus":324}