{"start_time":"2017-02-27 11:01:32","end_time":"2017-02-27 11:25:43","points_phase0":103,"points_phase1":102,"phase_order":1,"age":28,"gender":"m","tries":1,"during":"Nothing","worker_id":"A18G2CLYSTENK","assignment_id":"3QY7M81QH8F93JHWRS8IWO5O3U77KN","data":[{"rt":12581,"url":"\/tickets\/utils\/consent.html","trial_type":"html","trial_index":0,"time_elapsed":12786,"internal_node_id":"0.0-0.0"},{"age":28,"gender":"m","trial_type":"age","trial_index":1,"time_elapsed":55838,"internal_node_id":"0.0-1.0"},{"worker_id":"A18G2CLYSTENK","trial_type":"workerid","trial_index":2,"time_elapsed":93956,"internal_node_id":"0.0-2.0"},{"tries":1,"trial_type":"instructions_check","trial_index":3,"time_elapsed":104558,"internal_node_id":"0.0-3.0"},{"rt":1235,"url":"\/tickets\/utils\/start.html","trial_type":"html","trial_index":4,"time_elapsed":106949,"internal_node_id":"0.0-4.0"},{"trial_type":"number-animation","trial_index":5,"time_elapsed":119172,"internal_node_id":"0.0-5.0"},{"phase":0,"sequence":0,"avg":166,"response":175,"trial_type":"training_avg","trial_index":6,"time_elapsed":125234,"internal_node_id":"0.0-6.0"},{"trial_type":"number-animation","trial_index":7,"time_elapsed":133115,"internal_node_id":"0.0-7.0"},{"phase":0,"sequence":1,"avg":198,"response":188,"trial_type":"training_avg","trial_index":8,"time_elapsed":138823,"internal_node_id":"0.0-8.0"},{"trial_type":"number-animation","trial_index":9,"time_elapsed":229694,"internal_node_id":"0.0-9.0"},{"phase":0,"sequence":2,"avg":177,"response":186,"trial_type":"training_avg","trial_index":10,"time_elapsed":236665,"internal_node_id":"0.0-10.0"},{"trial_type":"number-animation","trial_index":11,"time_elapsed":243632,"internal_node_id":"0.0-11.0"},{"phase":0,"sequence":3,"avg":190,"response":187,"trial_type":"training_avg","trial_index":12,"time_elapsed":248834,"internal_node_id":"0.0-12.0"},{"trial_type":"number-animation","trial_index":13,"time_elapsed":256925,"internal_node_id":"0.0-13.0"},{"phase":0,"sequence":4,"avg":201,"response":198,"trial_type":"training_avg","trial_index":14,"time_elapsed":262807,"internal_node_id":"0.0-14.0"},{"responses":[{"value":0,"offby":-1,"category":"$30 - $75","category_index":0},{"value":0,"offby":-2,"category":"$76 - $120","category_index":1},{"value":5,"offby":1,"category":"$121 - $165","category_index":2},{"value":5,"offby":-1,"category":"$166 - $210","category_index":3},{"value":5,"offby":-1,"category":"$211 - $255","category_index":4},{"value":5,"offby":4,"category":"$256 - $300","category_index":5},{"value":0,"offby":0,"category":"$301 - $345","category_index":6}],"phase":0,"number":0,"trial_type":"bar-choose","trial_index":15,"time_elapsed":275681,"internal_node_id":"0.0-15.0"},{"rt":1268,"url":"\/tickets\/\/utils\/testing.html","trial_type":"html","trial_index":16,"time_elapsed":278131,"internal_node_id":"0.0-16.0"},{"phase":0,"order":[3,36,33,12,22,49,6,40,38,27,42,11,8,47,30,28,17,37,45,0,14,15,18,44,48,7,46,25,16,34,19,35,1,31,26,13,32,2,21,10,4,24,39,23,9,43,29,5,20,41],"trial_type":"store_order","trial_index":17,"time_elapsed":279132,"internal_node_id":"0.0-17.0"},{"result":165,"points":2,"place":1,"phase":0,"sequence":-1,"prices":[184,180,224,165,181,199,185,193,218,126],"times":[1801,1039,692,2019],"next_num":4,"trial_type":"ticket-choose","trial_index":18,"time_elapsed":287808,"internal_node_id":"0.0-18.0"},{"rt":1035,"url":"\/tickets\/utils\/testing_after.html","trial_type":"html","trial_index":19,"time_elapsed":290094,"internal_node_id":"0.0-19.0"},{"result":151,"points":1,"place":2,"phase":0,"sequence":0,"prices":[156,181,131,256,176,200,171,151,111,206],"times":[2981,544,441,554,549,586,736,915],"next_num":8,"trial_type":"ticket-choose","trial_index":20,"time_elapsed":300982,"internal_node_id":"0.0-20.0"},{"result":65,"points":2,"place":1,"phase":0,"sequence":1,"prices":[220,236,176,65,185,101,110,61,156,191],"times":[977,1037,1400,889],"next_num":4,"trial_type":"ticket-choose","trial_index":21,"time_elapsed":308687,"internal_node_id":"0.0-21.0"},{"result":120,"points":3,"place":0,"phase":0,"sequence":2,"prices":[120,221,135,185,200,261,181,251,255,196],"times":[1161],"next_num":1,"trial_type":"ticket-choose","trial_index":22,"time_elapsed":311792,"internal_node_id":"0.0-22.0"},{"result":131,"points":2,"place":1,"phase":0,"sequence":3,"prices":[156,181,171,256,175,200,131,150,110,206],"times":[1726,400,861,681,687,566,781],"next_num":7,"trial_type":"ticket-choose","trial_index":23,"time_elapsed":320802,"internal_node_id":"0.0-23.0"},{"result":111,"points":3,"place":0,"phase":0,"sequence":4,"prices":[111,231,131,146,171,295,141,241,271,150],"times":[1059],"next_num":1,"trial_type":"ticket-choose","trial_index":24,"time_elapsed":323605,"internal_node_id":"0.0-24.0"},{"result":140,"points":1,"place":2,"phase":0,"sequence":5,"prices":[156,175,126,246,170,190,165,140,100,196],"times":[1046,526,452,398,516,493,530,1139],"next_num":8,"trial_type":"ticket-choose","trial_index":25,"time_elapsed":332280,"internal_node_id":"0.0-25.0"},{"result":150,"points":1,"place":3,"phase":0,"sequence":6,"prices":[150,170,160,241,166,186,120,136,96,191],"times":[946],"next_num":1,"trial_type":"ticket-choose","trial_index":26,"time_elapsed":334915,"internal_node_id":"0.0-26.0"},{"result":146,"points":1,"place":2,"phase":0,"sequence":7,"prices":[161,180,171,250,176,195,131,146,105,201],"times":[1192,487,614,535,434,418,312,769],"next_num":8,"trial_type":"ticket-choose","trial_index":27,"time_elapsed":342877,"internal_node_id":"0.0-27.0"},{"result":95,"points":3,"place":0,"phase":0,"sequence":8,"prices":[95,205,106,151,186,271,145,210,215,181],"times":[1100],"next_num":1,"trial_type":"ticket-choose","trial_index":28,"time_elapsed":345957,"internal_node_id":"0.0-28.0"},{"result":175,"points":1,"place":4,"phase":0,"sequence":9,"prices":[130,195,141,155,181,226,150,216,221,175],"times":[1806,610,565,434,547,546,559,611,599,511],"next_num":11,"trial_type":"ticket-choose","trial_index":29,"time_elapsed":356665,"internal_node_id":"0.0-29.0"},{"result":120,"points":2,"place":1,"phase":0,"sequence":10,"prices":[150,171,120,241,165,185,160,135,96,190],"times":[1622,582,768],"next_num":3,"trial_type":"ticket-choose","trial_index":30,"time_elapsed":361788,"internal_node_id":"0.0-30.0"},{"result":120,"points":2,"place":1,"phase":0,"sequence":11,"prices":[146,171,120,245,165,191,160,140,100,196],"times":[1297,580,796],"next_num":3,"trial_type":"ticket-choose","trial_index":31,"time_elapsed":366725,"internal_node_id":"0.0-31.0"},{"result":30,"points":3,"place":0,"phase":0,"sequence":12,"prices":[155,30,101,55,136,276,70,181,200,261],"times":[1001,820],"next_num":2,"trial_type":"ticket-choose","trial_index":32,"time_elapsed":370646,"internal_node_id":"0.0-32.0"},{"result":125,"points":2,"place":1,"phase":0,"sequence":13,"prices":[155,175,166,245,171,190,125,140,101,196],"times":[1102,712,663,723,628,589,839],"next_num":7,"trial_type":"ticket-choose","trial_index":33,"time_elapsed":379073,"internal_node_id":"0.0-33.0"},{"result":81,"points":3,"place":0,"phase":0,"sequence":14,"prices":[155,245,155,81,180,130,156,306,166,115],"times":[992,551,725,932],"next_num":4,"trial_type":"ticket-choose","trial_index":34,"time_elapsed":384725,"internal_node_id":"0.0-34.0"},{"result":126,"points":2,"place":1,"phase":0,"sequence":15,"prices":[150,175,166,251,170,196,126,145,105,201],"times":[2260,497,466,508,523,549,847],"next_num":7,"trial_type":"ticket-choose","trial_index":35,"time_elapsed":393464,"internal_node_id":"0.0-35.0"},{"result":131,"points":2,"place":1,"phase":0,"sequence":16,"prices":[161,180,131,251,175,196,171,146,105,201],"times":[4141,984,887],"next_num":3,"trial_type":"ticket-choose","trial_index":36,"time_elapsed":401533,"internal_node_id":"0.0-36.0"},{"result":166,"points":0,"place":5,"phase":0,"sequence":17,"prices":[255,166,266,175,136,145,155,61,96,301],"times":[754,856],"next_num":2,"trial_type":"ticket-choose","trial_index":37,"time_elapsed":405032,"internal_node_id":"0.0-37.0"},{"result":81,"points":3,"place":0,"phase":0,"sequence":18,"prices":[81,205,130,151,191,261,145,210,250,165],"times":[825],"next_num":1,"trial_type":"ticket-choose","trial_index":38,"time_elapsed":407752,"internal_node_id":"0.0-38.0"},{"result":131,"points":2,"place":1,"phase":0,"sequence":19,"prices":[160,180,170,251,176,195,131,146,105,200],"times":[1117,576,600,614,609,623,826],"next_num":7,"trial_type":"ticket-choose","trial_index":39,"time_elapsed":415815,"internal_node_id":"0.0-39.0"},{"result":120,"points":2,"place":1,"phase":0,"sequence":20,"prices":[145,170,160,245,165,190,120,141,100,195],"times":[1037,505,554,574,639,575,794],"next_num":7,"trial_type":"ticket-choose","trial_index":40,"time_elapsed":423444,"internal_node_id":"0.0-40.0"},{"result":140,"points":1,"place":2,"phase":0,"sequence":21,"prices":[145,171,161,245,165,191,120,140,100,196],"times":[920,560,527,551,561,510,835,660],"next_num":8,"trial_type":"ticket-choose","trial_index":41,"time_elapsed":432021,"internal_node_id":"0.0-41.0"},{"result":121,"points":2,"place":1,"phase":0,"sequence":22,"prices":[150,171,121,241,165,185,160,136,95,191],"times":[7657,582,1046],"next_num":3,"trial_type":"ticket-choose","trial_index":42,"time_elapsed":443704,"internal_node_id":"0.0-42.0"},{"result":130,"points":2,"place":1,"phase":0,"sequence":23,"prices":[156,181,130,255,175,200,170,150,111,205],"times":[5011,621,844],"next_num":3,"trial_type":"ticket-choose","trial_index":43,"time_elapsed":452480,"internal_node_id":"0.0-43.0"},{"result":145,"points":1,"place":2,"phase":0,"sequence":24,"prices":[135,180,141,151,175,220,145,196,211,155],"times":[2664,765,608,595,557,640,948],"next_num":7,"trial_type":"ticket-choose","trial_index":44,"time_elapsed":463114,"internal_node_id":"0.0-44.0"},{"result":121,"points":2,"place":1,"phase":0,"sequence":25,"prices":[150,170,160,240,166,185,121,136,95,191],"times":[4872,693,1547,619,698,533,904],"next_num":7,"trial_type":"ticket-choose","trial_index":45,"time_elapsed":476237,"internal_node_id":"0.0-45.0"},{"result":106,"points":2,"place":1,"phase":0,"sequence":26,"prices":[185,180,235,210,106,266,76,115,250,205],"times":[882,620,549,551,798],"next_num":5,"trial_type":"ticket-choose","trial_index":46,"time_elapsed":482182,"internal_node_id":"0.0-46.0"},{"result":120,"points":2,"place":1,"phase":0,"sequence":27,"prices":[186,156,191,120,195,145,45,130,246,176],"times":[715,618,630,1058],"next_num":4,"trial_type":"ticket-choose","trial_index":47,"time_elapsed":487639,"internal_node_id":"0.0-47.0"},{"result":126,"points":2,"place":1,"phase":0,"sequence":28,"prices":[151,175,166,251,170,195,126,146,105,201],"times":[1295,699,630,652,582,599,907],"next_num":7,"trial_type":"ticket-choose","trial_index":48,"time_elapsed":496015,"internal_node_id":"0.0-48.0"},{"result":106,"points":3,"place":0,"phase":0,"sequence":29,"prices":[155,225,245,130,176,106,180,211,165,200],"times":[660,478,511,1452,710,797],"next_num":6,"trial_type":"ticket-choose","trial_index":49,"time_elapsed":503485,"internal_node_id":"0.0-49.0"},{"result":130,"points":2,"place":1,"phase":0,"sequence":30,"prices":[155,181,170,255,176,200,130,150,110,205],"times":[1065,427,594,571,599,656,919],"next_num":7,"trial_type":"ticket-choose","trial_index":50,"time_elapsed":511275,"internal_node_id":"0.0-50.0"},{"result":125,"points":2,"place":1,"phase":0,"sequence":31,"prices":[180,106,166,245,211,261,215,125,135,190],"times":[464,620,642,579,609,738,578,871],"next_num":8,"trial_type":"ticket-choose","trial_index":51,"time_elapsed":519641,"internal_node_id":"0.0-51.0"},{"result":145,"points":1,"place":2,"phase":0,"sequence":32,"prices":[150,176,126,251,171,195,165,145,105,200],"times":[1187,595,1595,653,563,647,585,2584],"next_num":8,"trial_type":"ticket-choose","trial_index":52,"time_elapsed":531411,"internal_node_id":"0.0-52.0"},{"result":105,"points":3,"place":0,"phase":0,"sequence":33,"prices":[105,216,146,165,210,260,161,235,241,185],"times":[938],"next_num":1,"trial_type":"ticket-choose","trial_index":53,"time_elapsed":534105,"internal_node_id":"0.0-53.0"},{"result":66,"points":3,"place":0,"phase":0,"sequence":34,"prices":[66,201,96,150,185,230,121,216,225,165],"times":[840],"next_num":1,"trial_type":"ticket-choose","trial_index":54,"time_elapsed":536818,"internal_node_id":"0.0-54.0"},{"result":140,"points":1,"place":2,"phase":0,"sequence":35,"prices":[156,175,125,245,170,190,165,140,101,196],"times":[904,611,494,579,553,606,606,910],"next_num":8,"trial_type":"ticket-choose","trial_index":55,"time_elapsed":545338,"internal_node_id":"0.0-55.0"},{"result":86,"points":3,"place":0,"phase":0,"sequence":36,"prices":[86,180,130,151,170,271,145,191,220,160],"times":[765],"next_num":1,"trial_type":"ticket-choose","trial_index":56,"time_elapsed":547813,"internal_node_id":"0.0-56.0"},{"result":150,"points":2,"place":1,"phase":0,"sequence":37,"prices":[181,156,145,165,236,231,201,260,150,185],"times":[693,475,868,722,569,562,600,558,1014],"next_num":9,"trial_type":"ticket-choose","trial_index":57,"time_elapsed":557412,"internal_node_id":"0.0-57.0"},{"result":136,"points":3,"place":0,"phase":0,"sequence":38,"prices":[246,145,155,191,176,270,185,136,160,215],"times":[755,1419,588,601,527,543,645,876],"next_num":8,"trial_type":"ticket-choose","trial_index":58,"time_elapsed":566501,"internal_node_id":"0.0-58.0"},{"result":126,"points":2,"place":1,"phase":0,"sequence":39,"prices":[156,176,165,246,171,190,126,141,101,196],"times":[1415,621,616,640,672,580,827],"next_num":7,"trial_type":"ticket-choose","trial_index":59,"time_elapsed":576053,"internal_node_id":"0.0-59.0"},{"result":141,"points":1,"place":3,"phase":0,"sequence":40,"prices":[176,150,141,91,290,201,106,266,206,126],"times":[697,627,1874],"next_num":3,"trial_type":"ticket-choose","trial_index":60,"time_elapsed":581336,"internal_node_id":"0.0-60.0"},{"result":130,"points":2,"place":1,"phase":0,"sequence":41,"prices":[160,180,130,251,176,195,170,146,105,200],"times":[667,611,1256],"next_num":3,"trial_type":"ticket-choose","trial_index":61,"time_elapsed":585983,"internal_node_id":"0.0-61.0"},{"result":121,"points":2,"place":1,"phase":0,"sequence":42,"prices":[146,170,121,245,166,190,161,141,100,195],"times":[790,589,787],"next_num":3,"trial_type":"ticket-choose","trial_index":62,"time_elapsed":590278,"internal_node_id":"0.0-62.0"},{"result":130,"points":3,"place":0,"phase":0,"sequence":43,"prices":[185,175,276,221,130,141,171,216,235,165],"times":[750,593,615,683,899],"next_num":5,"trial_type":"ticket-choose","trial_index":63,"time_elapsed":596484,"internal_node_id":"0.0-63.0"},{"result":125,"points":1,"place":2,"phase":0,"sequence":44,"prices":[226,205,125,120,115,135,180,145,150,220],"times":[833,585,995],"next_num":3,"trial_type":"ticket-choose","trial_index":64,"time_elapsed":601899,"internal_node_id":"0.0-64.0"},{"result":111,"points":3,"place":0,"phase":0,"sequence":45,"prices":[175,211,266,286,111,216,220,245,230,165],"times":[602,560,596,596,872],"next_num":5,"trial_type":"ticket-choose","trial_index":65,"time_elapsed":607711,"internal_node_id":"0.0-65.0"},{"result":75,"points":3,"place":0,"phase":0,"sequence":46,"prices":[75,171,131,151,161,250,145,190,206,156],"times":[5295],"next_num":1,"trial_type":"ticket-choose","trial_index":66,"time_elapsed":614995,"internal_node_id":"0.0-66.0"},{"result":116,"points":3,"place":0,"phase":0,"sequence":47,"prices":[176,150,276,171,261,116,130,201,166,231],"times":[3664,7509,1000,1199,634,990],"next_num":6,"trial_type":"ticket-choose","trial_index":67,"time_elapsed":632920,"internal_node_id":"0.0-67.0"},{"result":51,"points":3,"place":0,"phase":0,"sequence":48,"prices":[221,175,51,196,146,130,166,80,126,156],"times":[1550,787,852],"next_num":3,"trial_type":"ticket-choose","trial_index":68,"time_elapsed":638434,"internal_node_id":"0.0-68.0"},{"result":126,"points":2,"place":1,"phase":0,"sequence":49,"prices":[151,176,126,251,170,196,165,145,105,201],"times":[744,651,925],"next_num":3,"trial_type":"ticket-choose","trial_index":69,"time_elapsed":643027,"internal_node_id":"0.0-69.0"},{"responses":[{"value":0,"offby":-1,"category":"$30 - $75","category_index":0},{"value":0,"offby":-2,"category":"$76 - $120","category_index":1},{"value":10,"offby":6,"category":"$121 - $165","category_index":2},{"value":10,"offby":4,"category":"$166 - $210","category_index":3},{"value":0,"offby":-6,"category":"$211 - $255","category_index":4},{"value":0,"offby":-1,"category":"$256 - $300","category_index":5},{"value":0,"offby":0,"category":"$301 - $345","category_index":6}],"phase":0,"number":1,"trial_type":"bar-choose","trial_index":70,"time_elapsed":657636,"internal_node_id":"0.0-70.0"},{"rt":1065,"url":"\/tickets\/utils\/start2.html","trial_type":"html","trial_index":71,"time_elapsed":659817,"internal_node_id":"0.0-71.0"},{"trial_type":"number-animation","trial_index":72,"time_elapsed":668212,"internal_node_id":"0.0-72.0"},{"phase":1,"sequence":0,"avg":180,"response":187,"trial_type":"training_avg","trial_index":73,"time_elapsed":672718,"internal_node_id":"0.0-73.0"},{"trial_type":"number-animation","trial_index":74,"time_elapsed":768849,"internal_node_id":"0.0-74.0"},{"phase":1,"sequence":1,"avg":178,"response":187,"trial_type":"training_avg","trial_index":75,"time_elapsed":774741,"internal_node_id":"0.0-75.0"},{"trial_type":"number-animation","trial_index":76,"time_elapsed":782413,"internal_node_id":"0.0-76.0"},{"phase":1,"sequence":2,"avg":176,"response":184,"trial_type":"training_avg","trial_index":77,"time_elapsed":787343,"internal_node_id":"0.0-77.0"},{"trial_type":"number-animation","trial_index":78,"time_elapsed":796987,"internal_node_id":"0.0-78.0"},{"phase":1,"sequence":3,"avg":178,"response":177,"trial_type":"training_avg","trial_index":79,"time_elapsed":804578,"internal_node_id":"0.0-79.0"},{"trial_type":"number-animation","trial_index":80,"time_elapsed":812825,"internal_node_id":"0.0-80.0"},{"phase":1,"sequence":4,"avg":179,"response":181,"trial_type":"training_avg","trial_index":81,"time_elapsed":817063,"internal_node_id":"0.0-81.0"},{"responses":[{"value":3,"offby":3,"category":"$140 - $250","category_index":0},{"value":3,"offby":3,"category":"$151 - $160","category_index":1},{"value":4,"offby":0,"category":"$161 - $170","category_index":2},{"value":4,"offby":-2,"category":"$171 - $180","category_index":3},{"value":3,"offby":-4,"category":"$181 - $190","category_index":4},{"value":3,"offby":0,"category":"$191 - $200","category_index":5},{"value":0,"offby":0,"category":"$201 - $210","category_index":6}],"phase":1,"number":0,"trial_type":"bar-choose","trial_index":82,"time_elapsed":835958,"internal_node_id":"0.0-82.0"},{"rt":2919,"url":"\/tickets\/utils\/testing2.html","trial_type":"html","trial_index":83,"time_elapsed":840500,"internal_node_id":"0.0-83.0"},{"phase":1,"order":[10,43,27,15,29,0,21,12,25,33,17,18,44,4,42,6,8,39,30,13,23,22,16,11,32,20,34,37,7,49,14,41,3,26,31,1,24,47,48,5,45,9,19,38,36,46,28,40,35,2],"trial_type":"store_order","trial_index":84,"time_elapsed":841536,"internal_node_id":"0.0-84.0"},{"result":165,"points":3,"place":0,"phase":1,"sequence":0,"prices":[174,179,169,194,178,183,177,173,165,184],"times":[1882,567,621,688,566,564,624,583,829],"next_num":9,"trial_type":"ticket-choose","trial_index":85,"time_elapsed":851913,"internal_node_id":"0.0-85.0"},{"result":169,"points":1,"place":2,"phase":1,"sequence":1,"prices":[189,185,169,168,167,171,180,173,174,188],"times":[1015,506,979],"next_num":3,"trial_type":"ticket-choose","trial_index":86,"time_elapsed":856716,"internal_node_id":"0.0-86.0"},{"result":179,"points":1,"place":4,"phase":1,"sequence":2,"prices":[170,183,172,175,180,189,174,187,188,179],"times":[868,564,673,517,566,1211,1026,609,583,820],"next_num":10,"trial_type":"ticket-choose","trial_index":87,"time_elapsed":867966,"internal_node_id":"0.0-87.0"},{"result":170,"points":2,"place":1,"phase":1,"sequence":3,"prices":[176,180,178,194,179,183,170,173,165,184],"times":[1290,608,873,644,1023,676,851],"next_num":7,"trial_type":"ticket-choose","trial_index":88,"time_elapsed":877192,"internal_node_id":"0.0-88.0"},{"result":168,"points":2,"place":1,"phase":1,"sequence":4,"prices":[173,178,176,193,177,182,168,172,164,183],"times":[993,731,561,563,923,610,889],"next_num":7,"trial_type":"ticket-choose","trial_index":89,"time_elapsed":886531,"internal_node_id":"0.0-89.0"},{"result":170,"points":2,"place":1,"phase":1,"sequence":5,"prices":[175,189,193,170,179,165,180,186,177,184],"times":[1075,555,577,873],"next_num":4,"trial_type":"ticket-choose","trial_index":90,"time_elapsed":892113,"internal_node_id":"0.0-90.0"},{"result":169,"points":2,"place":1,"phase":1,"sequence":6,"prices":[174,179,177,194,178,183,169,173,165,184],"times":[15812,590,533,563,582,656,1919],"next_num":7,"trial_type":"ticket-choose","trial_index":91,"time_elapsed":915864,"internal_node_id":"0.0-91.0"},{"result":177,"points":1,"place":3,"phase":1,"sequence":7,"prices":[179,174,199,178,196,167,170,184,177,190],"times":[625,965,643,538,557,687,523,565,871],"next_num":9,"trial_type":"ticket-choose","trial_index":92,"time_elapsed":925192,"internal_node_id":"0.0-92.0"},{"result":170,"points":3,"place":0,"phase":1,"sequence":8,"prices":[181,179,199,188,170,172,178,187,191,177],"times":[850,984,605,1774,1137],"next_num":5,"trial_type":"ticket-choose","trial_index":93,"time_elapsed":933432,"internal_node_id":"0.0-93.0"},{"result":168,"points":3,"place":0,"phase":1,"sequence":9,"prices":[168,188,171,181,184,196,180,194,195,183],"times":[1688],"next_num":1,"trial_type":"ticket-choose","trial_index":94,"time_elapsed":937041,"internal_node_id":"0.0-94.0"},{"result":160,"points":3,"place":0,"phase":1,"sequence":10,"prices":[175,193,175,160,180,170,175,205,177,167],"times":[1290,585,1732,890],"next_num":4,"trial_type":"ticket-choose","trial_index":95,"time_elapsed":943924,"internal_node_id":"0.0-95.0"},{"result":170,"points":2,"place":1,"phase":1,"sequence":11,"prices":[175,180,170,195,179,184,178,174,166,185],"times":[1224,659,920],"next_num":3,"trial_type":"ticket-choose","trial_index":96,"time_elapsed":948850,"internal_node_id":"0.0-96.0"},{"result":170,"points":2,"place":1,"phase":1,"sequence":12,"prices":[176,180,170,194,179,183,178,173,165,184],"times":[706,610,873],"next_num":3,"trial_type":"ticket-choose","trial_index":97,"time_elapsed":953114,"internal_node_id":"0.0-97.0"},{"result":174,"points":2,"place":1,"phase":1,"sequence":13,"prices":[180,175,173,177,191,190,184,196,174,181],"times":[663,600,633,634,559,546,578,607,1251],"next_num":9,"trial_type":"ticket-choose","trial_index":98,"time_elapsed":962705,"internal_node_id":"0.0-98.0"},{"result":177,"points":1,"place":4,"phase":1,"sequence":14,"prices":[160,185,170,174,182,196,173,186,194,177],"times":[595,566,535,578,547,536,583,657,595,753],"next_num":10,"trial_type":"ticket-choose","trial_index":99,"time_elapsed":972180,"internal_node_id":"0.0-99.0"},{"result":159,"points":3,"place":0,"phase":1,"sequence":15,"prices":[159,178,170,174,176,194,173,182,185,175],"times":[962],"next_num":1,"trial_type":"ticket-choose","trial_index":100,"time_elapsed":974900,"internal_node_id":"0.0-100.0"},{"result":168,"points":2,"place":1,"phase":1,"sequence":16,"prices":[174,178,168,192,177,181,176,171,163,182],"times":[1296,590,874],"next_num":3,"trial_type":"ticket-choose","trial_index":101,"time_elapsed":979970,"internal_node_id":"0.0-101.0"},{"result":168,"points":2,"place":1,"phase":1,"sequence":17,"prices":[181,175,182,168,183,173,153,170,193,179],"times":[1036,671,629,893],"next_num":4,"trial_type":"ticket-choose","trial_index":102,"time_elapsed":985763,"internal_node_id":"0.0-102.0"},{"result":165,"points":2,"place":1,"phase":1,"sequence":18,"prices":[179,174,172,162,202,184,165,197,185,169],"times":[655,614,562,561,594,557,802],"next_num":7,"trial_type":"ticket-choose","trial_index":103,"time_elapsed":993079,"internal_node_id":"0.0-103.0"},{"result":169,"points":2,"place":1,"phase":1,"sequence":19,"prices":[175,179,169,193,178,182,177,172,164,183],"times":[528,471,910],"next_num":3,"trial_type":"ticket-choose","trial_index":104,"time_elapsed":997135,"internal_node_id":"0.0-104.0"},{"result":166,"points":3,"place":0,"phase":1,"sequence":20,"prices":[175,180,178,195,179,184,170,174,166,185],"times":[502,571,600,703,1096,682,652,798,1072],"next_num":9,"trial_type":"ticket-choose","trial_index":105,"time_elapsed":1007503,"internal_node_id":"0.0-105.0"},{"result":170,"points":2,"place":1,"phase":1,"sequence":21,"prices":[175,180,178,195,179,184,170,174,166,185],"times":[7048,1598,623,718,747,622,1207],"next_num":7,"trial_type":"ticket-choose","trial_index":106,"time_elapsed":1023183,"internal_node_id":"0.0-106.0"},{"result":164,"points":3,"place":0,"phase":1,"sequence":22,"prices":[173,178,168,193,177,182,176,172,164,183],"times":[557,1003,541,601,573,612,636,601,908],"next_num":9,"trial_type":"ticket-choose","trial_index":107,"time_elapsed":1032744,"internal_node_id":"0.0-107.0"},{"result":155,"points":2,"place":1,"phase":1,"sequence":23,"prices":[175,150,164,155,171,199,158,180,184,196],"times":[725,426,469,803],"next_num":4,"trial_type":"ticket-choose","trial_index":108,"time_elapsed":1037563,"internal_node_id":"0.0-108.0"},{"result":171,"points":3,"place":0,"phase":1,"sequence":24,"prices":[193,173,175,182,179,198,181,171,176,187],"times":[709,598,933,812,564,558,686,1011],"next_num":8,"trial_type":"ticket-choose","trial_index":109,"time_elapsed":1046729,"internal_node_id":"0.0-109.0"},{"result":173,"points":1,"place":2,"phase":1,"sequence":25,"prices":[174,179,177,194,178,183,169,173,165,184],"times":[33760,657,577,543,458,567,558,971],"next_num":8,"trial_type":"ticket-choose","trial_index":110,"time_elapsed":1090716,"internal_node_id":"0.0-110.0"},{"result":166,"points":3,"place":0,"phase":1,"sequence":26,"prices":[179,186,197,201,166,187,188,193,190,177],"times":[4683,502,603,556,880],"next_num":5,"trial_type":"ticket-choose","trial_index":111,"time_elapsed":1100512,"internal_node_id":"0.0-111.0"},{"result":180,"points":1,"place":4,"phase":1,"sequence":27,"prices":[163,185,165,174,181,198,173,186,187,180],"times":[65201,568,857,440,535,567,483,613,599,739],"next_num":10,"trial_type":"ticket-choose","trial_index":112,"time_elapsed":1174874,"internal_node_id":"0.0-112.0"},{"result":163,"points":3,"place":0,"phase":1,"sequence":28,"prices":[174,178,168,192,177,181,176,171,163,182],"times":[585,466,1417,497,513,642,580,567,829],"next_num":9,"trial_type":"ticket-choose","trial_index":113,"time_elapsed":1184598,"internal_node_id":"0.0-113.0"},{"result":165,"points":2,"place":1,"phase":1,"sequence":29,"prices":[181,180,191,186,165,197,159,167,194,185],"times":[850,1384,763,653,1566],"next_num":5,"trial_type":"ticket-choose","trial_index":114,"time_elapsed":1192636,"internal_node_id":"0.0-114.0"},{"result":168,"points":2,"place":1,"phase":1,"sequence":30,"prices":[173,178,168,193,177,182,176,172,164,183],"times":[1180,673,1026],"next_num":3,"trial_type":"ticket-choose","trial_index":115,"time_elapsed":1197781,"internal_node_id":"0.0-115.0"},{"result":154,"points":3,"place":0,"phase":1,"sequence":31,"prices":[188,179,154,183,173,170,177,160,169,175],"times":[611,664,972],"next_num":3,"trial_type":"ticket-choose","trial_index":116,"time_elapsed":1202272,"internal_node_id":"0.0-116.0"},{"result":169,"points":2,"place":1,"phase":1,"sequence":32,"prices":[175,179,169,193,178,182,177,172,164,183],"times":[710,626,859],"next_num":3,"trial_type":"ticket-choose","trial_index":117,"time_elapsed":1206571,"internal_node_id":"0.0-117.0"},{"result":163,"points":2,"place":1,"phase":1,"sequence":33,"prices":[157,184,163,174,181,190,168,187,189,177],"times":[927,600,1071],"next_num":3,"trial_type":"ticket-choose","trial_index":118,"time_elapsed":1211346,"internal_node_id":"0.0-118.0"},{"result":181,"points":1,"place":4,"phase":1,"sequence":34,"prices":[165,187,173,177,186,196,176,191,192,181],"times":[777,592,553,593,635,656,1227,642,609,676],"next_num":10,"trial_type":"ticket-choose","trial_index":119,"time_elapsed":1221933,"internal_node_id":"0.0-119.0"},{"result":170,"points":2,"place":1,"phase":1,"sequence":35,"prices":[176,180,178,194,179,183,170,173,165,184],"times":[817,1605,1020,744,737,719,1417],"next_num":7,"trial_type":"ticket-choose","trial_index":120,"time_elapsed":1232086,"internal_node_id":"0.0-120.0"},{"result":175,"points":1,"place":4,"phase":1,"sequence":36,"prices":[171,180,172,174,179,188,173,183,186,175],"times":[529,629,660,711,621,535,650,678,667,1202],"next_num":10,"trial_type":"ticket-choose","trial_index":121,"time_elapsed":1242644,"internal_node_id":"0.0-121.0"},{"result":169,"points":2,"place":1,"phase":1,"sequence":37,"prices":[174,179,169,194,178,183,177,173,165,184],"times":[52254,638,1074],"next_num":3,"trial_type":"ticket-choose","trial_index":122,"time_elapsed":1298788,"internal_node_id":"0.0-122.0"},{"result":168,"points":2,"place":1,"phase":1,"sequence":38,"prices":[174,178,176,192,177,181,168,171,163,182],"times":[849,598,573,586,956,666,857],"next_num":7,"trial_type":"ticket-choose","trial_index":123,"time_elapsed":1306954,"internal_node_id":"0.0-123.0"},{"result":166,"points":3,"place":0,"phase":1,"sequence":39,"prices":[175,180,170,195,179,184,178,174,166,185],"times":[740,484,1534,617,590,629,563,590,826],"next_num":9,"trial_type":"ticket-choose","trial_index":124,"time_elapsed":1317001,"internal_node_id":"0.0-124.0"},{"result":169,"points":2,"place":1,"phase":1,"sequence":40,"prices":[175,179,177,193,178,182,169,172,164,183],"times":[735,658,641,587,569,671,951],"next_num":7,"trial_type":"ticket-choose","trial_index":125,"time_elapsed":1325316,"internal_node_id":"0.0-125.0"},{"result":176,"points":1,"place":4,"phase":1,"sequence":41,"prices":[161,180,170,174,178,198,173,182,188,176],"times":[948,418,579,579,591,561,619,637,547,735],"next_num":10,"trial_type":"ticket-choose","trial_index":126,"time_elapsed":1335188,"internal_node_id":"0.0-126.0"},{"result":171,"points":1,"place":2,"phase":1,"sequence":42,"prices":[195,177,197,179,171,173,175,156,163,204],"times":[962,586,590,680,979],"next_num":5,"trial_type":"ticket-choose","trial_index":127,"time_elapsed":1346446,"internal_node_id":"0.0-127.0"},{"result":164,"points":3,"place":0,"phase":1,"sequence":43,"prices":[173,178,176,193,177,182,168,172,164,183],"times":[694,542,593,801,671,572,535,614,668],"next_num":9,"trial_type":"ticket-choose","trial_index":128,"time_elapsed":1355499,"internal_node_id":"0.0-128.0"},{"result":165,"points":3,"place":0,"phase":1,"sequence":44,"prices":[176,180,170,194,179,183,178,173,165,184],"times":[571,328,603,469,610,548,555,633,1125],"next_num":9,"trial_type":"ticket-choose","trial_index":129,"time_elapsed":1365047,"internal_node_id":"0.0-129.0"},{"result":157,"points":2,"place":1,"phase":1,"sequence":45,"prices":[188,191,179,157,181,164,166,156,175,182],"times":[821,311,937,912],"next_num":4,"trial_type":"ticket-choose","trial_index":130,"time_elapsed":1370304,"internal_node_id":"0.0-130.0"},{"result":174,"points":1,"place":4,"phase":1,"sequence":46,"prices":[166,190,170,173,178,203,172,192,198,174],"times":[502,453,453,668,562,710,595,666,682,700],"next_num":10,"trial_type":"ticket-choose","trial_index":131,"time_elapsed":1380229,"internal_node_id":"0.0-131.0"},{"result":169,"points":2,"place":1,"phase":1,"sequence":47,"prices":[175,179,177,193,178,182,169,172,164,183],"times":[659,558,573,561,622,663,846],"next_num":7,"trial_type":"ticket-choose","trial_index":132,"time_elapsed":1387787,"internal_node_id":"0.0-132.0"},{"result":168,"points":2,"place":1,"phase":1,"sequence":48,"prices":[174,178,176,192,177,181,168,171,163,182],"times":[579,458,562,544,695,581,776],"next_num":7,"trial_type":"ticket-choose","trial_index":133,"time_elapsed":1395007,"internal_node_id":"0.0-133.0"},{"result":177,"points":1,"place":3,"phase":1,"sequence":49,"prices":[180,165,177,193,186,196,187,169,171,182],"times":[515,455,1382],"next_num":3,"trial_type":"ticket-choose","trial_index":134,"time_elapsed":1400020,"internal_node_id":"0.0-134.0"},{"responses":[{"value":0,"offby":0,"category":"$140 - $250","category_index":0},{"value":0,"offby":0,"category":"$151 - $160","category_index":1},{"value":5,"offby":1,"category":"$161 - $170","category_index":2},{"value":5,"offby":-1,"category":"$171 - $180","category_index":3},{"value":5,"offby":-2,"category":"$181 - $190","category_index":4},{"value":5,"offby":2,"category":"$191 - $200","category_index":5},{"value":0,"offby":0,"category":"$201 - $210","category_index":6}],"phase":1,"number":1,"trial_type":"bar-choose","trial_index":135,"time_elapsed":1410583,"internal_node_id":"0.0-135.0"},{"special_comment":"no","trial_type":"special_sequence","trial_index":136,"time_elapsed":1419757,"internal_node_id":"0.0-136.0"},{"during":"Nothing","bonus":272,"trial_type":"final","trial_index":137,"time_elapsed":1446810,"internal_node_id":"0.0-137.0"}],"bonus":272}