{"start_time":"2017-02-15 09:10:54","end_time":"2017-02-15 09:33:20","points_phase0":102,"points_phase1":101,"phase_order":1,"age":31,"gender":"m","tries":1,"during":"Nothing","worker_id":"A18TCR555RWUZV","assignment_id":"30LB5CDZND3QA3GY6UQJ4OJEYBD0Z8","data":[{"rt":20949,"url":"\/tickets\/utils\/consent.html","trial_type":"html","trial_index":0,"time_elapsed":21050,"internal_node_id":"0.0-0.0"},{"age":31,"gender":"m","trial_type":"age","trial_index":1,"time_elapsed":27922,"internal_node_id":"0.0-1.0"},{"worker_id":"A18TCR555RWUZV","trial_type":"workerid","trial_index":2,"time_elapsed":46163,"internal_node_id":"0.0-2.0"},{"tries":1,"trial_type":"instructions_check","trial_index":3,"time_elapsed":59617,"internal_node_id":"0.0-3.0"},{"rt":2517,"url":"\/tickets\/utils\/start.html","trial_type":"html","trial_index":4,"time_elapsed":63262,"internal_node_id":"0.0-4.0"},{"trial_type":"number-animation","trial_index":5,"time_elapsed":80899,"internal_node_id":"0.0-5.0"},{"phase":0,"sequence":0,"avg":182,"response":150,"trial_type":"training_avg","trial_index":6,"time_elapsed":89874,"internal_node_id":"0.0-6.0"},{"trial_type":"number-animation","trial_index":7,"time_elapsed":97026,"internal_node_id":"0.0-7.0"},{"phase":0,"sequence":1,"avg":188,"response":185,"trial_type":"training_avg","trial_index":8,"time_elapsed":103560,"internal_node_id":"0.0-8.0"},{"trial_type":"number-animation","trial_index":9,"time_elapsed":110912,"internal_node_id":"0.0-9.0"},{"phase":0,"sequence":2,"avg":176,"response":170,"trial_type":"training_avg","trial_index":10,"time_elapsed":117691,"internal_node_id":"0.0-10.0"},{"trial_type":"number-animation","trial_index":11,"time_elapsed":123950,"internal_node_id":"0.0-11.0"},{"phase":0,"sequence":3,"avg":180,"response":165,"trial_type":"training_avg","trial_index":12,"time_elapsed":129993,"internal_node_id":"0.0-12.0"},{"trial_type":"number-animation","trial_index":13,"time_elapsed":137591,"internal_node_id":"0.0-13.0"},{"phase":0,"sequence":4,"avg":174,"response":170,"trial_type":"training_avg","trial_index":14,"time_elapsed":143363,"internal_node_id":"0.0-14.0"},{"responses":[{"value":1,"offby":0,"category":"$90 - $120","category_index":0},{"value":2,"offby":-1,"category":"$121 - $145","category_index":1},{"value":3,"offby":0,"category":"$146 - $170","category_index":2},{"value":9,"offby":3,"category":"$171 - $195","category_index":3},{"value":3,"offby":-1,"category":"$196 - $220","category_index":4},{"value":2,"offby":0,"category":"$221 - $245","category_index":5},{"value":0,"offby":-1,"category":"$246 - $270","category_index":6}],"phase":0,"number":0,"trial_type":"bar-choose","trial_index":15,"time_elapsed":230352,"internal_node_id":"0.0-15.0"},{"rt":13205,"url":"\/tickets\/\/utils\/testing.html","trial_type":"html","trial_index":16,"time_elapsed":244679,"internal_node_id":"0.0-16.0"},{"phase":0,"order":[16,41,23,14,8,5,25,21,0,12,27,4,28,10,33,46,45,13,1,17,31,22,19,38,9,11,39,42,43,48,35,49,15,29,32,36,30,2,47,26,6,18,44,40,37,34,24,3,20,7],"trial_type":"store_order","trial_index":17,"time_elapsed":245683,"internal_node_id":"0.0-17.0"},{"result":126,"points":3,"place":0,"phase":0,"sequence":-1,"times":[1821,479,528,606,619,553,595,921,533,1157],"next_num":10,"trial_type":"ticket-choose","trial_index":18,"time_elapsed":257555,"internal_node_id":"0.0-18.0"},{"rt":6816,"url":"\/tickets\/utils\/testing_after.html","trial_type":"html","trial_index":19,"time_elapsed":265811,"internal_node_id":"0.0-19.0"},{"result":154,"points":2,"place":1,"phase":0,"sequence":0,"times":[1689,439,483,528,631,604,972],"next_num":7,"trial_type":"ticket-choose","trial_index":20,"time_elapsed":274611,"internal_node_id":"0.0-20.0"},{"result":159,"points":2,"place":1,"phase":0,"sequence":1,"times":[1912,474,969],"next_num":3,"trial_type":"ticket-choose","trial_index":21,"time_elapsed":280703,"internal_node_id":"0.0-21.0"},{"result":136,"points":2,"place":1,"phase":0,"sequence":2,"times":[830,540,1192,578,607,722,854],"next_num":7,"trial_type":"ticket-choose","trial_index":22,"time_elapsed":289329,"internal_node_id":"0.0-22.0"},{"result":146,"points":2,"place":1,"phase":0,"sequence":3,"times":[1219,494,894,519,626,591,920],"next_num":7,"trial_type":"ticket-choose","trial_index":23,"time_elapsed":297734,"internal_node_id":"0.0-23.0"},{"result":170,"points":1,"place":3,"phase":0,"sequence":4,"times":[1343],"next_num":1,"trial_type":"ticket-choose","trial_index":24,"time_elapsed":300902,"internal_node_id":"0.0-24.0"},{"result":130,"points":2,"place":1,"phase":0,"sequence":5,"times":[684,1021],"next_num":2,"trial_type":"ticket-choose","trial_index":25,"time_elapsed":304623,"internal_node_id":"0.0-25.0"},{"result":146,"points":1,"place":2,"phase":0,"sequence":6,"times":[805,1012],"next_num":2,"trial_type":"ticket-choose","trial_index":26,"time_elapsed":308427,"internal_node_id":"0.0-26.0"},{"result":117,"points":3,"place":0,"phase":0,"sequence":7,"times":[876],"next_num":1,"trial_type":"ticket-choose","trial_index":27,"time_elapsed":311095,"internal_node_id":"0.0-27.0"},{"result":136,"points":2,"place":1,"phase":0,"sequence":8,"times":[931,511,525,535,786,586,847],"next_num":7,"trial_type":"ticket-choose","trial_index":28,"time_elapsed":319195,"internal_node_id":"0.0-28.0"},{"result":146,"points":2,"place":1,"phase":0,"sequence":9,"times":[704,550,764],"next_num":3,"trial_type":"ticket-choose","trial_index":29,"time_elapsed":323482,"internal_node_id":"0.0-29.0"},{"result":136,"points":2,"place":1,"phase":0,"sequence":10,"times":[711,545,809],"next_num":3,"trial_type":"ticket-choose","trial_index":30,"time_elapsed":327655,"internal_node_id":"0.0-30.0"},{"result":137,"points":3,"place":0,"phase":0,"sequence":11,"times":[793],"next_num":1,"trial_type":"ticket-choose","trial_index":31,"time_elapsed":330198,"internal_node_id":"0.0-31.0"},{"result":131,"points":2,"place":1,"phase":0,"sequence":12,"times":[632,1650,728],"next_num":3,"trial_type":"ticket-choose","trial_index":32,"time_elapsed":335375,"internal_node_id":"0.0-32.0"},{"result":165,"points":1,"place":2,"phase":0,"sequence":13,"times":[922,779,644,499,587,546,997],"next_num":7,"trial_type":"ticket-choose","trial_index":33,"time_elapsed":343346,"internal_node_id":"0.0-33.0"},{"result":154,"points":2,"place":1,"phase":0,"sequence":14,"times":[762,612,843],"next_num":3,"trial_type":"ticket-choose","trial_index":34,"time_elapsed":347799,"internal_node_id":"0.0-34.0"},{"result":143,"points":3,"place":0,"phase":0,"sequence":15,"times":[990],"next_num":1,"trial_type":"ticket-choose","trial_index":35,"time_elapsed":350492,"internal_node_id":"0.0-35.0"},{"result":158,"points":1,"place":3,"phase":0,"sequence":16,"times":[647,507,901],"next_num":3,"trial_type":"ticket-choose","trial_index":36,"time_elapsed":354674,"internal_node_id":"0.0-36.0"},{"result":171,"points":1,"place":3,"phase":0,"sequence":17,"times":[1081],"next_num":1,"trial_type":"ticket-choose","trial_index":37,"time_elapsed":357562,"internal_node_id":"0.0-37.0"},{"result":169,"points":1,"place":3,"phase":0,"sequence":18,"times":[838],"next_num":1,"trial_type":"ticket-choose","trial_index":38,"time_elapsed":360134,"internal_node_id":"0.0-38.0"},{"result":136,"points":2,"place":1,"phase":0,"sequence":19,"times":[670,530,559,575,707,574,880],"next_num":7,"trial_type":"ticket-choose","trial_index":39,"time_elapsed":367997,"internal_node_id":"0.0-39.0"},{"result":136,"points":3,"place":0,"phase":0,"sequence":20,"times":[787,624,559,548,650,844],"next_num":6,"trial_type":"ticket-choose","trial_index":40,"time_elapsed":374839,"internal_node_id":"0.0-40.0"},{"result":157,"points":3,"place":0,"phase":0,"sequence":21,"times":[993],"next_num":1,"trial_type":"ticket-choose","trial_index":41,"time_elapsed":377499,"internal_node_id":"0.0-41.0"},{"result":124,"points":3,"place":0,"phase":0,"sequence":22,"times":[644,513,548,893],"next_num":4,"trial_type":"ticket-choose","trial_index":42,"time_elapsed":382680,"internal_node_id":"0.0-42.0"},{"result":169,"points":1,"place":3,"phase":0,"sequence":23,"times":[2030],"next_num":1,"trial_type":"ticket-choose","trial_index":43,"time_elapsed":386514,"internal_node_id":"0.0-43.0"},{"result":124,"points":3,"place":0,"phase":0,"sequence":24,"times":[754],"next_num":1,"trial_type":"ticket-choose","trial_index":44,"time_elapsed":388968,"internal_node_id":"0.0-44.0"},{"result":138,"points":1,"place":2,"phase":0,"sequence":25,"times":[828,836],"next_num":2,"trial_type":"ticket-choose","trial_index":45,"time_elapsed":392723,"internal_node_id":"0.0-45.0"},{"result":121,"points":3,"place":0,"phase":0,"sequence":26,"times":[795],"next_num":1,"trial_type":"ticket-choose","trial_index":46,"time_elapsed":395178,"internal_node_id":"0.0-46.0"},{"result":142,"points":3,"place":0,"phase":0,"sequence":27,"times":[1371],"next_num":1,"trial_type":"ticket-choose","trial_index":47,"time_elapsed":399250,"internal_node_id":"0.0-47.0"},{"result":153,"points":2,"place":1,"phase":0,"sequence":28,"times":[1097,1045],"next_num":2,"trial_type":"ticket-choose","trial_index":48,"time_elapsed":403369,"internal_node_id":"0.0-48.0"},{"result":119,"points":3,"place":0,"phase":0,"sequence":29,"times":[870,995],"next_num":2,"trial_type":"ticket-choose","trial_index":49,"time_elapsed":407214,"internal_node_id":"0.0-49.0"},{"result":146,"points":2,"place":1,"phase":0,"sequence":30,"times":[740,553,605,543,671,610,847],"next_num":7,"trial_type":"ticket-choose","trial_index":50,"time_elapsed":414736,"internal_node_id":"0.0-50.0"},{"result":154,"points":2,"place":1,"phase":0,"sequence":31,"times":[811,575,886,561,1052],"next_num":5,"trial_type":"ticket-choose","trial_index":51,"time_elapsed":421203,"internal_node_id":"0.0-51.0"},{"result":168,"points":1,"place":3,"phase":0,"sequence":32,"times":[1826],"next_num":1,"trial_type":"ticket-choose","trial_index":52,"time_elapsed":424803,"internal_node_id":"0.0-52.0"},{"result":132,"points":3,"place":0,"phase":0,"sequence":33,"times":[802],"next_num":1,"trial_type":"ticket-choose","trial_index":53,"time_elapsed":427343,"internal_node_id":"0.0-53.0"},{"result":149,"points":2,"place":1,"phase":0,"sequence":34,"times":[9205,665,926],"next_num":3,"trial_type":"ticket-choose","trial_index":54,"time_elapsed":440640,"internal_node_id":"0.0-54.0"},{"result":136,"points":2,"place":1,"phase":0,"sequence":35,"times":[1175,766,10101],"next_num":3,"trial_type":"ticket-choose","trial_index":55,"time_elapsed":455831,"internal_node_id":"0.0-55.0"},{"result":146,"points":2,"place":1,"phase":0,"sequence":36,"times":[1048,541,538,570,573,555,895],"next_num":7,"trial_type":"ticket-choose","trial_index":56,"time_elapsed":463669,"internal_node_id":"0.0-56.0"},{"result":165,"points":2,"place":1,"phase":0,"sequence":37,"times":[724,913],"next_num":2,"trial_type":"ticket-choose","trial_index":57,"time_elapsed":467267,"internal_node_id":"0.0-57.0"},{"result":135,"points":3,"place":0,"phase":0,"sequence":38,"times":[1047],"next_num":1,"trial_type":"ticket-choose","trial_index":58,"time_elapsed":470016,"internal_node_id":"0.0-58.0"},{"result":146,"points":2,"place":1,"phase":0,"sequence":39,"times":[700,556,653,561,682,574,853],"next_num":7,"trial_type":"ticket-choose","trial_index":59,"time_elapsed":477865,"internal_node_id":"0.0-59.0"},{"result":154,"points":2,"place":1,"phase":0,"sequence":40,"times":[1030,551,575,540,847,632,993],"next_num":7,"trial_type":"ticket-choose","trial_index":60,"time_elapsed":486088,"internal_node_id":"0.0-60.0"},{"result":136,"points":2,"place":1,"phase":0,"sequence":41,"times":[2548,544,931],"next_num":3,"trial_type":"ticket-choose","trial_index":61,"time_elapsed":492364,"internal_node_id":"0.0-61.0"},{"result":154,"points":2,"place":1,"phase":0,"sequence":42,"times":[729,576,833],"next_num":3,"trial_type":"ticket-choose","trial_index":62,"time_elapsed":496975,"internal_node_id":"0.0-62.0"},{"result":136,"points":2,"place":1,"phase":0,"sequence":43,"times":[875,561,850,539,731,573,800],"next_num":7,"trial_type":"ticket-choose","trial_index":63,"time_elapsed":505006,"internal_node_id":"0.0-63.0"},{"result":154,"points":2,"place":1,"phase":0,"sequence":44,"times":[756,574,929],"next_num":3,"trial_type":"ticket-choose","trial_index":64,"time_elapsed":509506,"internal_node_id":"0.0-64.0"},{"result":156,"points":1,"place":2,"phase":0,"sequence":45,"times":[958],"next_num":1,"trial_type":"ticket-choose","trial_index":65,"time_elapsed":512319,"internal_node_id":"0.0-65.0"},{"result":146,"points":2,"place":1,"phase":0,"sequence":46,"times":[1829,599,806],"next_num":3,"trial_type":"ticket-choose","trial_index":66,"time_elapsed":517986,"internal_node_id":"0.0-66.0"},{"result":154,"points":2,"place":1,"phase":0,"sequence":47,"times":[1106,541,620,862,572,644,918],"next_num":7,"trial_type":"ticket-choose","trial_index":67,"time_elapsed":526372,"internal_node_id":"0.0-67.0"},{"result":155,"points":1,"place":2,"phase":0,"sequence":48,"times":[55843],"next_num":1,"trial_type":"ticket-choose","trial_index":68,"time_elapsed":585002,"internal_node_id":"0.0-68.0"},{"result":135,"points":3,"place":0,"phase":0,"sequence":49,"times":[1235,657,947],"next_num":3,"trial_type":"ticket-choose","trial_index":69,"time_elapsed":592111,"internal_node_id":"0.0-69.0"},{"responses":[{"value":1,"offby":0,"category":"$90 - $120","category_index":0},{"value":2,"offby":-1,"category":"$121 - $145","category_index":1},{"value":4,"offby":1,"category":"$146 - $170","category_index":2},{"value":5,"offby":-1,"category":"$171 - $195","category_index":3},{"value":5,"offby":1,"category":"$196 - $220","category_index":4},{"value":3,"offby":1,"category":"$221 - $245","category_index":5},{"value":0,"offby":-1,"category":"$246 - $270","category_index":6}],"phase":0,"number":1,"trial_type":"bar-choose","trial_index":70,"time_elapsed":622328,"internal_node_id":"0.0-70.0"},{"rt":38616,"url":"\/tickets\/utils\/start2.html","trial_type":"html","trial_index":71,"time_elapsed":662074,"internal_node_id":"0.0-71.0"},{"trial_type":"number-animation","trial_index":72,"time_elapsed":669606,"internal_node_id":"0.0-72.0"},{"phase":1,"sequence":0,"avg":181,"response":180,"trial_type":"training_avg","trial_index":73,"time_elapsed":674777,"internal_node_id":"0.0-73.0"},{"trial_type":"number-animation","trial_index":74,"time_elapsed":682066,"internal_node_id":"0.0-74.0"},{"phase":1,"sequence":1,"avg":188,"response":190,"trial_type":"training_avg","trial_index":75,"time_elapsed":687519,"internal_node_id":"0.0-75.0"},{"trial_type":"number-animation","trial_index":76,"time_elapsed":694670,"internal_node_id":"0.0-76.0"},{"phase":1,"sequence":2,"avg":188,"response":180,"trial_type":"training_avg","trial_index":77,"time_elapsed":701204,"internal_node_id":"0.0-77.0"},{"trial_type":"number-animation","trial_index":78,"time_elapsed":708470,"internal_node_id":"0.0-78.0"},{"phase":1,"sequence":3,"avg":177,"response":175,"trial_type":"training_avg","trial_index":79,"time_elapsed":713718,"internal_node_id":"0.0-79.0"},{"trial_type":"number-animation","trial_index":80,"time_elapsed":720141,"internal_node_id":"0.0-80.0"},{"phase":1,"sequence":4,"avg":182,"response":180,"trial_type":"training_avg","trial_index":81,"time_elapsed":725218,"internal_node_id":"0.0-81.0"},{"responses":[{"value":0,"offby":0,"category":"$106 - $134","category_index":0},{"value":2,"offby":1,"category":"$135 - $150","category_index":1},{"value":3,"offby":0,"category":"$151 - $165","category_index":2},{"value":6,"offby":0,"category":"$166 - $180","category_index":3},{"value":7,"offby":1,"category":"$181 - $195","category_index":4},{"value":1,"offby":-2,"category":"$196 - $210","category_index":5},{"value":1,"offby":0,"category":"$211 - $225","category_index":6}],"phase":1,"number":0,"trial_type":"bar-choose","trial_index":82,"time_elapsed":748286,"internal_node_id":"0.0-82.0"},{"rt":143897,"url":"\/tickets\/utils\/testing2.html","trial_type":"html","trial_index":83,"time_elapsed":893318,"internal_node_id":"0.0-83.0"},{"phase":1,"order":[12,48,21,5,15,34,49,31,23,0,18,33,41,27,10,32,37,16,1,20,46,28,47,9,26,44,29,24,39,40,7,45,2,25,36,19,6,42,30,4,14,17,8,22,11,38,3,13,35,43],"trial_type":"store_order","trial_index":84,"time_elapsed":894322,"internal_node_id":"0.0-84.0"},{"result":175,"points":1,"place":3,"phase":1,"sequence":0,"times":[1604],"next_num":1,"trial_type":"ticket-choose","trial_index":85,"time_elapsed":897833,"internal_node_id":"0.0-85.0"},{"result":155,"points":2,"place":1,"phase":1,"sequence":1,"times":[1053,544,1120],"next_num":3,"trial_type":"ticket-choose","trial_index":86,"time_elapsed":902920,"internal_node_id":"0.0-86.0"},{"result":176,"points":1,"place":3,"phase":1,"sequence":2,"times":[1698],"next_num":1,"trial_type":"ticket-choose","trial_index":87,"time_elapsed":906359,"internal_node_id":"0.0-87.0"},{"result":175,"points":1,"place":3,"phase":1,"sequence":3,"times":[712],"next_num":1,"trial_type":"ticket-choose","trial_index":88,"time_elapsed":908828,"internal_node_id":"0.0-88.0"},{"result":174,"points":1,"place":3,"phase":1,"sequence":4,"times":[831],"next_num":1,"trial_type":"ticket-choose","trial_index":89,"time_elapsed":911350,"internal_node_id":"0.0-89.0"},{"result":175,"points":1,"place":3,"phase":1,"sequence":5,"times":[1237],"next_num":1,"trial_type":"ticket-choose","trial_index":90,"time_elapsed":914275,"internal_node_id":"0.0-90.0"},{"result":156,"points":3,"place":0,"phase":1,"sequence":6,"times":[1285],"next_num":1,"trial_type":"ticket-choose","trial_index":91,"time_elapsed":917329,"internal_node_id":"0.0-91.0"},{"result":158,"points":2,"place":1,"phase":1,"sequence":7,"times":[868,500,484,582,556,514,880],"next_num":7,"trial_type":"ticket-choose","trial_index":92,"time_elapsed":924937,"internal_node_id":"0.0-92.0"},{"result":166,"points":1,"place":2,"phase":1,"sequence":8,"times":[5421,511,567,490,489,629,913,910],"next_num":8,"trial_type":"ticket-choose","trial_index":93,"time_elapsed":938124,"internal_node_id":"0.0-93.0"},{"result":174,"points":1,"place":3,"phase":1,"sequence":9,"times":[20439],"next_num":1,"trial_type":"ticket-choose","trial_index":94,"time_elapsed":960440,"internal_node_id":"0.0-94.0"},{"result":168,"points":3,"place":0,"phase":1,"sequence":10,"times":[863],"next_num":1,"trial_type":"ticket-choose","trial_index":95,"time_elapsed":963248,"internal_node_id":"0.0-95.0"},{"result":163,"points":2,"place":1,"phase":1,"sequence":11,"times":[8473,685,1932,534,642,625,806],"next_num":7,"trial_type":"ticket-choose","trial_index":96,"time_elapsed":979854,"internal_node_id":"0.0-96.0"},{"result":169,"points":3,"place":0,"phase":1,"sequence":12,"times":[5082],"next_num":1,"trial_type":"ticket-choose","trial_index":97,"time_elapsed":987656,"internal_node_id":"0.0-97.0"},{"result":167,"points":2,"place":1,"phase":1,"sequence":13,"times":[8490,565,773],"next_num":3,"trial_type":"ticket-choose","trial_index":98,"time_elapsed":999690,"internal_node_id":"0.0-98.0"},{"result":159,"points":3,"place":0,"phase":1,"sequence":14,"times":[831],"next_num":1,"trial_type":"ticket-choose","trial_index":99,"time_elapsed":1002215,"internal_node_id":"0.0-99.0"},{"result":158,"points":3,"place":0,"phase":1,"sequence":15,"times":[771,503,551,671,538,878],"next_num":6,"trial_type":"ticket-choose","trial_index":100,"time_elapsed":1008835,"internal_node_id":"0.0-100.0"},{"result":167,"points":2,"place":1,"phase":1,"sequence":16,"times":[664,564,973,644,850],"next_num":5,"trial_type":"ticket-choose","trial_index":101,"time_elapsed":1015773,"internal_node_id":"0.0-101.0"},{"result":167,"points":2,"place":1,"phase":1,"sequence":17,"times":[5712,1496,605,552,589,530,931],"next_num":7,"trial_type":"ticket-choose","trial_index":102,"time_elapsed":1029382,"internal_node_id":"0.0-102.0"},{"result":163,"points":2,"place":1,"phase":1,"sequence":18,"times":[12992,533,863],"next_num":3,"trial_type":"ticket-choose","trial_index":103,"time_elapsed":1046253,"internal_node_id":"0.0-103.0"},{"result":158,"points":2,"place":1,"phase":1,"sequence":19,"times":[1046,506,886],"next_num":3,"trial_type":"ticket-choose","trial_index":104,"time_elapsed":1050725,"internal_node_id":"0.0-104.0"},{"result":148,"points":3,"place":0,"phase":1,"sequence":20,"times":[815],"next_num":1,"trial_type":"ticket-choose","trial_index":105,"time_elapsed":1053172,"internal_node_id":"0.0-105.0"},{"result":158,"points":2,"place":1,"phase":1,"sequence":21,"times":[752,547,774,555,709,581,839],"next_num":7,"trial_type":"ticket-choose","trial_index":106,"time_elapsed":1069244,"internal_node_id":"0.0-106.0"},{"result":158,"points":2,"place":1,"phase":1,"sequence":22,"times":[1247,538,844],"next_num":3,"trial_type":"ticket-choose","trial_index":107,"time_elapsed":1074240,"internal_node_id":"0.0-107.0"},{"result":168,"points":1,"place":2,"phase":1,"sequence":23,"times":[995],"next_num":1,"trial_type":"ticket-choose","trial_index":108,"time_elapsed":1076910,"internal_node_id":"0.0-108.0"},{"result":167,"points":2,"place":1,"phase":1,"sequence":24,"times":[968,515,844],"next_num":3,"trial_type":"ticket-choose","trial_index":109,"time_elapsed":1081592,"internal_node_id":"0.0-109.0"},{"result":167,"points":2,"place":1,"phase":1,"sequence":25,"times":[5822,530,1167],"next_num":3,"trial_type":"ticket-choose","trial_index":110,"time_elapsed":1091182,"internal_node_id":"0.0-110.0"},{"result":167,"points":2,"place":1,"phase":1,"sequence":26,"times":[636,1943],"next_num":2,"trial_type":"ticket-choose","trial_index":111,"time_elapsed":1095653,"internal_node_id":"0.0-111.0"},{"result":143,"points":3,"place":0,"phase":1,"sequence":27,"times":[1814,1135,505,544,853],"next_num":5,"trial_type":"ticket-choose","trial_index":112,"time_elapsed":1103258,"internal_node_id":"0.0-112.0"},{"result":157,"points":3,"place":0,"phase":1,"sequence":28,"times":[12708,782,935],"next_num":3,"trial_type":"ticket-choose","trial_index":113,"time_elapsed":1119896,"internal_node_id":"0.0-113.0"},{"result":169,"points":2,"place":1,"phase":1,"sequence":29,"times":[734,558,948],"next_num":3,"trial_type":"ticket-choose","trial_index":114,"time_elapsed":1124678,"internal_node_id":"0.0-114.0"},{"result":168,"points":1,"place":2,"phase":1,"sequence":30,"times":[766],"next_num":1,"trial_type":"ticket-choose","trial_index":115,"time_elapsed":1127135,"internal_node_id":"0.0-115.0"},{"result":163,"points":1,"place":2,"phase":1,"sequence":31,"times":[1420,850],"next_num":2,"trial_type":"ticket-choose","trial_index":116,"time_elapsed":1131328,"internal_node_id":"0.0-116.0"},{"result":167,"points":2,"place":1,"phase":1,"sequence":32,"times":[1279,528,528,534,531,528,895],"next_num":7,"trial_type":"ticket-choose","trial_index":117,"time_elapsed":1139042,"internal_node_id":"0.0-117.0"},{"result":161,"points":1,"place":3,"phase":1,"sequence":33,"times":[840,617,417,1412],"next_num":4,"trial_type":"ticket-choose","trial_index":118,"time_elapsed":1144818,"internal_node_id":"0.0-118.0"},{"result":161,"points":3,"place":0,"phase":1,"sequence":34,"times":[5377],"next_num":1,"trial_type":"ticket-choose","trial_index":119,"time_elapsed":1152507,"internal_node_id":"0.0-119.0"},{"result":165,"points":2,"place":1,"phase":1,"sequence":35,"times":[770,814,896],"next_num":3,"trial_type":"ticket-choose","trial_index":120,"time_elapsed":1157080,"internal_node_id":"0.0-120.0"},{"result":157,"points":3,"place":0,"phase":1,"sequence":36,"times":[832],"next_num":1,"trial_type":"ticket-choose","trial_index":121,"time_elapsed":1159536,"internal_node_id":"0.0-121.0"},{"result":163,"points":2,"place":1,"phase":1,"sequence":37,"times":[1468,509,803],"next_num":3,"trial_type":"ticket-choose","trial_index":122,"time_elapsed":1164348,"internal_node_id":"0.0-122.0"},{"result":152,"points":3,"place":0,"phase":1,"sequence":38,"times":[978,39478,610,893],"next_num":4,"trial_type":"ticket-choose","trial_index":123,"time_elapsed":1208712,"internal_node_id":"0.0-123.0"},{"result":152,"points":3,"place":0,"phase":1,"sequence":39,"times":[756],"next_num":1,"trial_type":"ticket-choose","trial_index":124,"time_elapsed":1211247,"internal_node_id":"0.0-124.0"},{"result":163,"points":2,"place":1,"phase":1,"sequence":40,"times":[832,597,727,529,557,544,1017],"next_num":7,"trial_type":"ticket-choose","trial_index":125,"time_elapsed":1219131,"internal_node_id":"0.0-125.0"},{"result":158,"points":2,"place":1,"phase":1,"sequence":41,"times":[1103,592,827],"next_num":3,"trial_type":"ticket-choose","trial_index":126,"time_elapsed":1224059,"internal_node_id":"0.0-126.0"},{"result":159,"points":1,"place":2,"phase":1,"sequence":42,"times":[696,808],"next_num":2,"trial_type":"ticket-choose","trial_index":127,"time_elapsed":1227735,"internal_node_id":"0.0-127.0"},{"result":150,"points":3,"place":0,"phase":1,"sequence":43,"times":[898,814],"next_num":2,"trial_type":"ticket-choose","trial_index":128,"time_elapsed":1231405,"internal_node_id":"0.0-128.0"},{"result":169,"points":1,"place":3,"phase":1,"sequence":44,"times":[739,525,1156],"next_num":3,"trial_type":"ticket-choose","trial_index":129,"time_elapsed":1235893,"internal_node_id":"0.0-129.0"},{"result":155,"points":2,"place":1,"phase":1,"sequence":45,"times":[608,810],"next_num":2,"trial_type":"ticket-choose","trial_index":130,"time_elapsed":1239173,"internal_node_id":"0.0-130.0"},{"result":161,"points":3,"place":0,"phase":1,"sequence":46,"times":[793],"next_num":1,"trial_type":"ticket-choose","trial_index":131,"time_elapsed":1241679,"internal_node_id":"0.0-131.0"},{"result":163,"points":2,"place":1,"phase":1,"sequence":47,"times":[694,528,862],"next_num":3,"trial_type":"ticket-choose","trial_index":132,"time_elapsed":1245942,"internal_node_id":"0.0-132.0"},{"result":158,"points":2,"place":1,"phase":1,"sequence":48,"times":[707,544,556,582,570,560,893],"next_num":7,"trial_type":"ticket-choose","trial_index":133,"time_elapsed":1253418,"internal_node_id":"0.0-133.0"},{"result":163,"points":2,"place":1,"phase":1,"sequence":49,"times":[3376,709,560,533,548,622,891],"next_num":7,"trial_type":"ticket-choose","trial_index":134,"time_elapsed":1264965,"internal_node_id":"0.0-134.0"},{"responses":[{"value":0,"offby":0,"category":"$106 - $134","category_index":0},{"value":1,"offby":0,"category":"$135 - $150","category_index":1},{"value":4,"offby":1,"category":"$151 - $165","category_index":2},{"value":6,"offby":0,"category":"$166 - $180","category_index":3},{"value":5,"offby":-1,"category":"$181 - $195","category_index":4},{"value":3,"offby":0,"category":"$196 - $210","category_index":5},{"value":1,"offby":0,"category":"$211 - $225","category_index":6}],"phase":1,"number":1,"trial_type":"bar-choose","trial_index":135,"time_elapsed":1307782,"internal_node_id":"0.0-135.0"},{"special_comment":"no","trial_type":"special_sequence","trial_index":136,"time_elapsed":1313402,"internal_node_id":"0.0-136.0"},{"during":"Nothing","bonus":272,"trial_type":"final","trial_index":137,"time_elapsed":1343988,"internal_node_id":"0.0-137.0"}],"bonus":272}