{"start_time":"2017-03-01 08:24:17","end_time":"2017-03-01 08:53:50","points_phase0":97,"points_phase1":110,"phase_order":0,"age":28,"gender":"m","tries":1,"during":"Nothing","worker_id":"A18T67NDI2JK5Y","assignment_id":"3RANCT1ZVGAA8RPYYNO07D0IPIUUB6","data":[{"rt":266875,"url":"\/tickets\/utils\/consent.html","trial_type":"html","trial_index":0,"time_elapsed":267066,"internal_node_id":"0.0-0.0"},{"age":28,"gender":"m","trial_type":"age","trial_index":1,"time_elapsed":279044,"internal_node_id":"0.0-1.0"},{"worker_id":"A18T67NDI2JK5Y","trial_type":"workerid","trial_index":2,"time_elapsed":287726,"internal_node_id":"0.0-2.0"},{"tries":1,"trial_type":"instructions_check","trial_index":3,"time_elapsed":432891,"internal_node_id":"0.0-3.0"},{"rt":10134,"url":"\/tickets\/utils\/start.html","trial_type":"html","trial_index":4,"time_elapsed":444141,"internal_node_id":"0.0-4.0"},{"trial_type":"number-animation","trial_index":5,"time_elapsed":453814,"internal_node_id":"0.0-5.0"},{"phase":0,"sequence":0,"avg":162,"response":155,"trial_type":"training_avg","trial_index":6,"time_elapsed":461807,"internal_node_id":"0.0-6.0"},{"trial_type":"number-animation","trial_index":7,"time_elapsed":469414,"internal_node_id":"0.0-7.0"},{"phase":0,"sequence":1,"avg":158,"response":159,"trial_type":"training_avg","trial_index":8,"time_elapsed":476183,"internal_node_id":"0.0-8.0"},{"trial_type":"number-animation","trial_index":9,"time_elapsed":482752,"internal_node_id":"0.0-9.0"},{"phase":0,"sequence":2,"avg":166,"response":145,"trial_type":"training_avg","trial_index":10,"time_elapsed":490832,"internal_node_id":"0.0-10.0"},{"trial_type":"number-animation","trial_index":11,"time_elapsed":497290,"internal_node_id":"0.0-11.0"},{"phase":0,"sequence":3,"avg":153,"response":154,"trial_type":"training_avg","trial_index":12,"time_elapsed":503315,"internal_node_id":"0.0-12.0"},{"trial_type":"number-animation","trial_index":13,"time_elapsed":509683,"internal_node_id":"0.0-13.0"},{"phase":0,"sequence":4,"avg":164,"response":177,"trial_type":"training_avg","trial_index":14,"time_elapsed":519125,"internal_node_id":"0.0-14.0"},{"responses":[{"value":1,"offby":1,"category":"$105 - $120","category_index":0},{"value":2,"offby":1,"category":"$121 - $135","category_index":1},{"value":3,"offby":0,"category":"$136 - $150","category_index":2},{"value":6,"offby":-1,"category":"$151 - $165","category_index":3},{"value":5,"offby":-1,"category":"$166 - $180","category_index":4},{"value":2,"offby":-1,"category":"$181 - $195","category_index":5},{"value":1,"offby":1,"category":"$196 - $210","category_index":6}],"phase":0,"number":0,"trial_type":"bar-choose","trial_index":15,"time_elapsed":574558,"internal_node_id":"0.0-15.0"},{"rt":7090,"url":"\/tickets\/\/utils\/testing.html","trial_type":"html","trial_index":16,"time_elapsed":582759,"internal_node_id":"0.0-16.0"},{"phase":0,"order":[33,18,16,17,42,32,22,36,0,21,12,31,38,44,45,43,8,9,2,13,20,29,19,48,1,11,5,14,3,49,47,37,15,46,41,6,30,40,25,4,10,28,35,26,34,24,7,39,27,23],"trial_type":"store_order","trial_index":17,"time_elapsed":583761,"internal_node_id":"0.0-17.0"},{"result":126,"points":3,"place":0,"phase":0,"sequence":-1,"prices":[184,180,224,165,181,199,185,193,218,126],"times":[2904,680,805,2166,591,742,797,654,680,860],"next_num":10,"trial_type":"ticket-choose","trial_index":18,"time_elapsed":598736,"internal_node_id":"0.0-18.0"},{"rt":10834,"url":"\/tickets\/utils\/testing_after.html","trial_type":"html","trial_index":19,"time_elapsed":610690,"internal_node_id":"0.0-19.0"},{"result":139,"points":3,"place":0,"phase":0,"sequence":0,"prices":[139,163,146,148,153,185,147,167,171,150],"times":[4610],"next_num":1,"trial_type":"ticket-choose","trial_index":20,"time_elapsed":618490,"internal_node_id":"0.0-20.0"},{"result":138,"points":2,"place":1,"phase":0,"sequence":1,"prices":[156,167,138,205,161,167,157,145,188,133],"times":[1059,582,1063],"next_num":3,"trial_type":"ticket-choose","trial_index":21,"time_elapsed":623660,"internal_node_id":"0.0-21.0"},{"result":133,"points":3,"place":0,"phase":0,"sequence":2,"prices":[155,166,138,203,160,167,157,146,189,133],"times":[1745,550,493,663,563,528,595,581,726,655],"next_num":10,"trial_type":"ticket-choose","trial_index":22,"time_elapsed":634684,"internal_node_id":"0.0-22.0"},{"result":138,"points":2,"place":1,"phase":0,"sequence":3,"prices":[155,166,138,203,161,168,157,147,188,134],"times":[1214,584,1267],"next_num":3,"trial_type":"ticket-choose","trial_index":23,"time_elapsed":640062,"internal_node_id":"0.0-23.0"},{"result":123,"points":3,"place":0,"phase":0,"sequence":4,"prices":[202,153,182,177,123,185,178,163,158,166],"times":[884,485,470,535,959],"next_num":5,"trial_type":"ticket-choose","trial_index":24,"time_elapsed":646310,"internal_node_id":"0.0-24.0"},{"result":168,"points":1,"place":4,"phase":0,"sequence":5,"prices":[141,173,147,167,170,204,154,174,175,168],"times":[706,446,438,606,486,654,786,576,974,695],"next_num":10,"trial_type":"ticket-choose","trial_index":25,"time_elapsed":656481,"internal_node_id":"0.0-25.0"},{"result":138,"points":2,"place":1,"phase":0,"sequence":6,"prices":[156,167,157,205,161,167,138,145,188,133],"times":[970,533,606,579,613,630,998],"next_num":7,"trial_type":"ticket-choose","trial_index":26,"time_elapsed":664568,"internal_node_id":"0.0-26.0"},{"result":134,"points":3,"place":0,"phase":0,"sequence":7,"prices":[168,180,145,152,178,154,157,134,157,160],"times":[958,359,285,389,455,558,532,987],"next_num":8,"trial_type":"ticket-choose","trial_index":27,"time_elapsed":672312,"internal_node_id":"0.0-27.0"},{"result":133,"points":3,"place":0,"phase":0,"sequence":8,"prices":[156,166,143,206,159,167,156,146,133,188],"times":[702,525,636,575,532,502,591,1013,1047],"next_num":9,"trial_type":"ticket-choose","trial_index":28,"time_elapsed":682066,"internal_node_id":"0.0-28.0"},{"result":134,"points":3,"place":0,"phase":0,"sequence":9,"prices":[155,166,157,203,161,168,138,147,188,134],"times":[884,663,517,527,589,683,1118,534,620,494],"next_num":10,"trial_type":"ticket-choose","trial_index":29,"time_elapsed":692427,"internal_node_id":"0.0-29.0"},{"result":136,"points":3,"place":0,"phase":0,"sequence":10,"prices":[154,166,158,205,161,168,147,148,188,136],"times":[909,485,495,525,550,548,3343,549,724,494],"next_num":10,"trial_type":"ticket-choose","trial_index":30,"time_elapsed":704739,"internal_node_id":"0.0-30.0"},{"result":128,"points":3,"place":0,"phase":0,"sequence":11,"prices":[128,151,130,143,147,200,142,166,167,145],"times":[867],"next_num":1,"trial_type":"ticket-choose","trial_index":31,"time_elapsed":707426,"internal_node_id":"0.0-31.0"},{"result":143,"points":3,"place":0,"phase":0,"sequence":12,"prices":[148,179,176,178,165,175,207,143,157,146],"times":[1008,493,636,516,568,542,653,869],"next_num":8,"trial_type":"ticket-choose","trial_index":32,"time_elapsed":715968,"internal_node_id":"0.0-32.0"},{"result":187,"points":0,"place":9,"phase":0,"sequence":13,"prices":[160,139,129,155,165,121,143,154,158,187],"times":[648,1390,436,766,500,437,977,708,718,912],"next_num":10,"trial_type":"ticket-choose","trial_index":33,"time_elapsed":727553,"internal_node_id":"0.0-33.0"},{"result":144,"points":3,"place":0,"phase":0,"sequence":14,"prices":[192,172,168,164,147,173,169,144,156,150],"times":[750,574,590,565,564,670,685,1101],"next_num":8,"trial_type":"ticket-choose","trial_index":34,"time_elapsed":736433,"internal_node_id":"0.0-34.0"},{"result":150,"points":2,"place":1,"phase":0,"sequence":15,"prices":[181,167,137,164,178,159,168,165,158,150],"times":[984,551,2155,508,572,639,553,570,540,534],"next_num":10,"trial_type":"ticket-choose","trial_index":35,"time_elapsed":747668,"internal_node_id":"0.0-35.0"},{"result":148,"points":1,"place":2,"phase":0,"sequence":16,"prices":[154,166,147,205,161,168,158,148,188,136],"times":[672,509,868,565,540,548,566,1198],"next_num":8,"trial_type":"ticket-choose","trial_index":36,"time_elapsed":756373,"internal_node_id":"0.0-36.0"},{"result":136,"points":3,"place":0,"phase":0,"sequence":17,"prices":[155,165,147,204,161,166,158,148,188,136],"times":[1048,638,823,588,557,558,669,597,605,549],"next_num":10,"trial_type":"ticket-choose","trial_index":37,"time_elapsed":766638,"internal_node_id":"0.0-37.0"},{"result":133,"points":3,"place":0,"phase":0,"sequence":18,"prices":[154,166,143,205,161,167,156,146,133,189],"times":[578,398,276,366,395,534,549,1084,911],"next_num":9,"trial_type":"ticket-choose","trial_index":38,"time_elapsed":775128,"internal_node_id":"0.0-38.0"},{"result":136,"points":3,"place":0,"phase":0,"sequence":19,"prices":[155,165,158,204,161,166,147,148,188,136],"times":[643,436,405,454,533,533,1124,549,581,504],"next_num":10,"trial_type":"ticket-choose","trial_index":39,"time_elapsed":784497,"internal_node_id":"0.0-39.0"},{"result":133,"points":3,"place":0,"phase":0,"sequence":20,"prices":[155,166,157,203,160,167,138,146,189,133],"times":[632,389,427,423,388,415,1452,564,549,508],"next_num":10,"trial_type":"ticket-choose","trial_index":40,"time_elapsed":793851,"internal_node_id":"0.0-40.0"},{"result":148,"points":1,"place":4,"phase":0,"sequence":21,"prices":[130,165,134,141,153,179,135,168,171,148],"times":[610,556,469,530,531,494,492,572,573,589],"next_num":10,"trial_type":"ticket-choose","trial_index":41,"time_elapsed":802971,"internal_node_id":"0.0-41.0"},{"result":134,"points":3,"place":0,"phase":0,"sequence":22,"prices":[156,165,138,205,160,166,157,146,189,134],"times":[1300,483,544,595,575,589,603,799,582,478],"next_num":10,"trial_type":"ticket-choose","trial_index":42,"time_elapsed":813124,"internal_node_id":"0.0-42.0"},{"result":159,"points":1,"place":4,"phase":0,"sequence":23,"prices":[161,195,149,127,162,173,157,164,156,159],"times":[642,540,548,540,791,677,551,534,470,517],"next_num":10,"trial_type":"ticket-choose","trial_index":43,"time_elapsed":822622,"internal_node_id":"0.0-43.0"},{"result":134,"points":3,"place":0,"phase":0,"sequence":24,"prices":[155,167,143,206,160,168,156,145,134,188],"times":[660,542,588,548,564,534,525,594,1015],"next_num":9,"trial_type":"ticket-choose","trial_index":44,"time_elapsed":831663,"internal_node_id":"0.0-44.0"},{"result":133,"points":3,"place":0,"phase":0,"sequence":25,"prices":[155,167,147,205,159,167,158,149,188,133],"times":[682,515,454,612,974,574,589,694,765,438],"next_num":10,"trial_type":"ticket-choose","trial_index":45,"time_elapsed":841609,"internal_node_id":"0.0-45.0"},{"result":188,"points":0,"place":8,"phase":0,"sequence":26,"prices":[155,167,156,206,160,168,143,145,134,188],"times":[583,446,525,541,558,541,1109,556,559,828],"next_num":10,"trial_type":"ticket-choose","trial_index":46,"time_elapsed":851985,"internal_node_id":"0.0-46.0"},{"result":133,"points":3,"place":0,"phase":0,"sequence":27,"prices":[155,166,158,205,159,167,147,149,189,133],"times":[1025,855,525,766,572,574,1270,598,581,462],"next_num":10,"trial_type":"ticket-choose","trial_index":47,"time_elapsed":862889,"internal_node_id":"0.0-47.0"},{"result":145,"points":1,"place":2,"phase":0,"sequence":28,"prices":[155,166,143,204,159,167,156,145,133,190],"times":[604,495,459,697,524,567,647,1446],"next_num":8,"trial_type":"ticket-choose","trial_index":48,"time_elapsed":871509,"internal_node_id":"0.0-48.0"},{"result":164,"points":0,"place":7,"phase":0,"sequence":29,"prices":[163,143,165,160,146,128,140,166,156,164],"times":[660,281,357,407,408,548,500,485,477,481],"next_num":10,"trial_type":"ticket-choose","trial_index":49,"time_elapsed":879708,"internal_node_id":"0.0-49.0"},{"result":171,"points":0,"place":7,"phase":0,"sequence":30,"prices":[180,161,183,132,155,151,140,134,156,171],"times":[771,270,317,614,327,542,525,847,558,509],"next_num":10,"trial_type":"ticket-choose","trial_index":50,"time_elapsed":888559,"internal_node_id":"0.0-50.0"},{"result":132,"points":3,"place":0,"phase":0,"sequence":31,"prices":[178,173,149,143,182,162,132,144,157,151],"times":[631,589,597,516,549,511,869],"next_num":7,"trial_type":"ticket-choose","trial_index":51,"time_elapsed":895774,"internal_node_id":"0.0-51.0"},{"result":133,"points":3,"place":0,"phase":0,"sequence":32,"prices":[155,167,158,205,159,167,147,149,188,133],"times":[782,526,494,551,534,528,1128,749,646,878],"next_num":10,"trial_type":"ticket-choose","trial_index":52,"time_elapsed":906178,"internal_node_id":"0.0-52.0"},{"result":188,"points":0,"place":6,"phase":0,"sequence":33,"prices":[190,164,206,173,195,138,179,155,156,188],"times":[657,440,412,530,570,1373,589,543,631,575],"next_num":10,"trial_type":"ticket-choose","trial_index":53,"time_elapsed":916156,"internal_node_id":"0.0-53.0"},{"result":115,"points":3,"place":0,"phase":0,"sequence":34,"prices":[181,187,135,138,136,145,147,115,158,157],"times":[600,327,362,867,461,724,999,1099],"next_num":8,"trial_type":"ticket-choose","trial_index":54,"time_elapsed":924899,"internal_node_id":"0.0-54.0"},{"result":189,"points":0,"place":8,"phase":0,"sequence":35,"prices":[154,166,156,205,161,167,143,146,133,189],"times":[648,507,517,591,741,863,679,590,638,751],"next_num":11,"trial_type":"ticket-choose","trial_index":55,"time_elapsed":936661,"internal_node_id":"0.0-55.0"},{"result":156,"points":1,"place":4,"phase":0,"sequence":36,"prices":[137,171,145,155,162,183,150,175,180,156],"times":[1148,541,635,490,516,550,621,535,581,648],"next_num":10,"trial_type":"ticket-choose","trial_index":56,"time_elapsed":946549,"internal_node_id":"0.0-56.0"},{"result":179,"points":0,"place":8,"phase":0,"sequence":37,"prices":[169,130,155,140,168,187,138,174,158,179],"times":[786,503,455,519,534,477,763,568,589,615],"next_num":10,"trial_type":"ticket-choose","trial_index":57,"time_elapsed":955905,"internal_node_id":"0.0-57.0"},{"result":159,"points":1,"place":4,"phase":0,"sequence":38,"prices":[136,181,142,146,165,194,145,182,184,159],"times":[649,589,662,598,543,533,526,455,510,567],"next_num":10,"trial_type":"ticket-choose","trial_index":58,"time_elapsed":965130,"internal_node_id":"0.0-58.0"},{"result":133,"points":3,"place":0,"phase":0,"sequence":39,"prices":[156,166,156,206,159,167,143,146,133,188],"times":[678,518,549,542,510,549,592,500,853],"next_num":9,"trial_type":"ticket-choose","trial_index":59,"time_elapsed":973963,"internal_node_id":"0.0-59.0"},{"result":133,"points":3,"place":0,"phase":0,"sequence":40,"prices":[155,166,147,205,159,167,158,149,189,133],"times":[659,502,487,582,501,519,621,1020,622,535],"next_num":10,"trial_type":"ticket-choose","trial_index":60,"time_elapsed":983763,"internal_node_id":"0.0-60.0"},{"result":165,"points":1,"place":4,"phase":0,"sequence":41,"prices":[149,176,150,164,167,191,151,181,182,165],"times":[883,500,524,822,544,518,527,682,581,544],"next_num":10,"trial_type":"ticket-choose","trial_index":61,"time_elapsed":993517,"internal_node_id":"0.0-61.0"},{"result":134,"points":2,"place":1,"phase":0,"sequence":42,"prices":[148,134,152,165,175,124,164,191,157,207],"times":[611,871],"next_num":2,"trial_type":"ticket-choose","trial_index":62,"time_elapsed":996908,"internal_node_id":"0.0-62.0"},{"result":132,"points":3,"place":0,"phase":0,"sequence":43,"prices":[132,180,138,153,162,187,141,182,184,160],"times":[933],"next_num":1,"trial_type":"ticket-choose","trial_index":63,"time_elapsed":999517,"internal_node_id":"0.0-63.0"},{"result":135,"points":2,"place":1,"phase":0,"sequence":44,"prices":[161,135,128,141,148,167,152,179,156,174],"times":[637,875],"next_num":2,"trial_type":"ticket-choose","trial_index":64,"time_elapsed":1002871,"internal_node_id":"0.0-64.0"},{"result":164,"points":1,"place":4,"phase":0,"sequence":45,"prices":[141,173,155,161,165,204,160,179,198,164],"times":[605,615,507,524,501,543,558,523,509,333],"next_num":10,"trial_type":"ticket-choose","trial_index":65,"time_elapsed":1011750,"internal_node_id":"0.0-65.0"},{"result":190,"points":0,"place":8,"phase":0,"sequence":46,"prices":[155,166,156,204,159,167,143,145,133,190],"times":[628,574,501,599,531,503,669,294,236,1757],"next_num":11,"trial_type":"ticket-choose","trial_index":66,"time_elapsed":1021720,"internal_node_id":"0.0-66.0"},{"result":151,"points":1,"place":3,"phase":0,"sequence":47,"prices":[169,147,160,177,145,148,152,193,158,151],"times":[832,534,742,437,774,645,766,629,1239,404],"next_num":10,"trial_type":"ticket-choose","trial_index":67,"time_elapsed":1032376,"internal_node_id":"0.0-67.0"},{"result":166,"points":1,"place":4,"phase":0,"sequence":48,"prices":[148,172,151,158,168,197,152,175,177,166],"times":[1497,557,548,526,552,720,694,685,565,581],"next_num":10,"trial_type":"ticket-choose","trial_index":68,"time_elapsed":1042907,"internal_node_id":"0.0-68.0"},{"result":138,"points":2,"place":1,"phase":0,"sequence":49,"prices":[156,165,157,205,160,166,138,146,189,134],"times":[692,450,534,573,524,589,973],"next_num":7,"trial_type":"ticket-choose","trial_index":69,"time_elapsed":1050347,"internal_node_id":"0.0-69.0"},{"responses":[{"value":1,"offby":1,"category":"$105 - $120","category_index":0},{"value":2,"offby":1,"category":"$121 - $135","category_index":1},{"value":3,"offby":0,"category":"$136 - $150","category_index":2},{"value":6,"offby":-1,"category":"$151 - $165","category_index":3},{"value":5,"offby":-1,"category":"$166 - $180","category_index":4},{"value":2,"offby":-1,"category":"$181 - $195","category_index":5},{"value":1,"offby":1,"category":"$196 - $210","category_index":6}],"phase":0,"number":1,"trial_type":"bar-choose","trial_index":70,"time_elapsed":1131637,"internal_node_id":"0.0-70.0"},{"rt":5490,"url":"\/tickets\/utils\/start2.html","trial_type":"html","trial_index":71,"time_elapsed":1138252,"internal_node_id":"0.0-71.0"},{"trial_type":"number-animation","trial_index":72,"time_elapsed":1150352,"internal_node_id":"0.0-72.0"},{"phase":1,"sequence":0,"avg":188,"response":203,"trial_type":"training_avg","trial_index":73,"time_elapsed":1155777,"internal_node_id":"0.0-73.0"},{"trial_type":"number-animation","trial_index":74,"time_elapsed":1162962,"internal_node_id":"0.0-74.0"},{"phase":1,"sequence":1,"avg":202,"response":200,"trial_type":"training_avg","trial_index":75,"time_elapsed":1167715,"internal_node_id":"0.0-75.0"},{"trial_type":"number-animation","trial_index":76,"time_elapsed":1174188,"internal_node_id":"0.0-76.0"},{"phase":1,"sequence":2,"avg":200,"response":201,"trial_type":"training_avg","trial_index":77,"time_elapsed":1178418,"internal_node_id":"0.0-77.0"},{"trial_type":"number-animation","trial_index":78,"time_elapsed":1185508,"internal_node_id":"0.0-78.0"},{"phase":1,"sequence":3,"avg":209,"response":209,"trial_type":"training_avg","trial_index":79,"time_elapsed":1190301,"internal_node_id":"0.0-79.0"},{"trial_type":"number-animation","trial_index":80,"time_elapsed":1197326,"internal_node_id":"0.0-80.0"},{"phase":1,"sequence":4,"avg":195,"response":192,"trial_type":"training_avg","trial_index":81,"time_elapsed":1203158,"internal_node_id":"0.0-81.0"},{"responses":[{"value":0,"offby":0,"category":"$145 - $160","category_index":0},{"value":2,"offby":1,"category":"$161 - $175","category_index":1},{"value":4,"offby":1,"category":"$176 - $190","category_index":2},{"value":7,"offby":0,"category":"$191 - $205","category_index":3},{"value":5,"offby":-1,"category":"$206 - $220","category_index":4},{"value":2,"offby":-1,"category":"$221 - $235","category_index":5},{"value":0,"offby":0,"category":"$226 - $260","category_index":6}],"phase":1,"number":0,"trial_type":"bar-choose","trial_index":82,"time_elapsed":1240927,"internal_node_id":"0.0-82.0"},{"rt":29151,"url":"\/tickets\/utils\/testing2.html","trial_type":"html","trial_index":83,"time_elapsed":1271209,"internal_node_id":"0.0-83.0"},{"phase":1,"order":[3,17,49,43,26,7,36,21,41,16,12,24,45,23,2,30,19,8,20,47,42,15,39,4,28,0,9,27,44,48,37,38,14,31,5,13,22,25,32,18,40,35,46,6,11,33,34,1,10,29],"trial_type":"store_order","trial_index":84,"time_elapsed":1272212,"internal_node_id":"0.0-84.0"},{"result":185,"points":1,"place":2,"phase":1,"sequence":0,"prices":[195,206,183,244,199,207,196,185,173,230],"times":[2540,614,568,554,502,548,829,886],"next_num":8,"trial_type":"ticket-choose","trial_index":85,"time_elapsed":1282721,"internal_node_id":"0.0-85.0"},{"result":178,"points":2,"place":1,"phase":1,"sequence":1,"prices":[195,206,178,243,201,208,197,187,228,174],"times":[674,551,870],"next_num":3,"trial_type":"ticket-choose","trial_index":86,"time_elapsed":1287156,"internal_node_id":"0.0-86.0"},{"result":168,"points":3,"place":0,"phase":1,"sequence":2,"prices":[203,183,205,200,186,168,180,206,196,204],"times":[597,548,573,501,646,812],"next_num":6,"trial_type":"ticket-choose","trial_index":87,"time_elapsed":1293602,"internal_node_id":"0.0-87.0"},{"result":190,"points":2,"place":1,"phase":1,"sequence":3,"prices":[221,207,177,204,218,199,208,205,198,190],"times":[649,430,464,427,477,534,526,577,649,396],"next_num":10,"trial_type":"ticket-choose","trial_index":88,"time_elapsed":1302339,"internal_node_id":"0.0-88.0"},{"result":172,"points":3,"place":0,"phase":1,"sequence":4,"prices":[172,220,178,193,202,227,181,222,224,200],"times":[1091],"next_num":1,"trial_type":"ticket-choose","trial_index":89,"time_elapsed":1305254,"internal_node_id":"0.0-89.0"},{"result":173,"points":3,"place":0,"phase":1,"sequence":5,"prices":[195,206,196,244,199,207,183,185,173,230],"times":[653,557,596,542,594,545,557,604,934],"next_num":9,"trial_type":"ticket-choose","trial_index":90,"time_elapsed":1314208,"internal_node_id":"0.0-90.0"},{"result":174,"points":3,"place":0,"phase":1,"sequence":6,"prices":[208,220,185,192,218,194,197,174,197,200],"times":[624,477,864,597,541,548,549,1103],"next_num":8,"trial_type":"ticket-choose","trial_index":91,"time_elapsed":1322838,"internal_node_id":"0.0-91.0"},{"result":174,"points":3,"place":0,"phase":1,"sequence":7,"prices":[195,206,197,243,201,208,178,187,228,174],"times":[682,469,621,392,438,337,370,614,542,629],"next_num":11,"trial_type":"ticket-choose","trial_index":92,"time_elapsed":1331778,"internal_node_id":"0.0-92.0"},{"result":155,"points":3,"place":0,"phase":1,"sequence":8,"prices":[221,227,175,178,176,185,187,155,198,197],"times":[929,1230,284,358,312,986,646,956],"next_num":8,"trial_type":"ticket-choose","trial_index":93,"time_elapsed":1340633,"internal_node_id":"0.0-93.0"},{"result":173,"points":3,"place":0,"phase":1,"sequence":9,"prices":[195,206,178,243,200,207,197,186,229,173],"times":[589,539,1382,627,606,552,689,541,619,326],"next_num":10,"trial_type":"ticket-choose","trial_index":94,"time_elapsed":1350772,"internal_node_id":"0.0-94.0"},{"result":176,"points":3,"place":0,"phase":1,"sequence":10,"prices":[194,206,198,245,201,208,187,188,228,176],"times":[640,606,431,589,664,514,709,588,575,572],"next_num":10,"trial_type":"ticket-choose","trial_index":95,"time_elapsed":1360339,"internal_node_id":"0.0-95.0"},{"result":204,"points":1,"place":4,"phase":1,"sequence":11,"prices":[181,213,195,201,205,244,200,219,238,204],"times":[524,358,405,472,402,382,427,509,554,460],"next_num":11,"trial_type":"ticket-choose","trial_index":96,"time_elapsed":1368670,"internal_node_id":"0.0-96.0"},{"result":190,"points":1,"place":2,"phase":1,"sequence":12,"prices":[232,212,208,204,187,213,209,184,196,190],"times":[665,404,334,372,453,339,421,374,690,947],"next_num":11,"trial_type":"ticket-choose","trial_index":97,"time_elapsed":1377484,"internal_node_id":"0.0-97.0"},{"result":178,"points":2,"place":1,"phase":1,"sequence":13,"prices":[196,205,197,245,200,206,178,186,229,174],"times":[676,392,384,503,484,500,839],"next_num":7,"trial_type":"ticket-choose","trial_index":98,"time_elapsed":1384166,"internal_node_id":"0.0-98.0"},{"result":186,"points":1,"place":2,"phase":1,"sequence":14,"prices":[194,206,183,245,201,207,196,186,173,229],"times":[609,333,445,299,318,415,482,973],"next_num":8,"trial_type":"ticket-choose","trial_index":99,"time_elapsed":1391327,"internal_node_id":"0.0-99.0"},{"result":196,"points":1,"place":4,"phase":1,"sequence":15,"prices":[177,211,185,195,202,223,190,215,220,196],"times":[481,397,301,613,562,468,534,636,740,356],"next_num":11,"trial_type":"ticket-choose","trial_index":100,"time_elapsed":1400367,"internal_node_id":"0.0-100.0"},{"result":178,"points":2,"place":1,"phase":1,"sequence":16,"prices":[196,205,178,245,200,206,197,186,229,174],"times":[1058,6207,2126],"next_num":3,"trial_type":"ticket-choose","trial_index":101,"time_elapsed":1412052,"internal_node_id":"0.0-101.0"},{"result":176,"points":3,"place":0,"phase":1,"sequence":17,"prices":[194,206,187,245,201,208,198,188,228,176],"times":[9356,654,497,480,502,516,514,529,593,566],"next_num":11,"trial_type":"ticket-choose","trial_index":102,"time_elapsed":1430603,"internal_node_id":"0.0-102.0"},{"result":173,"points":3,"place":0,"phase":1,"sequence":18,"prices":[195,206,197,243,200,207,178,186,229,173],"times":[717,426,422,330,462,467,436,588,541,309],"next_num":10,"trial_type":"ticket-choose","trial_index":103,"time_elapsed":1438812,"internal_node_id":"0.0-103.0"},{"result":211,"points":0,"place":7,"phase":1,"sequence":19,"prices":[220,201,223,172,195,191,180,174,196,211],"times":[618,365,490,427,381,550,621,580,558,572],"next_num":11,"trial_type":"ticket-choose","trial_index":104,"time_elapsed":1448015,"internal_node_id":"0.0-104.0"},{"result":163,"points":3,"place":0,"phase":1,"sequence":20,"prices":[242,193,222,217,163,225,218,203,198,206],"times":[618,483,622,532,933],"next_num":5,"trial_type":"ticket-choose","trial_index":105,"time_elapsed":1453918,"internal_node_id":"0.0-105.0"},{"result":173,"points":3,"place":0,"phase":1,"sequence":21,"prices":[195,207,198,245,199,207,187,189,228,173],"times":[619,560,487,619,606,613,1045,587,681,427],"next_num":10,"trial_type":"ticket-choose","trial_index":106,"time_elapsed":1463746,"internal_node_id":"0.0-106.0"},{"result":185,"points":3,"place":0,"phase":1,"sequence":22,"prices":[209,187,200,217,185,188,192,233,198,191],"times":[455,1220,557,508,886],"next_num":5,"trial_type":"ticket-choose","trial_index":107,"time_elapsed":1469866,"internal_node_id":"0.0-107.0"},{"result":183,"points":2,"place":1,"phase":1,"sequence":23,"prices":[196,206,196,246,199,207,183,186,173,228],"times":[496,558,1312,483,649,655,1694],"next_num":7,"trial_type":"ticket-choose","trial_index":108,"time_elapsed":1478828,"internal_node_id":"0.0-108.0"},{"result":205,"points":1,"place":4,"phase":1,"sequence":24,"prices":[189,216,190,204,207,231,191,221,222,205],"times":[518,462,486,549,607,557,654,622,606,333],"next_num":10,"trial_type":"ticket-choose","trial_index":109,"time_elapsed":1487604,"internal_node_id":"0.0-109.0"},{"result":173,"points":3,"place":0,"phase":1,"sequence":25,"prices":[196,206,183,246,199,207,196,186,173,228],"times":[565,625,812,542,513,637,688,934,966],"next_num":9,"trial_type":"ticket-choose","trial_index":110,"time_elapsed":1497222,"internal_node_id":"0.0-110.0"},{"result":176,"points":3,"place":0,"phase":1,"sequence":26,"prices":[195,205,187,244,201,206,198,188,228,176],"times":[712,486,421,574,479,483,718,847,534,487],"next_num":11,"trial_type":"ticket-choose","trial_index":111,"time_elapsed":1506518,"internal_node_id":"0.0-111.0"},{"result":206,"points":1,"place":4,"phase":1,"sequence":27,"prices":[188,212,191,198,208,237,192,215,217,206],"times":[671,383,383,366,524,558,581,535,558,324],"next_num":11,"trial_type":"ticket-choose","trial_index":112,"time_elapsed":1516033,"internal_node_id":"0.0-112.0"},{"result":227,"points":0,"place":9,"phase":1,"sequence":28,"prices":[200,179,169,195,205,161,183,194,198,227],"times":[675,301,456,685,388,343,437,303,470,814],"next_num":11,"trial_type":"ticket-choose","trial_index":113,"time_elapsed":1524490,"internal_node_id":"0.0-113.0"},{"result":199,"points":1,"place":4,"phase":1,"sequence":29,"prices":[201,235,189,167,202,213,197,204,196,199],"times":[682,346,320,542,431,467,368,340,311,429],"next_num":11,"trial_type":"ticket-choose","trial_index":114,"time_elapsed":1532387,"internal_node_id":"0.0-114.0"},{"result":172,"points":3,"place":0,"phase":1,"sequence":30,"prices":[218,213,189,183,222,202,172,184,197,191],"times":[1043,548,2199,501,576,591,797],"next_num":7,"trial_type":"ticket-choose","trial_index":115,"time_elapsed":1541414,"internal_node_id":"0.0-115.0"},{"result":183,"points":3,"place":0,"phase":1,"sequence":31,"prices":[188,219,216,218,205,215,247,183,197,186],"times":[589,551,509,518,559,523,495,1000],"next_num":8,"trial_type":"ticket-choose","trial_index":116,"time_elapsed":1549204,"internal_node_id":"0.0-116.0"},{"result":173,"points":3,"place":0,"phase":1,"sequence":32,"prices":[195,206,198,245,199,207,187,189,229,173],"times":[617,325,430,510,573,568,1358,716,511,287],"next_num":11,"trial_type":"ticket-choose","trial_index":117,"time_elapsed":1558767,"internal_node_id":"0.0-117.0"},{"result":185,"points":1,"place":4,"phase":1,"sequence":33,"prices":[168,191,170,183,187,240,182,206,207,185],"times":[619,390,334,862,590,646,357,335,591,302],"next_num":11,"trial_type":"ticket-choose","trial_index":118,"time_elapsed":1567422,"internal_node_id":"0.0-118.0"},{"result":174,"points":3,"place":0,"phase":1,"sequence":34,"prices":[195,207,196,246,200,208,183,185,174,228],"times":[1088,504,377,388,460,472,494,545,1069],"next_num":9,"trial_type":"ticket-choose","trial_index":119,"time_elapsed":1576104,"internal_node_id":"0.0-119.0"},{"result":176,"points":3,"place":0,"phase":1,"sequence":35,"prices":[195,205,198,244,201,206,187,188,228,176],"times":[490,340,369,516,614,414,454,753,595,456],"next_num":11,"trial_type":"ticket-choose","trial_index":120,"time_elapsed":1584794,"internal_node_id":"0.0-120.0"},{"result":178,"points":2,"place":1,"phase":1,"sequence":36,"prices":[196,207,197,245,201,207,178,185,228,173],"times":[608,663,1406,837,527,686,964],"next_num":7,"trial_type":"ticket-choose","trial_index":121,"time_elapsed":1593409,"internal_node_id":"0.0-121.0"},{"result":176,"points":3,"place":0,"phase":1,"sequence":37,"prices":[176,221,182,186,205,234,185,222,224,199],"times":[930],"next_num":1,"trial_type":"ticket-choose","trial_index":122,"time_elapsed":1596313,"internal_node_id":"0.0-122.0"},{"result":208,"points":1,"place":4,"phase":1,"sequence":38,"prices":[181,213,187,207,210,244,194,214,215,208],"times":[602,1131,1416,428,351,406,413,623,421,316],"next_num":10,"trial_type":"ticket-choose","trial_index":123,"time_elapsed":1605939,"internal_node_id":"0.0-123.0"},{"result":173,"points":3,"place":0,"phase":1,"sequence":39,"prices":[196,207,178,245,201,207,197,185,228,173],"times":[859,340,302,583,444,320,349,415,430,389],"next_num":10,"trial_type":"ticket-choose","trial_index":124,"time_elapsed":1614038,"internal_node_id":"0.0-124.0"},{"result":219,"points":0,"place":8,"phase":1,"sequence":40,"prices":[209,170,195,180,208,227,178,214,198,219],"times":[1042,447,723,488,549,508,414,502,284,729],"next_num":11,"trial_type":"ticket-choose","trial_index":125,"time_elapsed":1623350,"internal_node_id":"0.0-125.0"},{"result":174,"points":2,"place":1,"phase":1,"sequence":41,"prices":[188,174,192,205,215,164,204,231,197,247],"times":[627,814],"next_num":2,"trial_type":"ticket-choose","trial_index":126,"time_elapsed":1626671,"internal_node_id":"0.0-126.0"},{"result":178,"points":3,"place":0,"phase":1,"sequence":42,"prices":[230,204,246,213,235,178,219,195,196,228],"times":[610,413,543,533,543,967],"next_num":6,"trial_type":"ticket-choose","trial_index":127,"time_elapsed":1632967,"internal_node_id":"0.0-127.0"},{"result":183,"points":2,"place":1,"phase":1,"sequence":43,"prices":[194,206,196,245,201,207,183,186,173,229],"times":[496,524,461,540,564,511,844],"next_num":7,"trial_type":"ticket-choose","trial_index":128,"time_elapsed":1639809,"internal_node_id":"0.0-128.0"},{"result":173,"points":3,"place":0,"phase":1,"sequence":44,"prices":[195,207,187,245,199,207,198,189,228,173],"times":[648,488,453,550,517,576,755,837,535,332],"next_num":10,"trial_type":"ticket-choose","trial_index":129,"time_elapsed":1649195,"internal_node_id":"0.0-129.0"},{"result":179,"points":3,"place":0,"phase":1,"sequence":45,"prices":[179,203,186,188,193,225,187,207,211,190],"times":[965],"next_num":1,"trial_type":"ticket-choose","trial_index":130,"time_elapsed":1651995,"internal_node_id":"0.0-130.0"},{"result":175,"points":2,"place":1,"phase":1,"sequence":46,"prices":[201,175,168,181,188,207,192,219,196,214],"times":[624,682],"next_num":2,"trial_type":"ticket-choose","trial_index":131,"time_elapsed":1655163,"internal_node_id":"0.0-131.0"},{"result":183,"points":2,"place":1,"phase":1,"sequence":47,"prices":[195,207,183,246,200,208,196,185,174,228],"times":[600,532,486],"next_num":3,"trial_type":"ticket-choose","trial_index":132,"time_elapsed":1658884,"internal_node_id":"0.0-132.0"},{"result":187,"points":2,"place":1,"phase":1,"sequence":48,"prices":[195,206,187,245,199,207,198,189,229,173],"times":[714,749,815],"next_num":3,"trial_type":"ticket-choose","trial_index":133,"time_elapsed":1663226,"internal_node_id":"0.0-133.0"},{"result":170,"points":3,"place":0,"phase":1,"sequence":49,"prices":[170,205,174,181,193,219,175,208,211,188],"times":[1435],"next_num":1,"trial_type":"ticket-choose","trial_index":134,"time_elapsed":1666500,"internal_node_id":"0.0-134.0"},{"responses":[{"value":0,"offby":0,"category":"$145 - $160","category_index":0},{"value":1,"offby":0,"category":"$161 - $175","category_index":1},{"value":2,"offby":-1,"category":"$176 - $190","category_index":2},{"value":8,"offby":1,"category":"$191 - $205","category_index":3},{"value":7,"offby":1,"category":"$206 - $220","category_index":4},{"value":2,"offby":-1,"category":"$221 - $235","category_index":5},{"value":0,"offby":0,"category":"$226 - $260","category_index":6}],"phase":1,"number":1,"trial_type":"bar-choose","trial_index":135,"time_elapsed":1695481,"internal_node_id":"0.0-135.0"},{"special_comment":"There were a couple patterns","trial_type":"special_sequence","trial_index":136,"time_elapsed":1713043,"internal_node_id":"0.0-136.0"},{"during":"Nothing","bonus":276,"trial_type":"final","trial_index":137,"time_elapsed":1770293,"internal_node_id":"0.0-137.0"}],"bonus":276}