{"start_time":"2017-02-15 09:37:30","end_time":"2017-02-15 09:57:59","points_phase0":111,"points_phase1":110,"phase_order":1,"age":22,"gender":"f","tries":2,"during":"Nothing","worker_id":"A192MH226Q1NT4","assignment_id":"3Y9N9SS8LZ4JOUAZXZJ5FUYID5ND3H","data":[{"rt":3575,"url":"\/tickets\/utils\/consent.html","trial_type":"html","trial_index":0,"time_elapsed":3966,"internal_node_id":"0.0-0.0"},{"age":22,"gender":"f","trial_type":"age","trial_index":1,"time_elapsed":8728,"internal_node_id":"0.0-1.0"},{"worker_id":"A192MH226Q1NT4","trial_type":"workerid","trial_index":2,"time_elapsed":17646,"internal_node_id":"0.0-2.0"},{"tries":2,"trial_type":"instructions_check","trial_index":3,"time_elapsed":102503,"internal_node_id":"0.0-3.0"},{"rt":37417,"url":"\/tickets\/utils\/start.html","trial_type":"html","trial_index":4,"time_elapsed":141357,"internal_node_id":"0.0-4.0"},{"trial_type":"number-animation","trial_index":5,"time_elapsed":155427,"internal_node_id":"0.0-5.0"},{"phase":0,"sequence":0,"avg":182,"response":170,"trial_type":"training_avg","trial_index":6,"time_elapsed":165410,"internal_node_id":"0.0-6.0"},{"trial_type":"number-animation","trial_index":7,"time_elapsed":174674,"internal_node_id":"0.0-7.0"},{"phase":0,"sequence":1,"avg":188,"response":175,"trial_type":"training_avg","trial_index":8,"time_elapsed":183785,"internal_node_id":"0.0-8.0"},{"trial_type":"number-animation","trial_index":9,"time_elapsed":192649,"internal_node_id":"0.0-9.0"},{"phase":0,"sequence":2,"avg":176,"response":170,"trial_type":"training_avg","trial_index":10,"time_elapsed":201161,"internal_node_id":"0.0-10.0"},{"trial_type":"number-animation","trial_index":11,"time_elapsed":208305,"internal_node_id":"0.0-11.0"},{"phase":0,"sequence":3,"avg":180,"response":175,"trial_type":"training_avg","trial_index":12,"time_elapsed":214916,"internal_node_id":"0.0-12.0"},{"trial_type":"number-animation","trial_index":13,"time_elapsed":223545,"internal_node_id":"0.0-13.0"},{"phase":0,"sequence":4,"avg":174,"response":170,"trial_type":"training_avg","trial_index":14,"time_elapsed":231673,"internal_node_id":"0.0-14.0"},{"responses":[{"value":0,"offby":-1,"category":"$90 - $120","category_index":0},{"value":2,"offby":-1,"category":"$121 - $145","category_index":1},{"value":3,"offby":0,"category":"$146 - $170","category_index":2},{"value":5,"offby":-1,"category":"$171 - $195","category_index":3},{"value":5,"offby":1,"category":"$196 - $220","category_index":4},{"value":3,"offby":1,"category":"$221 - $245","category_index":5},{"value":2,"offby":1,"category":"$246 - $270","category_index":6}],"phase":0,"number":0,"trial_type":"bar-choose","trial_index":15,"time_elapsed":292135,"internal_node_id":"0.0-15.0"},{"rt":18976,"url":"\/tickets\/\/utils\/testing.html","trial_type":"html","trial_index":16,"time_elapsed":312297,"internal_node_id":"0.0-16.0"},{"phase":0,"order":[32,27,30,42,29,35,20,31,25,13,49,0,48,43,44,45,5,22,1,33,46,41,2,7,17,26,38,14,6,39,9,36,16,24,40,8,37,4,47,3,23,18,12,34,11,28,15,21,19,10],"trial_type":"store_order","trial_index":17,"time_elapsed":313298,"internal_node_id":"0.0-17.0"},{"result":165,"points":2,"place":1,"phase":0,"sequence":-1,"times":[2364,1058,632,1379],"next_num":4,"trial_type":"ticket-choose","trial_index":18,"time_elapsed":322066,"internal_node_id":"0.0-18.0"},{"rt":9631,"url":"\/tickets\/utils\/testing_after.html","trial_type":"html","trial_index":19,"time_elapsed":332876,"internal_node_id":"0.0-19.0"},{"result":146,"points":2,"place":1,"phase":0,"sequence":0,"times":[2130,670,987],"next_num":3,"trial_type":"ticket-choose","trial_index":20,"time_elapsed":339538,"internal_node_id":"0.0-20.0"},{"result":153,"points":2,"place":1,"phase":0,"sequence":1,"times":[1646,1251],"next_num":2,"trial_type":"ticket-choose","trial_index":21,"time_elapsed":345100,"internal_node_id":"0.0-21.0"},{"result":136,"points":3,"place":0,"phase":0,"sequence":2,"times":[1314,605,592,632,623,1008],"next_num":6,"trial_type":"ticket-choose","trial_index":22,"time_elapsed":353396,"internal_node_id":"0.0-22.0"},{"result":146,"points":2,"place":1,"phase":0,"sequence":3,"times":[1231,536,521,560,565,650,1034],"next_num":7,"trial_type":"ticket-choose","trial_index":23,"time_elapsed":361840,"internal_node_id":"0.0-23.0"},{"result":143,"points":3,"place":0,"phase":0,"sequence":4,"times":[1737],"next_num":1,"trial_type":"ticket-choose","trial_index":24,"time_elapsed":365797,"internal_node_id":"0.0-24.0"},{"result":146,"points":2,"place":1,"phase":0,"sequence":5,"times":[1371,521,677,547,551,666,952],"next_num":7,"trial_type":"ticket-choose","trial_index":25,"time_elapsed":374275,"internal_node_id":"0.0-25.0"},{"result":154,"points":2,"place":1,"phase":0,"sequence":6,"times":[1181,536,505,590,624,544,1003],"next_num":7,"trial_type":"ticket-choose","trial_index":26,"time_elapsed":382579,"internal_node_id":"0.0-26.0"},{"result":138,"points":1,"place":2,"phase":0,"sequence":7,"times":[2151,905],"next_num":2,"trial_type":"ticket-choose","trial_index":27,"time_elapsed":387848,"internal_node_id":"0.0-27.0"},{"result":136,"points":2,"place":1,"phase":0,"sequence":8,"times":[1072,541,512,591,518,574,936],"next_num":7,"trial_type":"ticket-choose","trial_index":28,"time_elapsed":395900,"internal_node_id":"0.0-28.0"},{"result":136,"points":2,"place":1,"phase":0,"sequence":9,"times":[7709,540,524,508,542,549,940],"next_num":7,"trial_type":"ticket-choose","trial_index":29,"time_elapsed":410574,"internal_node_id":"0.0-29.0"},{"result":132,"points":3,"place":0,"phase":0,"sequence":10,"times":[1636],"next_num":1,"trial_type":"ticket-choose","trial_index":30,"time_elapsed":414464,"internal_node_id":"0.0-30.0"},{"result":146,"points":2,"place":1,"phase":0,"sequence":11,"times":[2596,533,839],"next_num":3,"trial_type":"ticket-choose","trial_index":31,"time_elapsed":420735,"internal_node_id":"0.0-31.0"},{"result":135,"points":3,"place":0,"phase":0,"sequence":12,"times":[834],"next_num":1,"trial_type":"ticket-choose","trial_index":32,"time_elapsed":423498,"internal_node_id":"0.0-32.0"},{"result":154,"points":2,"place":1,"phase":0,"sequence":13,"times":[1287,535,886],"next_num":3,"trial_type":"ticket-choose","trial_index":33,"time_elapsed":428521,"internal_node_id":"0.0-33.0"},{"result":136,"points":2,"place":1,"phase":0,"sequence":14,"times":[726,519,870],"next_num":3,"trial_type":"ticket-choose","trial_index":34,"time_elapsed":433154,"internal_node_id":"0.0-34.0"},{"result":157,"points":3,"place":0,"phase":0,"sequence":15,"times":[8353],"next_num":1,"trial_type":"ticket-choose","trial_index":35,"time_elapsed":443584,"internal_node_id":"0.0-35.0"},{"result":119,"points":3,"place":0,"phase":0,"sequence":16,"times":[1016,910],"next_num":2,"trial_type":"ticket-choose","trial_index":36,"time_elapsed":447662,"internal_node_id":"0.0-36.0"},{"result":136,"points":2,"place":1,"phase":0,"sequence":17,"times":[830,498,859],"next_num":3,"trial_type":"ticket-choose","trial_index":37,"time_elapsed":452100,"internal_node_id":"0.0-37.0"},{"result":157,"points":3,"place":0,"phase":0,"sequence":18,"times":[1470],"next_num":1,"trial_type":"ticket-choose","trial_index":38,"time_elapsed":455448,"internal_node_id":"0.0-38.0"},{"result":136,"points":2,"place":1,"phase":0,"sequence":19,"times":[2131,610,498,483,495,482,850],"next_num":7,"trial_type":"ticket-choose","trial_index":39,"time_elapsed":468275,"internal_node_id":"0.0-39.0"},{"result":154,"points":2,"place":1,"phase":0,"sequence":20,"times":[1649,483,1026],"next_num":3,"trial_type":"ticket-choose","trial_index":40,"time_elapsed":474417,"internal_node_id":"0.0-40.0"},{"result":146,"points":2,"place":1,"phase":0,"sequence":21,"times":[738,636,906],"next_num":3,"trial_type":"ticket-choose","trial_index":41,"time_elapsed":479054,"internal_node_id":"0.0-41.0"},{"result":124,"points":3,"place":0,"phase":0,"sequence":22,"times":[1933,511,544,877],"next_num":4,"trial_type":"ticket-choose","trial_index":42,"time_elapsed":485324,"internal_node_id":"0.0-42.0"},{"result":142,"points":3,"place":0,"phase":0,"sequence":23,"times":[935],"next_num":1,"trial_type":"ticket-choose","trial_index":43,"time_elapsed":488273,"internal_node_id":"0.0-43.0"},{"result":155,"points":1,"place":2,"phase":0,"sequence":24,"times":[1690],"next_num":1,"trial_type":"ticket-choose","trial_index":44,"time_elapsed":491989,"internal_node_id":"0.0-44.0"},{"result":146,"points":2,"place":1,"phase":0,"sequence":25,"times":[1093,486,876],"next_num":3,"trial_type":"ticket-choose","trial_index":45,"time_elapsed":496627,"internal_node_id":"0.0-45.0"},{"result":156,"points":1,"place":2,"phase":0,"sequence":26,"times":[990],"next_num":1,"trial_type":"ticket-choose","trial_index":46,"time_elapsed":499425,"internal_node_id":"0.0-46.0"},{"result":131,"points":2,"place":1,"phase":0,"sequence":27,"times":[951,519,923],"next_num":3,"trial_type":"ticket-choose","trial_index":47,"time_elapsed":504047,"internal_node_id":"0.0-47.0"},{"result":154,"points":2,"place":1,"phase":0,"sequence":28,"times":[900,527,519,534,550,573,897],"next_num":7,"trial_type":"ticket-choose","trial_index":48,"time_elapsed":511706,"internal_node_id":"0.0-48.0"},{"result":146,"points":2,"place":1,"phase":0,"sequence":29,"times":[1439,516,527,542,557,550,861],"next_num":7,"trial_type":"ticket-choose","trial_index":49,"time_elapsed":519754,"internal_node_id":"0.0-49.0"},{"result":121,"points":3,"place":0,"phase":0,"sequence":30,"times":[1381],"next_num":1,"trial_type":"ticket-choose","trial_index":50,"time_elapsed":523153,"internal_node_id":"0.0-50.0"},{"result":136,"points":2,"place":1,"phase":0,"sequence":31,"times":[1508,501,860],"next_num":3,"trial_type":"ticket-choose","trial_index":51,"time_elapsed":528212,"internal_node_id":"0.0-51.0"},{"result":146,"points":2,"place":1,"phase":0,"sequence":32,"times":[1062,517,543,532,668,542,1014],"next_num":7,"trial_type":"ticket-choose","trial_index":52,"time_elapsed":536072,"internal_node_id":"0.0-52.0"},{"result":158,"points":1,"place":3,"phase":0,"sequence":33,"times":[2492,518,964],"next_num":3,"trial_type":"ticket-choose","trial_index":53,"time_elapsed":542356,"internal_node_id":"0.0-53.0"},{"result":146,"points":1,"place":2,"phase":0,"sequence":34,"times":[1557,861],"next_num":2,"trial_type":"ticket-choose","trial_index":54,"time_elapsed":546746,"internal_node_id":"0.0-54.0"},{"result":154,"points":2,"place":1,"phase":0,"sequence":35,"times":[1324,520,560,574,1070],"next_num":5,"trial_type":"ticket-choose","trial_index":55,"time_elapsed":553753,"internal_node_id":"0.0-55.0"},{"result":154,"points":2,"place":1,"phase":0,"sequence":36,"times":[2035,526,542,515,494,548,918],"next_num":7,"trial_type":"ticket-choose","trial_index":56,"time_elapsed":566193,"internal_node_id":"0.0-56.0"},{"result":124,"points":3,"place":0,"phase":0,"sequence":37,"times":[3595],"next_num":1,"trial_type":"ticket-choose","trial_index":57,"time_elapsed":571765,"internal_node_id":"0.0-57.0"},{"result":154,"points":2,"place":1,"phase":0,"sequence":38,"times":[1203,495,870],"next_num":3,"trial_type":"ticket-choose","trial_index":58,"time_elapsed":576561,"internal_node_id":"0.0-58.0"},{"result":159,"points":2,"place":1,"phase":0,"sequence":39,"times":[742,526,1106],"next_num":3,"trial_type":"ticket-choose","trial_index":59,"time_elapsed":581637,"internal_node_id":"0.0-59.0"},{"result":137,"points":3,"place":0,"phase":0,"sequence":40,"times":[1231],"next_num":1,"trial_type":"ticket-choose","trial_index":60,"time_elapsed":584635,"internal_node_id":"0.0-60.0"},{"result":105,"points":3,"place":0,"phase":0,"sequence":41,"times":[2014,1039,500,502,885],"next_num":5,"trial_type":"ticket-choose","trial_index":61,"time_elapsed":592294,"internal_node_id":"0.0-61.0"},{"result":136,"points":2,"place":1,"phase":0,"sequence":42,"times":[4047,518,492,630,558,565,907],"next_num":7,"trial_type":"ticket-choose","trial_index":62,"time_elapsed":603146,"internal_node_id":"0.0-62.0"},{"result":117,"points":3,"place":0,"phase":0,"sequence":43,"times":[1605],"next_num":1,"trial_type":"ticket-choose","trial_index":63,"time_elapsed":606494,"internal_node_id":"0.0-63.0"},{"result":154,"points":2,"place":1,"phase":0,"sequence":44,"times":[1339,558,1137],"next_num":3,"trial_type":"ticket-choose","trial_index":64,"time_elapsed":612357,"internal_node_id":"0.0-64.0"},{"result":149,"points":2,"place":1,"phase":0,"sequence":45,"times":[934,499,926],"next_num":3,"trial_type":"ticket-choose","trial_index":65,"time_elapsed":616898,"internal_node_id":"0.0-65.0"},{"result":135,"points":3,"place":0,"phase":0,"sequence":46,"times":[1364,604,949],"next_num":3,"trial_type":"ticket-choose","trial_index":66,"time_elapsed":625476,"internal_node_id":"0.0-66.0"},{"result":136,"points":2,"place":1,"phase":0,"sequence":47,"times":[1140,518,821],"next_num":3,"trial_type":"ticket-choose","trial_index":67,"time_elapsed":630105,"internal_node_id":"0.0-67.0"},{"result":154,"points":2,"place":1,"phase":0,"sequence":48,"times":[1053,485,532,526,605,534,853],"next_num":7,"trial_type":"ticket-choose","trial_index":68,"time_elapsed":637826,"internal_node_id":"0.0-68.0"},{"result":116,"points":3,"place":0,"phase":0,"sequence":49,"times":[1043,566,918],"next_num":3,"trial_type":"ticket-choose","trial_index":69,"time_elapsed":642741,"internal_node_id":"0.0-69.0"},{"responses":[{"value":1,"offby":0,"category":"$90 - $120","category_index":0},{"value":3,"offby":0,"category":"$121 - $145","category_index":1},{"value":4,"offby":1,"category":"$146 - $170","category_index":2},{"value":4,"offby":-2,"category":"$171 - $195","category_index":3},{"value":4,"offby":0,"category":"$196 - $220","category_index":4},{"value":3,"offby":1,"category":"$221 - $245","category_index":5},{"value":1,"offby":0,"category":"$246 - $270","category_index":6}],"phase":0,"number":1,"trial_type":"bar-choose","trial_index":70,"time_elapsed":677965,"internal_node_id":"0.0-70.0"},{"rt":28580,"url":"\/tickets\/utils\/start2.html","trial_type":"html","trial_index":71,"time_elapsed":707732,"internal_node_id":"0.0-71.0"},{"trial_type":"number-animation","trial_index":72,"time_elapsed":715553,"internal_node_id":"0.0-72.0"},{"phase":1,"sequence":0,"avg":181,"response":178,"trial_type":"training_avg","trial_index":73,"time_elapsed":721115,"internal_node_id":"0.0-73.0"},{"trial_type":"number-animation","trial_index":74,"time_elapsed":728049,"internal_node_id":"0.0-74.0"},{"phase":1,"sequence":1,"avg":188,"response":181,"trial_type":"training_avg","trial_index":75,"time_elapsed":734196,"internal_node_id":"0.0-75.0"},{"trial_type":"number-animation","trial_index":76,"time_elapsed":741729,"internal_node_id":"0.0-76.0"},{"phase":1,"sequence":2,"avg":188,"response":185,"trial_type":"training_avg","trial_index":77,"time_elapsed":749194,"internal_node_id":"0.0-77.0"},{"trial_type":"number-animation","trial_index":78,"time_elapsed":756016,"internal_node_id":"0.0-78.0"},{"phase":1,"sequence":3,"avg":177,"response":177,"trial_type":"training_avg","trial_index":79,"time_elapsed":763271,"internal_node_id":"0.0-79.0"},{"trial_type":"number-animation","trial_index":80,"time_elapsed":770264,"internal_node_id":"0.0-80.0"},{"phase":1,"sequence":4,"avg":182,"response":180,"trial_type":"training_avg","trial_index":81,"time_elapsed":775920,"internal_node_id":"0.0-81.0"},{"responses":[{"value":1,"offby":1,"category":"$106 - $134","category_index":0},{"value":3,"offby":2,"category":"$135 - $150","category_index":1},{"value":3,"offby":0,"category":"$151 - $165","category_index":2},{"value":4,"offby":-2,"category":"$166 - $180","category_index":3},{"value":4,"offby":-2,"category":"$181 - $195","category_index":4},{"value":3,"offby":0,"category":"$196 - $210","category_index":5},{"value":1,"offby":0,"category":"$211 - $225","category_index":6}],"phase":1,"number":0,"trial_type":"bar-choose","trial_index":82,"time_elapsed":798180,"internal_node_id":"0.0-82.0"},{"rt":4771,"url":"\/tickets\/utils\/testing2.html","trial_type":"html","trial_index":83,"time_elapsed":805185,"internal_node_id":"0.0-83.0"},{"phase":1,"order":[0,39,46,7,32,4,12,44,23,22,25,1,30,10,16,27,40,18,28,21,11,3,47,24,35,2,38,41,15,6,29,17,5,37,49,45,14,26,9,48,33,42,20,31,8,36,43,19,13,34],"trial_type":"store_order","trial_index":84,"time_elapsed":806190,"internal_node_id":"0.0-84.0"},{"result":188,"points":1,"place":4,"phase":1,"sequence":0,"times":[3875,548,565,534,580,550,534,550,582,1500],"next_num":10,"trial_type":"ticket-choose","trial_index":85,"time_elapsed":845748,"internal_node_id":"0.0-85.0"},{"result":186,"points":1,"place":4,"phase":1,"sequence":1,"times":[1400,722,563,526,550,638,551,630,580,893],"next_num":10,"trial_type":"ticket-choose","trial_index":86,"time_elapsed":856631,"internal_node_id":"0.0-86.0"},{"result":157,"points":3,"place":0,"phase":1,"sequence":2,"times":[1371],"next_num":1,"trial_type":"ticket-choose","trial_index":87,"time_elapsed":860173,"internal_node_id":"0.0-87.0"},{"result":143,"points":3,"place":0,"phase":1,"sequence":3,"times":[973,574,566,662,892],"next_num":5,"trial_type":"ticket-choose","trial_index":88,"time_elapsed":866889,"internal_node_id":"0.0-88.0"},{"result":150,"points":3,"place":0,"phase":1,"sequence":4,"times":[1127],"next_num":1,"trial_type":"ticket-choose","trial_index":89,"time_elapsed":869783,"internal_node_id":"0.0-89.0"},{"result":154,"points":2,"place":1,"phase":1,"sequence":5,"times":[1755,903],"next_num":2,"trial_type":"ticket-choose","trial_index":90,"time_elapsed":878715,"internal_node_id":"0.0-90.0"},{"result":158,"points":2,"place":1,"phase":1,"sequence":6,"times":[1158,530,518,564,613,531,812],"next_num":7,"trial_type":"ticket-choose","trial_index":91,"time_elapsed":886623,"internal_node_id":"0.0-91.0"},{"result":148,"points":3,"place":0,"phase":1,"sequence":7,"times":[1274],"next_num":1,"trial_type":"ticket-choose","trial_index":92,"time_elapsed":889640,"internal_node_id":"0.0-92.0"},{"result":156,"points":3,"place":0,"phase":1,"sequence":8,"times":[963],"next_num":1,"trial_type":"ticket-choose","trial_index":93,"time_elapsed":892562,"internal_node_id":"0.0-93.0"},{"result":167,"points":2,"place":1,"phase":1,"sequence":9,"times":[1404,517,519,535,518,523,926],"next_num":7,"trial_type":"ticket-choose","trial_index":94,"time_elapsed":900643,"internal_node_id":"0.0-94.0"},{"result":163,"points":1,"place":2,"phase":1,"sequence":10,"times":[946,854],"next_num":2,"trial_type":"ticket-choose","trial_index":95,"time_elapsed":904342,"internal_node_id":"0.0-95.0"},{"result":163,"points":2,"place":1,"phase":1,"sequence":11,"times":[820,493,782],"next_num":3,"trial_type":"ticket-choose","trial_index":96,"time_elapsed":908571,"internal_node_id":"0.0-96.0"},{"result":169,"points":2,"place":1,"phase":1,"sequence":12,"times":[1156,556,854],"next_num":3,"trial_type":"ticket-choose","trial_index":97,"time_elapsed":913284,"internal_node_id":"0.0-97.0"},{"result":157,"points":3,"place":0,"phase":1,"sequence":13,"times":[668,605,809],"next_num":3,"trial_type":"ticket-choose","trial_index":98,"time_elapsed":918010,"internal_node_id":"0.0-98.0"},{"result":159,"points":1,"place":2,"phase":1,"sequence":14,"times":[1053,846],"next_num":2,"trial_type":"ticket-choose","trial_index":99,"time_elapsed":921825,"internal_node_id":"0.0-99.0"},{"result":167,"points":2,"place":1,"phase":1,"sequence":15,"times":[775,470,534,550,2280],"next_num":5,"trial_type":"ticket-choose","trial_index":100,"time_elapsed":929299,"internal_node_id":"0.0-100.0"},{"result":163,"points":2,"place":1,"phase":1,"sequence":16,"times":[1115,493,566,534,602,542,1085],"next_num":7,"trial_type":"ticket-choose","trial_index":101,"time_elapsed":937793,"internal_node_id":"0.0-101.0"},{"result":158,"points":2,"place":1,"phase":1,"sequence":17,"times":[1473,494,518,542,516,564,888],"next_num":7,"trial_type":"ticket-choose","trial_index":102,"time_elapsed":945828,"internal_node_id":"0.0-102.0"},{"result":163,"points":2,"place":1,"phase":1,"sequence":18,"times":[1092,503,877],"next_num":3,"trial_type":"ticket-choose","trial_index":103,"time_elapsed":950491,"internal_node_id":"0.0-103.0"},{"result":159,"points":3,"place":0,"phase":1,"sequence":19,"times":[790],"next_num":1,"trial_type":"ticket-choose","trial_index":104,"time_elapsed":953003,"internal_node_id":"0.0-104.0"},{"result":158,"points":3,"place":0,"phase":1,"sequence":20,"times":[703,543,567,542,582,956],"next_num":6,"trial_type":"ticket-choose","trial_index":105,"time_elapsed":959659,"internal_node_id":"0.0-105.0"},{"result":155,"points":2,"place":1,"phase":1,"sequence":21,"times":[619,501,840],"next_num":3,"trial_type":"ticket-choose","trial_index":106,"time_elapsed":964056,"internal_node_id":"0.0-106.0"},{"result":163,"points":2,"place":1,"phase":1,"sequence":22,"times":[645,638,894],"next_num":3,"trial_type":"ticket-choose","trial_index":107,"time_elapsed":968382,"internal_node_id":"0.0-107.0"},{"result":163,"points":2,"place":1,"phase":1,"sequence":23,"times":[829,510,533,573,590,606,1000],"next_num":7,"trial_type":"ticket-choose","trial_index":108,"time_elapsed":976846,"internal_node_id":"0.0-108.0"},{"result":158,"points":2,"place":1,"phase":1,"sequence":24,"times":[945,640,910],"next_num":3,"trial_type":"ticket-choose","trial_index":109,"time_elapsed":981843,"internal_node_id":"0.0-109.0"},{"result":152,"points":3,"place":0,"phase":1,"sequence":25,"times":[1256],"next_num":1,"trial_type":"ticket-choose","trial_index":110,"time_elapsed":985190,"internal_node_id":"0.0-110.0"},{"result":163,"points":3,"place":0,"phase":1,"sequence":26,"times":[876,509,511,511,590,543,550,948],"next_num":8,"trial_type":"ticket-choose","trial_index":111,"time_elapsed":993622,"internal_node_id":"0.0-111.0"},{"result":167,"points":2,"place":1,"phase":1,"sequence":27,"times":[1195,519,511,516,604,550,902],"next_num":7,"trial_type":"ticket-choose","trial_index":112,"time_elapsed":1001421,"internal_node_id":"0.0-112.0"},{"result":163,"points":2,"place":1,"phase":1,"sequence":28,"times":[1213,559,575,558,540,511,961],"next_num":7,"trial_type":"ticket-choose","trial_index":113,"time_elapsed":1009275,"internal_node_id":"0.0-113.0"},{"result":167,"points":2,"place":1,"phase":1,"sequence":29,"times":[1327,887],"next_num":2,"trial_type":"ticket-choose","trial_index":114,"time_elapsed":1013395,"internal_node_id":"0.0-114.0"},{"result":156,"points":3,"place":0,"phase":1,"sequence":30,"times":[754,534,718,511,510,542,710,2678,526,629],"next_num":10,"trial_type":"ticket-choose","trial_index":115,"time_elapsed":1025309,"internal_node_id":"0.0-115.0"},{"result":165,"points":2,"place":1,"phase":1,"sequence":31,"times":[1191,527,790],"next_num":3,"trial_type":"ticket-choose","trial_index":116,"time_elapsed":1029928,"internal_node_id":"0.0-116.0"},{"result":158,"points":2,"place":1,"phase":1,"sequence":32,"times":[1157,566,879],"next_num":3,"trial_type":"ticket-choose","trial_index":117,"time_elapsed":1034816,"internal_node_id":"0.0-117.0"},{"result":161,"points":3,"place":0,"phase":1,"sequence":33,"times":[966],"next_num":1,"trial_type":"ticket-choose","trial_index":118,"time_elapsed":1037505,"internal_node_id":"0.0-118.0"},{"result":150,"points":3,"place":0,"phase":1,"sequence":34,"times":[1073,894],"next_num":2,"trial_type":"ticket-choose","trial_index":119,"time_elapsed":1041701,"internal_node_id":"0.0-119.0"},{"result":167,"points":2,"place":1,"phase":1,"sequence":35,"times":[950,597,935],"next_num":3,"trial_type":"ticket-choose","trial_index":120,"time_elapsed":1046308,"internal_node_id":"0.0-120.0"},{"result":169,"points":1,"place":3,"phase":1,"sequence":36,"times":[802,542,1215],"next_num":3,"trial_type":"ticket-choose","trial_index":121,"time_elapsed":1051228,"internal_node_id":"0.0-121.0"},{"result":163,"points":2,"place":1,"phase":1,"sequence":37,"times":[674,506,544,622,518,534,870],"next_num":7,"trial_type":"ticket-choose","trial_index":122,"time_elapsed":1058719,"internal_node_id":"0.0-122.0"},{"result":152,"points":3,"place":0,"phase":1,"sequence":38,"times":[1576,510,550,838],"next_num":4,"trial_type":"ticket-choose","trial_index":123,"time_elapsed":1065506,"internal_node_id":"0.0-123.0"},{"result":163,"points":2,"place":1,"phase":1,"sequence":39,"times":[1231,470,897],"next_num":3,"trial_type":"ticket-choose","trial_index":124,"time_elapsed":1070206,"internal_node_id":"0.0-124.0"},{"result":158,"points":2,"place":1,"phase":1,"sequence":40,"times":[894,535,526,534,654,582,849],"next_num":7,"trial_type":"ticket-choose","trial_index":125,"time_elapsed":1078090,"internal_node_id":"0.0-125.0"},{"result":158,"points":2,"place":1,"phase":1,"sequence":41,"times":[1176,495,895],"next_num":3,"trial_type":"ticket-choose","trial_index":126,"time_elapsed":1082822,"internal_node_id":"0.0-126.0"},{"result":156,"points":3,"place":0,"phase":1,"sequence":42,"times":[794,462,758,577,549,569,1368,766,904,704],"next_num":10,"trial_type":"ticket-choose","trial_index":127,"time_elapsed":1094481,"internal_node_id":"0.0-127.0"},{"result":155,"points":2,"place":1,"phase":1,"sequence":43,"times":[2649,966],"next_num":2,"trial_type":"ticket-choose","trial_index":128,"time_elapsed":1099997,"internal_node_id":"0.0-128.0"},{"result":153,"points":3,"place":0,"phase":1,"sequence":44,"times":[770,509,1129,526,549,505,526,1200,672,599],"next_num":10,"trial_type":"ticket-choose","trial_index":129,"time_elapsed":1110721,"internal_node_id":"0.0-129.0"},{"result":185,"points":1,"place":4,"phase":1,"sequence":45,"times":[1082,551,520,553,557,521,541,593,526,616],"next_num":10,"trial_type":"ticket-choose","trial_index":130,"time_elapsed":1121081,"internal_node_id":"0.0-130.0"},{"result":169,"points":1,"place":2,"phase":1,"sequence":46,"times":[1270,485,501,545,573,542,775,1542],"next_num":8,"trial_type":"ticket-choose","trial_index":131,"time_elapsed":1133259,"internal_node_id":"0.0-131.0"},{"result":158,"points":2,"place":1,"phase":1,"sequence":47,"times":[1614,550,582,542,1999,470,854],"next_num":7,"trial_type":"ticket-choose","trial_index":132,"time_elapsed":1143144,"internal_node_id":"0.0-132.0"},{"result":158,"points":2,"place":1,"phase":1,"sequence":48,"times":[2019,500,907],"next_num":3,"trial_type":"ticket-choose","trial_index":133,"time_elapsed":1149832,"internal_node_id":"0.0-133.0"},{"result":153,"points":3,"place":0,"phase":1,"sequence":49,"times":[1003,479,726,615,518,543,527,798,743,596],"next_num":10,"trial_type":"ticket-choose","trial_index":134,"time_elapsed":1160372,"internal_node_id":"0.0-134.0"},{"responses":[{"value":1,"offby":1,"category":"$106 - $134","category_index":0},{"value":3,"offby":2,"category":"$135 - $150","category_index":1},{"value":5,"offby":2,"category":"$151 - $165","category_index":2},{"value":5,"offby":-1,"category":"$166 - $180","category_index":3},{"value":4,"offby":-2,"category":"$181 - $195","category_index":4},{"value":2,"offby":-1,"category":"$196 - $210","category_index":5},{"value":0,"offby":-1,"category":"$211 - $225","category_index":6}],"phase":1,"number":1,"trial_type":"bar-choose","trial_index":135,"time_elapsed":1186086,"internal_node_id":"0.0-135.0"},{"special_comment":"notreally","trial_type":"special_sequence","trial_index":136,"time_elapsed":1201518,"internal_node_id":"0.0-136.0"},{"during":"Nothing","bonus":296,"trial_type":"final","trial_index":137,"time_elapsed":1226507,"internal_node_id":"0.0-137.0"}],"bonus":296}