{"start_time":"2017-02-22 10:09:01","end_time":"2017-02-22 10:36:42","points_phase0":106,"points_phase1":96,"phase_order":0,"age":35,"gender":"f","tries":1,"during":"Nothing","worker_id":"A19F72FI7KBTAT","assignment_id":"3M23Y66PO30ON2GZDRCSHWW2PSU6SS","data":[{"rt":5112,"url":"\/tickets\/utils\/consent.html","trial_type":"html","trial_index":0,"time_elapsed":5411,"internal_node_id":"0.0-0.0"},{"age":35,"gender":"f","trial_type":"age","trial_index":1,"time_elapsed":11377,"internal_node_id":"0.0-1.0"},{"worker_id":"A19F72FI7KBTAT","trial_type":"workerid","trial_index":2,"time_elapsed":15747,"internal_node_id":"0.0-2.0"},{"tries":1,"trial_type":"instructions_check","trial_index":3,"time_elapsed":39800,"internal_node_id":"0.0-3.0"},{"rt":115888,"url":"\/tickets\/utils\/start.html","trial_type":"html","trial_index":4,"time_elapsed":156803,"internal_node_id":"0.0-4.0"},{"trial_type":"number-animation","trial_index":5,"time_elapsed":170837,"internal_node_id":"0.0-5.0"},{"phase":0,"sequence":0,"avg":181,"response":172,"trial_type":"training_avg","trial_index":6,"time_elapsed":179882,"internal_node_id":"0.0-6.0"},{"trial_type":"number-animation","trial_index":7,"time_elapsed":316380,"internal_node_id":"0.0-7.0"},{"phase":0,"sequence":1,"avg":188,"response":180,"trial_type":"training_avg","trial_index":8,"time_elapsed":324088,"internal_node_id":"0.0-8.0"},{"trial_type":"number-animation","trial_index":9,"time_elapsed":377384,"internal_node_id":"0.0-9.0"},{"phase":0,"sequence":2,"avg":188,"response":180,"trial_type":"training_avg","trial_index":10,"time_elapsed":389558,"internal_node_id":"0.0-10.0"},{"trial_type":"number-animation","trial_index":11,"time_elapsed":416079,"internal_node_id":"0.0-11.0"},{"phase":0,"sequence":3,"avg":177,"response":178,"trial_type":"training_avg","trial_index":12,"time_elapsed":426089,"internal_node_id":"0.0-12.0"},{"trial_type":"number-animation","trial_index":13,"time_elapsed":449405,"internal_node_id":"0.0-13.0"},{"phase":0,"sequence":4,"avg":182,"response":180,"trial_type":"training_avg","trial_index":14,"time_elapsed":457611,"internal_node_id":"0.0-14.0"},{"responses":[{"value":0,"offby":0,"category":"$106 - $134","category_index":0},{"value":0,"offby":-1,"category":"$135 - $150","category_index":1},{"value":2,"offby":-1,"category":"$151 - $165","category_index":2},{"value":6,"offby":0,"category":"$166 - $180","category_index":3},{"value":10,"offby":4,"category":"$181 - $195","category_index":4},{"value":2,"offby":-1,"category":"$196 - $210","category_index":5},{"value":0,"offby":-1,"category":"$211 - $225","category_index":6}],"phase":0,"number":0,"trial_type":"bar-choose","trial_index":15,"time_elapsed":495112,"internal_node_id":"0.0-15.0"},{"rt":14874,"url":"\/tickets\/\/utils\/testing.html","trial_type":"html","trial_index":16,"time_elapsed":511087,"internal_node_id":"0.0-16.0"},{"phase":0,"order":[7,10,25,5,12,22,39,8,16,46,19,34,23,49,47,35,48,43,26,0,28,40,41,1,29,37,20,2,9,21,44,6,30,38,3,24,32,36,17,11,13,33,4,45,31,14,15,27,18,42],"trial_type":"store_order","trial_index":17,"time_elapsed":512089,"internal_node_id":"0.0-17.0"},{"result":165,"points":2,"place":1,"phase":0,"sequence":-1,"prices":[184,180,224,165,181,199,185,193,218,126],"times":[1523,1219,1173,1159],"next_num":4,"trial_type":"ticket-choose","trial_index":18,"time_elapsed":519987,"internal_node_id":"0.0-18.0"},{"rt":19185,"url":"\/tickets\/utils\/testing_after.html","trial_type":"html","trial_index":19,"time_elapsed":540275,"internal_node_id":"0.0-19.0"},{"result":163,"points":2,"place":1,"phase":0,"sequence":0,"prices":[175,186,176,224,179,187,163,165,153,210],"times":[2274,916,1081,862,901,800,1370],"next_num":7,"trial_type":"ticket-choose","trial_index":20,"time_elapsed":552082,"internal_node_id":"0.0-20.0"},{"result":167,"points":2,"place":1,"phase":0,"sequence":1,"prices":[175,186,167,225,179,187,178,169,209,153],"times":[1329,793,1112],"next_num":3,"trial_type":"ticket-choose","trial_index":21,"time_elapsed":558358,"internal_node_id":"0.0-21.0"},{"result":156,"points":3,"place":0,"phase":0,"sequence":2,"prices":[156,201,162,166,185,214,165,202,204,179],"times":[1101],"next_num":1,"trial_type":"ticket-choose","trial_index":22,"time_elapsed":562933,"internal_node_id":"0.0-22.0"},{"result":163,"points":2,"place":1,"phase":0,"sequence":3,"prices":[175,187,176,209,180,188,163,165,154,208],"times":[986,653,690,638,709,661,1143],"next_num":7,"trial_type":"ticket-choose","trial_index":23,"time_elapsed":571697,"internal_node_id":"0.0-23.0"},{"result":167,"points":2,"place":1,"phase":0,"sequence":4,"prices":[174,186,178,217,181,188,167,168,208,156],"times":[2344,546,612,612,621,621,1618],"next_num":7,"trial_type":"ticket-choose","trial_index":24,"time_elapsed":581926,"internal_node_id":"0.0-24.0"},{"result":165,"points":1,"place":2,"phase":0,"sequence":5,"prices":[176,187,177,225,181,187,158,165,208,153],"times":[957,668,622,847,651,639,620,2147],"next_num":8,"trial_type":"ticket-choose","trial_index":25,"time_elapsed":592627,"internal_node_id":"0.0-25.0"},{"result":165,"points":3,"place":0,"phase":0,"sequence":6,"prices":[189,167,180,197,165,168,172,213,178,171],"times":[1127,637,567,721,1111],"next_num":5,"trial_type":"ticket-choose","trial_index":26,"time_elapsed":599666,"internal_node_id":"0.0-26.0"},{"result":156,"points":3,"place":0,"phase":0,"sequence":7,"prices":[174,186,167,211,181,188,178,168,208,156],"times":[911,629,2238,543,621,620,566,2244,725,752],"next_num":10,"trial_type":"ticket-choose","trial_index":27,"time_elapsed":613452,"internal_node_id":"0.0-27.0"},{"result":158,"points":2,"place":1,"phase":0,"sequence":8,"prices":[175,186,158,211,180,187,177,166,209,153],"times":[13253,649,1119],"next_num":3,"trial_type":"ticket-choose","trial_index":28,"time_elapsed":631052,"internal_node_id":"0.0-28.0"},{"result":158,"points":3,"place":0,"phase":0,"sequence":9,"prices":[210,184,226,193,215,158,199,175,176,208],"times":[1021,597,566,648,589,1080],"next_num":6,"trial_type":"ticket-choose","trial_index":29,"time_elapsed":638625,"internal_node_id":"0.0-29.0"},{"result":158,"points":2,"place":1,"phase":0,"sequence":10,"prices":[176,185,158,217,180,186,177,166,209,154],"times":[835,576,1069],"next_num":3,"trial_type":"ticket-choose","trial_index":30,"time_elapsed":643357,"internal_node_id":"0.0-30.0"},{"result":155,"points":2,"place":1,"phase":0,"sequence":11,"prices":[181,155,148,161,168,187,172,199,176,194],"times":[758,979],"next_num":2,"trial_type":"ticket-choose","trial_index":31,"time_elapsed":647121,"internal_node_id":"0.0-31.0"},{"result":158,"points":2,"place":1,"phase":0,"sequence":12,"prices":[176,185,177,218,180,186,158,166,209,154],"times":[753,706,558,661,575,605,1213],"next_num":7,"trial_type":"ticket-choose","trial_index":32,"time_elapsed":655241,"internal_node_id":"0.0-32.0"},{"result":184,"points":0,"place":7,"phase":0,"sequence":13,"prices":[183,163,185,180,166,148,160,186,176,184],"times":[788,729,496,497,854,659,1125,629,1363,875],"next_num":10,"trial_type":"ticket-choose","trial_index":33,"time_elapsed":667180,"internal_node_id":"0.0-33.0"},{"result":152,"points":3,"place":0,"phase":0,"sequence":14,"prices":[200,181,203,152,175,171,160,154,176,191],"times":[820,697,699,972],"next_num":4,"trial_type":"ticket-choose","trial_index":34,"time_elapsed":672757,"internal_node_id":"0.0-34.0"},{"result":154,"points":2,"place":1,"phase":0,"sequence":15,"prices":[168,154,172,185,195,144,184,211,177,227],"times":[793,1095],"next_num":2,"trial_type":"ticket-choose","trial_index":35,"time_elapsed":676582,"internal_node_id":"0.0-35.0"},{"result":147,"points":3,"place":0,"phase":0,"sequence":16,"prices":[181,215,169,147,182,193,177,184,176,179],"times":[748,589,834,973],"next_num":4,"trial_type":"ticket-choose","trial_index":36,"time_elapsed":682104,"internal_node_id":"0.0-36.0"},{"result":157,"points":3,"place":0,"phase":0,"sequence":17,"prices":[201,187,157,184,198,179,188,185,178,170],"times":[783,620,1063],"next_num":3,"trial_type":"ticket-choose","trial_index":37,"time_elapsed":686889,"internal_node_id":"0.0-37.0"},{"result":158,"points":2,"place":1,"phase":0,"sequence":18,"prices":[152,200,158,173,182,207,161,202,204,180],"times":[578,722,1367],"next_num":3,"trial_type":"ticket-choose","trial_index":38,"time_elapsed":691860,"internal_node_id":"0.0-38.0"},{"result":163,"points":2,"place":1,"phase":0,"sequence":19,"prices":[176,186,163,214,179,187,176,166,153,208],"times":[742,669,948],"next_num":3,"trial_type":"ticket-choose","trial_index":39,"time_elapsed":696376,"internal_node_id":"0.0-39.0"},{"result":185,"points":1,"place":4,"phase":0,"sequence":20,"prices":[169,196,170,184,187,211,171,201,202,185],"times":[1088,2308,628,645,590,642,631,706,828,801],"next_num":10,"trial_type":"ticket-choose","trial_index":40,"time_elapsed":709094,"internal_node_id":"0.0-40.0"},{"result":150,"points":3,"place":0,"phase":0,"sequence":21,"prices":[189,150,175,160,188,207,158,194,178,199],"times":[878,876],"next_num":2,"trial_type":"ticket-choose","trial_index":41,"time_elapsed":712762,"internal_node_id":"0.0-41.0"},{"result":155,"points":2,"place":1,"phase":0,"sequence":22,"prices":[201,207,155,158,156,165,167,135,178,177],"times":[896,737,980],"next_num":3,"trial_type":"ticket-choose","trial_index":42,"time_elapsed":717677,"internal_node_id":"0.0-42.0"},{"result":165,"points":1,"place":2,"phase":0,"sequence":23,"prices":[175,187,163,209,180,188,176,165,154,208],"times":[933,566,947,608,730,674,677,1034],"next_num":8,"trial_type":"ticket-choose","trial_index":43,"time_elapsed":727267,"internal_node_id":"0.0-43.0"},{"result":150,"points":3,"place":0,"phase":0,"sequence":24,"prices":[150,185,154,161,173,199,155,188,191,168],"times":[1051],"next_num":1,"trial_type":"ticket-choose","trial_index":44,"time_elapsed":730057,"internal_node_id":"0.0-44.0"},{"result":163,"points":2,"place":1,"phase":0,"sequence":25,"prices":[198,193,169,163,202,182,152,164,177,171],"times":[838,665,724,999],"next_num":4,"trial_type":"ticket-choose","trial_index":45,"time_elapsed":735665,"internal_node_id":"0.0-45.0"},{"result":158,"points":2,"place":1,"phase":0,"sequence":26,"prices":[175,186,177,221,180,187,158,166,209,153],"times":[822,526,597,685,622,663,1123],"next_num":7,"trial_type":"ticket-choose","trial_index":46,"time_elapsed":743692,"internal_node_id":"0.0-46.0"},{"result":153,"points":3,"place":0,"phase":0,"sequence":27,"prices":[174,186,163,212,181,187,176,166,153,209],"times":[806,662,1096,582,551,607,610,651,901],"next_num":9,"trial_type":"ticket-choose","trial_index":47,"time_elapsed":753817,"internal_node_id":"0.0-47.0"},{"result":156,"points":3,"place":0,"phase":0,"sequence":28,"prices":[175,185,167,224,181,186,178,168,208,156],"times":[1671,1227,864,535,598,599,676,839,840,583],"next_num":10,"trial_type":"ticket-choose","trial_index":48,"time_elapsed":766040,"internal_node_id":"0.0-48.0"},{"result":158,"points":2,"place":1,"phase":0,"sequence":29,"prices":[175,186,177,209,181,188,158,167,208,154],"times":[839,550,510,567,583,776,1009],"next_num":7,"trial_type":"ticket-choose","trial_index":49,"time_elapsed":773873,"internal_node_id":"0.0-49.0"},{"result":159,"points":1,"place":2,"phase":0,"sequence":30,"prices":[180,159,149,175,185,141,163,174,178,207],"times":[840,949],"next_num":2,"trial_type":"ticket-choose","trial_index":50,"time_elapsed":777528,"internal_node_id":"0.0-50.0"},{"result":163,"points":2,"place":1,"phase":0,"sequence":31,"prices":[174,186,176,217,181,187,163,166,153,209],"times":[550,583,563,715,645,597,1091],"next_num":7,"trial_type":"ticket-choose","trial_index":51,"time_elapsed":785205,"internal_node_id":"0.0-51.0"},{"result":176,"points":1,"place":4,"phase":0,"sequence":32,"prices":[157,191,165,175,182,203,170,195,200,176],"times":[701,642,1079,636,584,660,601,657,693,815],"next_num":10,"trial_type":"ticket-choose","trial_index":52,"time_elapsed":796093,"internal_node_id":"0.0-52.0"},{"result":168,"points":1,"place":2,"phase":0,"sequence":33,"prices":[168,199,196,198,185,195,227,163,177,166],"times":[905],"next_num":1,"trial_type":"ticket-choose","trial_index":53,"time_elapsed":798754,"internal_node_id":"0.0-53.0"},{"result":163,"points":2,"place":1,"phase":0,"sequence":34,"prices":[175,186,163,211,179,187,176,165,153,210],"times":[1138,555,902],"next_num":3,"trial_type":"ticket-choose","trial_index":54,"time_elapsed":803588,"internal_node_id":"0.0-54.0"},{"result":184,"points":1,"place":4,"phase":0,"sequence":35,"prices":[161,193,175,181,185,224,180,199,218,184],"times":[1184,489,506,581,544,644,661,839,724,705],"next_num":10,"trial_type":"ticket-choose","trial_index":55,"time_elapsed":814174,"internal_node_id":"0.0-55.0"},{"result":161,"points":3,"place":0,"phase":0,"sequence":36,"prices":[161,193,167,187,190,224,174,194,195,188],"times":[896],"next_num":1,"trial_type":"ticket-choose","trial_index":56,"time_elapsed":817114,"internal_node_id":"0.0-56.0"},{"result":154,"points":3,"place":0,"phase":0,"sequence":37,"prices":[188,200,165,172,198,174,177,154,177,180],"times":[734,575,1509,595,613,600,799,1018],"next_num":8,"trial_type":"ticket-choose","trial_index":57,"time_elapsed":826805,"internal_node_id":"0.0-57.0"},{"result":158,"points":2,"place":1,"phase":0,"sequence":38,"prices":[175,186,158,209,181,188,177,167,208,154],"times":[1192,574,1050],"next_num":3,"trial_type":"ticket-choose","trial_index":58,"time_elapsed":831696,"internal_node_id":"0.0-58.0"},{"result":169,"points":1,"place":2,"phase":0,"sequence":39,"prices":[175,187,167,212,179,187,178,169,208,153],"times":[770,554,491,542,604,552,622,1260],"next_num":8,"trial_type":"ticket-choose","trial_index":59,"time_elapsed":840508,"internal_node_id":"0.0-59.0"},{"result":156,"points":3,"place":0,"phase":0,"sequence":40,"prices":[175,185,178,215,181,186,167,168,208,156],"times":[809,460,465,451,560,536,1571,1367,654,629],"next_num":10,"trial_type":"ticket-choose","trial_index":60,"time_elapsed":851722,"internal_node_id":"0.0-60.0"},{"result":159,"points":3,"place":0,"phase":0,"sequence":41,"prices":[159,183,166,168,173,205,167,187,191,170],"times":[919],"next_num":1,"trial_type":"ticket-choose","trial_index":61,"time_elapsed":854451,"internal_node_id":"0.0-61.0"},{"result":163,"points":2,"place":1,"phase":0,"sequence":42,"prices":[176,186,176,210,179,187,163,166,153,208],"times":[706,452,466,739,528,514,1011],"next_num":7,"trial_type":"ticket-choose","trial_index":62,"time_elapsed":862820,"internal_node_id":"0.0-62.0"},{"result":164,"points":3,"place":0,"phase":0,"sequence":43,"prices":[212,192,188,184,167,193,189,164,176,170],"times":[1127,893,460,371,459,473,468,1035],"next_num":8,"trial_type":"ticket-choose","trial_index":63,"time_elapsed":871292,"internal_node_id":"0.0-63.0"},{"result":148,"points":3,"place":0,"phase":0,"sequence":44,"prices":[148,171,150,163,167,220,162,186,187,165],"times":[982],"next_num":1,"trial_type":"ticket-choose","trial_index":64,"time_elapsed":874153,"internal_node_id":"0.0-64.0"},{"result":167,"points":2,"place":1,"phase":0,"sequence":45,"prices":[175,186,178,212,179,187,167,169,209,153],"times":[1119,1190,468,565,519,528,1043],"next_num":7,"trial_type":"ticket-choose","trial_index":65,"time_elapsed":882609,"internal_node_id":"0.0-65.0"},{"result":153,"points":3,"place":0,"phase":0,"sequence":46,"prices":[175,187,178,209,179,187,167,169,208,153],"times":[895,459,474,606,506,592,1135,543,868,544],"next_num":10,"trial_type":"ticket-choose","trial_index":66,"time_elapsed":892910,"internal_node_id":"0.0-66.0"},{"result":186,"points":1,"place":4,"phase":0,"sequence":47,"prices":[168,192,171,178,188,217,172,195,197,186],"times":[863,483,512,553,544,628,662,684,872,683],"next_num":10,"trial_type":"ticket-choose","trial_index":67,"time_elapsed":903039,"internal_node_id":"0.0-67.0"},{"result":158,"points":2,"place":1,"phase":0,"sequence":48,"prices":[176,187,158,210,181,187,177,165,208,153],"times":[944,481,1040],"next_num":3,"trial_type":"ticket-choose","trial_index":68,"time_elapsed":907869,"internal_node_id":"0.0-68.0"},{"result":186,"points":1,"place":4,"phase":0,"sequence":49,"prices":[222,173,202,197,143,205,198,183,178,186],"times":[956,815,1370,600,518,615,613,674,616,676],"next_num":10,"trial_type":"ticket-choose","trial_index":69,"time_elapsed":919002,"internal_node_id":"0.0-69.0"},{"responses":[{"value":0,"offby":0,"category":"$106 - $134","category_index":0},{"value":1,"offby":0,"category":"$135 - $150","category_index":1},{"value":1,"offby":-2,"category":"$151 - $165","category_index":2},{"value":6,"offby":0,"category":"$166 - $180","category_index":3},{"value":6,"offby":0,"category":"$181 - $195","category_index":4},{"value":6,"offby":3,"category":"$196 - $210","category_index":5},{"value":0,"offby":-1,"category":"$211 - $225","category_index":6}],"phase":0,"number":1,"trial_type":"bar-choose","trial_index":70,"time_elapsed":948851,"internal_node_id":"0.0-70.0"},{"rt":10415,"url":"\/tickets\/utils\/start2.html","trial_type":"html","trial_index":71,"time_elapsed":960381,"internal_node_id":"0.0-71.0"},{"trial_type":"number-animation","trial_index":72,"time_elapsed":974445,"internal_node_id":"0.0-72.0"},{"phase":1,"sequence":0,"avg":182,"response":174,"trial_type":"training_avg","trial_index":73,"time_elapsed":981810,"internal_node_id":"0.0-73.0"},{"trial_type":"number-animation","trial_index":74,"time_elapsed":1006044,"internal_node_id":"0.0-74.0"},{"phase":1,"sequence":1,"avg":188,"response":186,"trial_type":"training_avg","trial_index":75,"time_elapsed":1012983,"internal_node_id":"0.0-75.0"},{"trial_type":"number-animation","trial_index":76,"time_elapsed":1020300,"internal_node_id":"0.0-76.0"},{"phase":1,"sequence":2,"avg":176,"response":184,"trial_type":"training_avg","trial_index":77,"time_elapsed":1026460,"internal_node_id":"0.0-77.0"},{"trial_type":"number-animation","trial_index":78,"time_elapsed":1032811,"internal_node_id":"0.0-78.0"},{"phase":1,"sequence":3,"avg":180,"response":164,"trial_type":"training_avg","trial_index":79,"time_elapsed":1037464,"internal_node_id":"0.0-79.0"},{"trial_type":"number-animation","trial_index":80,"time_elapsed":1043664,"internal_node_id":"0.0-80.0"},{"phase":1,"sequence":4,"avg":174,"response":177,"trial_type":"training_avg","trial_index":81,"time_elapsed":1048509,"internal_node_id":"0.0-81.0"},{"responses":[{"value":0,"offby":-1,"category":"$90 - $120","category_index":0},{"value":0,"offby":-3,"category":"$121 - $145","category_index":1},{"value":2,"offby":-1,"category":"$146 - $170","category_index":2},{"value":10,"offby":4,"category":"$171 - $195","category_index":3},{"value":4,"offby":0,"category":"$196 - $220","category_index":4},{"value":4,"offby":2,"category":"$221 - $245","category_index":5},{"value":0,"offby":-1,"category":"$246 - $270","category_index":6}],"phase":1,"number":0,"trial_type":"bar-choose","trial_index":82,"time_elapsed":1064749,"internal_node_id":"0.0-82.0"},{"rt":20733,"url":"\/tickets\/utils\/testing2.html","trial_type":"html","trial_index":83,"time_elapsed":1086592,"internal_node_id":"0.0-83.0"},{"phase":1,"order":[28,20,25,31,33,11,32,3,15,16,24,23,22,19,45,41,34,36,38,27,48,13,17,9,2,14,26,18,0,43,5,39,47,37,21,49,8,40,6,44,46,30,4,12,29,10,1,42,7,35],"trial_type":"store_order","trial_index":84,"time_elapsed":1087596,"internal_node_id":"0.0-84.0"},{"result":189,"points":1,"place":4,"phase":1,"sequence":0,"prices":[157,213,159,187,194,242,161,222,225,189],"times":[1170,489,412,388,472,466,493,540,529,598],"next_num":10,"trial_type":"ticket-choose","trial_index":85,"time_elapsed":1096795,"internal_node_id":"0.0-85.0"},{"result":136,"points":2,"place":1,"phase":1,"sequence":1,"prices":[169,192,174,246,180,195,136,152,238,126],"times":[698,542,487,518,543,576,979],"next_num":7,"trial_type":"ticket-choose","trial_index":86,"time_elapsed":1104322,"internal_node_id":"0.0-86.0"},{"result":132,"points":3,"place":0,"phase":1,"sequence":2,"prices":[132,222,144,153,190,248,151,224,228,179],"times":[931],"next_num":1,"trial_type":"ticket-choose","trial_index":87,"time_elapsed":1106950,"internal_node_id":"0.0-87.0"},{"result":117,"points":3,"place":0,"phase":1,"sequence":3,"prices":[117,161,120,147,153,259,144,191,195,149],"times":[986],"next_num":1,"trial_type":"ticket-choose","trial_index":88,"time_elapsed":1109625,"internal_node_id":"0.0-88.0"},{"result":155,"points":1,"place":2,"phase":1,"sequence":4,"prices":[137,187,152,156,166,231,155,194,202,160],"times":[1010,521,518,614,550,604,948],"next_num":7,"trial_type":"ticket-choose","trial_index":89,"time_elapsed":1117323,"internal_node_id":"0.0-89.0"},{"result":154,"points":2,"place":1,"phase":1,"sequence":5,"prices":[169,194,154,271,178,201,176,158,236,127],"times":[1121,379,1018],"next_num":3,"trial_type":"ticket-choose","trial_index":90,"time_elapsed":1122113,"internal_node_id":"0.0-90.0"},{"result":143,"points":3,"place":0,"phase":1,"sequence":6,"prices":[143,206,153,194,201,267,168,208,210,196],"times":[948],"next_num":1,"trial_type":"ticket-choose","trial_index":91,"time_elapsed":1124721,"internal_node_id":"0.0-91.0"},{"result":241,"points":0,"place":8,"phase":1,"sequence":7,"prices":[170,193,146,268,178,195,172,149,126,241],"times":[950,424,417,443,472,543,466,489,511,608],"next_num":11,"trial_type":"ticket-choose","trial_index":92,"time_elapsed":1134225,"internal_node_id":"0.0-92.0"},{"result":154,"points":2,"place":1,"phase":1,"sequence":8,"prices":[170,193,176,245,178,194,154,159,236,126],"times":[1094,615,670,661,613,606,877],"next_num":7,"trial_type":"ticket-choose","trial_index":93,"time_elapsed":1142320,"internal_node_id":"0.0-93.0"},{"result":152,"points":1,"place":2,"phase":1,"sequence":9,"prices":[171,192,136,265,180,194,174,152,239,127],"times":[651,496,530,604,629,613,652,999],"next_num":8,"trial_type":"ticket-choose","trial_index":94,"time_elapsed":1150595,"internal_node_id":"0.0-94.0"},{"result":142,"points":3,"place":0,"phase":1,"sequence":10,"prices":[142,207,171,182,190,269,180,218,256,188],"times":[1218],"next_num":1,"trial_type":"ticket-choose","trial_index":95,"time_elapsed":1153488,"internal_node_id":"0.0-95.0"},{"result":136,"points":2,"place":1,"phase":1,"sequence":11,"prices":[173,191,174,270,180,193,136,153,239,129],"times":[752,418,418,514,498,365,900],"next_num":7,"trial_type":"ticket-choose","trial_index":96,"time_elapsed":1160518,"internal_node_id":"0.0-96.0"},{"result":136,"points":2,"place":1,"phase":1,"sequence":12,"prices":[172,194,174,243,182,193,136,150,237,126],"times":[3995,1057,467,576,502,636,893],"next_num":7,"trial_type":"ticket-choose","trial_index":97,"time_elapsed":1171777,"internal_node_id":"0.0-97.0"},{"result":152,"points":1,"place":2,"phase":1,"sequence":13,"prices":[172,190,136,270,179,192,174,152,237,129],"times":[1142,504,410,473,502,562,519,963],"next_num":8,"trial_type":"ticket-choose","trial_index":98,"time_elapsed":1180520,"internal_node_id":"0.0-98.0"},{"result":154,"points":2,"place":1,"phase":1,"sequence":14,"prices":[244,203,196,189,154,206,197,149,171,159],"times":[987,387,392,526,814],"next_num":5,"trial_type":"ticket-choose","trial_index":99,"time_elapsed":1186164,"internal_node_id":"0.0-99.0"},{"result":132,"points":1,"place":2,"phase":1,"sequence":15,"prices":[221,234,131,136,132,149,154,90,176,173],"times":[656,458,365,444,728],"next_num":5,"trial_type":"ticket-choose","trial_index":100,"time_elapsed":1191369,"internal_node_id":"0.0-100.0"},{"result":130,"points":2,"place":1,"phase":1,"sequence":16,"prices":[181,130,116,142,157,193,165,218,173,207],"times":[1079,840],"next_num":2,"trial_type":"ticket-choose","trial_index":101,"time_elapsed":1195117,"internal_node_id":"0.0-101.0"},{"result":128,"points":3,"place":0,"phase":1,"sequence":17,"prices":[196,221,149,164,216,167,175,128,176,181],"times":[660,519,497,574,535,654,645,940],"next_num":8,"trial_type":"ticket-choose","trial_index":102,"time_elapsed":1203230,"internal_node_id":"0.0-102.0"},{"result":152,"points":2,"place":1,"phase":1,"sequence":18,"prices":[156,218,212,216,191,210,275,146,174,152],"times":[1286,484,580,468,413,519,514,498,535,847],"next_num":10,"trial_type":"ticket-choose","trial_index":103,"time_elapsed":1213005,"internal_node_id":"0.0-103.0"},{"result":192,"points":1,"place":4,"phase":1,"sequence":19,"prices":[157,205,161,175,197,254,165,210,214,192],"times":[69521,512,403,449,536,528,535,543,622,676],"next_num":10,"trial_type":"ticket-choose","trial_index":104,"time_elapsed":1291627,"internal_node_id":"0.0-104.0"},{"result":172,"points":1,"place":2,"phase":1,"sequence":20,"prices":[182,249,159,114,184,205,175,189,172,178],"times":[59184,487,435,452,512,636,577,674,916],"next_num":9,"trial_type":"ticket-choose","trial_index":105,"time_elapsed":1359449,"internal_node_id":"0.0-105.0"},{"result":154,"points":2,"place":1,"phase":1,"sequence":21,"prices":[170,190,176,251,183,192,154,157,236,131],"times":[2036,515,496,596,530,551,956],"next_num":7,"trial_type":"ticket-choose","trial_index":106,"time_elapsed":1368203,"internal_node_id":"0.0-106.0"},{"result":136,"points":2,"place":1,"phase":1,"sequence":22,"prices":[171,192,136,243,182,195,174,154,236,128],"times":[963,512,971],"next_num":3,"trial_type":"ticket-choose","trial_index":107,"time_elapsed":1372823,"internal_node_id":"0.0-107.0"},{"result":154,"points":2,"place":1,"phase":1,"sequence":23,"prices":[169,191,154,268,183,197,176,155,236,133],"times":[598,776,863],"next_num":3,"trial_type":"ticket-choose","trial_index":108,"time_elapsed":1377299,"internal_node_id":"0.0-108.0"},{"result":146,"points":2,"place":1,"phase":1,"sequence":24,"prices":[168,191,146,252,183,193,172,153,126,238],"times":[990,558,981],"next_num":3,"trial_type":"ticket-choose","trial_index":109,"time_elapsed":1382079,"internal_node_id":"0.0-109.0"},{"result":154,"points":2,"place":1,"phase":1,"sequence":25,"prices":[169,192,176,244,178,194,154,159,237,125],"times":[913,546,581,568,497,526,861],"next_num":7,"trial_type":"ticket-choose","trial_index":110,"time_elapsed":1389507,"internal_node_id":"0.0-110.0"},{"result":124,"points":3,"place":0,"phase":1,"sequence":26,"prices":[124,220,136,165,185,234,143,225,228,179],"times":[1277],"next_num":1,"trial_type":"ticket-choose","trial_index":111,"time_elapsed":1392682,"internal_node_id":"0.0-111.0"},{"result":127,"points":3,"place":0,"phase":1,"sequence":27,"prices":[173,194,136,239,182,200,174,150,236,127],"times":[2422,502,396,474,521,1274,605,544,534,757],"next_num":10,"trial_type":"ticket-choose","trial_index":112,"time_elapsed":1404348,"internal_node_id":"0.0-112.0"},{"result":152,"points":1,"place":2,"phase":1,"sequence":28,"prices":[173,191,146,242,178,194,172,152,126,235],"times":[1436,443,522,401,510,578,566,1039],"next_num":8,"trial_type":"ticket-choose","trial_index":113,"time_elapsed":1413084,"internal_node_id":"0.0-113.0"},{"result":135,"points":3,"place":0,"phase":1,"sequence":29,"prices":[221,193,135,188,217,179,196,190,175,159],"times":[1092,559,1025],"next_num":3,"trial_type":"ticket-choose","trial_index":114,"time_elapsed":1417907,"internal_node_id":"0.0-114.0"},{"result":128,"points":3,"place":0,"phase":1,"sequence":30,"prices":[171,195,172,242,179,196,146,150,128,235],"times":[1185,504,520,551,505,527,598,470,1145],"next_num":9,"trial_type":"ticket-choose","trial_index":115,"time_elapsed":1427368,"internal_node_id":"0.0-115.0"},{"result":162,"points":1,"place":3,"phase":1,"sequence":31,"prices":[197,153,181,215,150,155,164,247,177,162],"times":[983,395,389,518,452,551,595,537,606,589],"next_num":10,"trial_type":"ticket-choose","trial_index":116,"time_elapsed":1436804,"internal_node_id":"0.0-116.0"},{"result":124,"points":3,"place":0,"phase":1,"sequence":32,"prices":[219,183,227,124,176,161,140,129,171,201],"times":[1206,420,771,966],"next_num":4,"trial_type":"ticket-choose","trial_index":117,"time_elapsed":1442597,"internal_node_id":"0.0-117.0"},{"result":158,"points":1,"place":3,"phase":1,"sequence":33,"prices":[216,206,158,145,224,185,124,149,175,162],"times":[686,395,979],"next_num":3,"trial_type":"ticket-choose","trial_index":118,"time_elapsed":1446900,"internal_node_id":"0.0-118.0"},{"result":128,"points":3,"place":0,"phase":1,"sequence":34,"prices":[170,192,174,242,181,196,136,153,236,128],"times":[964,402,652,567,474,543,505,840,637,517],"next_num":10,"trial_type":"ticket-choose","trial_index":119,"time_elapsed":1456636,"internal_node_id":"0.0-119.0"},{"result":146,"points":1,"place":2,"phase":1,"sequence":35,"prices":[186,146,191,179,152,116,140,201,172,187],"times":[1081,1180],"next_num":2,"trial_type":"ticket-choose","trial_index":120,"time_elapsed":1460960,"internal_node_id":"0.0-120.0"},{"result":133,"points":3,"place":0,"phase":1,"sequence":36,"prices":[168,192,154,237,182,196,176,156,235,133],"times":[1171,574,667,536,410,512,543,465,541,545],"next_num":10,"trial_type":"ticket-choose","trial_index":121,"time_elapsed":1470736,"internal_node_id":"0.0-121.0"},{"result":136,"points":2,"place":1,"phase":1,"sequence":37,"prices":[198,119,169,141,195,233,136,208,177,217],"times":[1260,450,482,466,528,497,902],"next_num":7,"trial_type":"ticket-choose","trial_index":122,"time_elapsed":1478273,"internal_node_id":"0.0-122.0"},{"result":151,"points":1,"place":2,"phase":1,"sequence":38,"prices":[168,191,172,240,183,193,146,151,125,238],"times":[25253,474,542,436,459,496,488,1382],"next_num":8,"trial_type":"ticket-choose","trial_index":123,"time_elapsed":1511015,"internal_node_id":"0.0-123.0"},{"result":101,"points":3,"place":0,"phase":1,"sequence":39,"prices":[181,138,118,170,190,101,146,169,175,233],"times":[13642,458,466,480,498,964],"next_num":6,"trial_type":"ticket-choose","trial_index":124,"time_elapsed":1530268,"internal_node_id":"0.0-124.0"},{"result":236,"points":0,"place":6,"phase":1,"sequence":40,"prices":[240,188,273,207,250,136,217,170,171,236],"times":[981,443,526,467,512,669,534,590,613,785],"next_num":10,"trial_type":"ticket-choose","trial_index":125,"time_elapsed":1540005,"internal_node_id":"0.0-125.0"},{"result":135,"points":3,"place":0,"phase":1,"sequence":41,"prices":[135,202,150,169,183,225,160,211,220,172],"times":[898],"next_num":1,"trial_type":"ticket-choose","trial_index":126,"time_elapsed":1542642,"internal_node_id":"0.0-126.0"},{"result":146,"points":2,"place":1,"phase":1,"sequence":42,"prices":[172,191,176,272,179,194,146,152,126,235],"times":[738,456,532,529,629,605,903],"next_num":7,"trial_type":"ticket-choose","trial_index":127,"time_elapsed":1550110,"internal_node_id":"0.0-127.0"},{"result":168,"points":1,"place":3,"phase":1,"sequence":43,"prices":[168,192,176,242,183,197,154,156,237,132],"times":[1100],"next_num":1,"trial_type":"ticket-choose","trial_index":128,"time_elapsed":1552908,"internal_node_id":"0.0-128.0"},{"result":121,"points":3,"place":0,"phase":1,"sequence":44,"prices":[121,191,128,141,166,217,129,196,202,157],"times":[1056],"next_num":1,"trial_type":"ticket-choose","trial_index":129,"time_elapsed":1555601,"internal_node_id":"0.0-129.0"},{"result":154,"points":2,"place":1,"phase":1,"sequence":45,"prices":[169,193,154,255,178,194,176,158,239,126],"times":[711,513,939],"next_num":3,"trial_type":"ticket-choose","trial_index":130,"time_elapsed":1559959,"internal_node_id":"0.0-130.0"},{"result":150,"points":1,"place":2,"phase":1,"sequence":46,"prices":[169,193,146,237,180,196,172,150,129,236],"times":[926,527,526,502,529,465,606,1012],"next_num":8,"trial_type":"ticket-choose","trial_index":131,"time_elapsed":1568277,"internal_node_id":"0.0-131.0"},{"result":105,"points":3,"place":0,"phase":1,"sequence":47,"prices":[263,165,224,214,105,230,215,185,177,193],"times":[1061,382,386,537,975],"next_num":5,"trial_type":"ticket-choose","trial_index":132,"time_elapsed":1574074,"internal_node_id":"0.0-132.0"},{"result":146,"points":2,"place":1,"phase":1,"sequence":48,"prices":[171,191,172,268,179,194,146,150,127,239],"times":[1164,472,419,452,507,573,1313],"next_num":7,"trial_type":"ticket-choose","trial_index":133,"time_elapsed":1585156,"internal_node_id":"0.0-133.0"},{"result":275,"points":0,"place":9,"phase":1,"sequence":49,"prices":[155,129,164,189,210,108,187,241,174,275],"times":[6259,1172,396,356,521,396,455,537,691,584],"next_num":10,"trial_type":"ticket-choose","trial_index":134,"time_elapsed":1600311,"internal_node_id":"0.0-134.0"},{"responses":[{"value":4,"offby":3,"category":"$90 - $120","category_index":0},{"value":4,"offby":1,"category":"$121 - $145","category_index":1},{"value":4,"offby":1,"category":"$146 - $170","category_index":2},{"value":4,"offby":-2,"category":"$171 - $195","category_index":3},{"value":4,"offby":0,"category":"$196 - $220","category_index":4},{"value":0,"offby":-2,"category":"$221 - $245","category_index":5},{"value":0,"offby":-1,"category":"$246 - $270","category_index":6}],"phase":1,"number":1,"trial_type":"bar-choose","trial_index":135,"time_elapsed":1615479,"internal_node_id":"0.0-135.0"},{"special_comment":"No","trial_type":"special_sequence","trial_index":136,"time_elapsed":1619729,"internal_node_id":"0.0-136.0"},{"during":"Nothing","bonus":268,"trial_type":"final","trial_index":137,"time_elapsed":1658595,"internal_node_id":"0.0-137.0"}],"bonus":268}