{"start_time":"2017-02-24 16:22:11","end_time":"2017-02-24 16:41:17","points_phase0":87,"points_phase1":95,"phase_order":1,"age":32,"gender":"m","tries":1,"during":"Nothing","worker_id":"A1AQQFJAF8CI4H","assignment_id":"3LO69W1SU463GIAF5VODH1VWRPBLG7","data":[{"rt":14424,"url":"\/tickets\/utils\/consent.html","trial_type":"html","trial_index":0,"time_elapsed":14613,"internal_node_id":"0.0-0.0"},{"age":32,"gender":"m","trial_type":"age","trial_index":1,"time_elapsed":21405,"internal_node_id":"0.0-1.0"},{"worker_id":"A1AQQFJAF8CI4H","trial_type":"workerid","trial_index":2,"time_elapsed":30803,"internal_node_id":"0.0-2.0"},{"tries":1,"trial_type":"instructions_check","trial_index":3,"time_elapsed":41063,"internal_node_id":"0.0-3.0"},{"rt":127611,"url":"\/tickets\/utils\/start.html","trial_type":"html","trial_index":4,"time_elapsed":169776,"internal_node_id":"0.0-4.0"},{"trial_type":"number-animation","trial_index":5,"time_elapsed":179797,"internal_node_id":"0.0-5.0"},{"phase":0,"sequence":0,"avg":166,"response":161,"trial_type":"training_avg","trial_index":6,"time_elapsed":191921,"internal_node_id":"0.0-6.0"},{"trial_type":"number-animation","trial_index":7,"time_elapsed":201070,"internal_node_id":"0.0-7.0"},{"phase":0,"sequence":1,"avg":198,"response":205,"trial_type":"training_avg","trial_index":8,"time_elapsed":208729,"internal_node_id":"0.0-8.0"},{"trial_type":"number-animation","trial_index":9,"time_elapsed":216537,"internal_node_id":"0.0-9.0"},{"phase":0,"sequence":2,"avg":177,"response":160,"trial_type":"training_avg","trial_index":10,"time_elapsed":224534,"internal_node_id":"0.0-10.0"},{"trial_type":"number-animation","trial_index":11,"time_elapsed":231935,"internal_node_id":"0.0-11.0"},{"phase":0,"sequence":3,"avg":190,"response":193,"trial_type":"training_avg","trial_index":12,"time_elapsed":241778,"internal_node_id":"0.0-12.0"},{"trial_type":"number-animation","trial_index":13,"time_elapsed":250123,"internal_node_id":"0.0-13.0"},{"phase":0,"sequence":4,"avg":201,"response":173,"trial_type":"training_avg","trial_index":14,"time_elapsed":257771,"internal_node_id":"0.0-14.0"},{"responses":[{"value":5,"offby":4,"category":"$30 - $75","category_index":0},{"value":5,"offby":3,"category":"$76 - $120","category_index":1},{"value":5,"offby":1,"category":"$121 - $165","category_index":2},{"value":5,"offby":-1,"category":"$166 - $210","category_index":3},{"value":0,"offby":-6,"category":"$211 - $255","category_index":4},{"value":0,"offby":-1,"category":"$256 - $300","category_index":5},{"value":0,"offby":0,"category":"$301 - $345","category_index":6}],"phase":0,"number":0,"trial_type":"bar-choose","trial_index":15,"time_elapsed":283352,"internal_node_id":"0.0-15.0"},{"rt":2318,"url":"\/tickets\/\/utils\/testing.html","trial_type":"html","trial_index":16,"time_elapsed":286797,"internal_node_id":"0.0-16.0"},{"phase":0,"order":[38,33,48,10,43,23,19,46,32,22,24,42,14,21,1,16,5,17,8,0,39,27,18,26,44,3,2,31,7,9,13,40,37,12,34,25,28,45,4,11,30,36,47,35,29,6,49,15,20,41],"trial_type":"store_order","trial_index":17,"time_elapsed":287798,"internal_node_id":"0.0-17.0"},{"result":126,"points":3,"place":0,"phase":0,"sequence":-1,"prices":[184,180,224,165,181,199,185,193,218,126],"times":[1555,237,365,548,482,217,494,573,359,502],"next_num":11,"trial_type":"ticket-choose","trial_index":18,"time_elapsed":298134,"internal_node_id":"0.0-18.0"},{"rt":1087,"url":"\/tickets\/utils\/testing_after.html","trial_type":"html","trial_index":19,"time_elapsed":300324,"internal_node_id":"0.0-19.0"},{"result":200,"points":0,"place":7,"phase":0,"sequence":0,"prices":[156,181,171,256,175,200,131,150,110,206],"times":[639,418,350,296,303,240],"next_num":6,"trial_type":"ticket-choose","trial_index":20,"time_elapsed":306628,"internal_node_id":"0.0-20.0"},{"result":245,"points":0,"place":9,"phase":0,"sequence":1,"prices":[156,175,125,245,170,190,165,140,101,196],"times":[269,413,267,835],"next_num":4,"trial_type":"ticket-choose","trial_index":21,"time_elapsed":311071,"internal_node_id":"0.0-21.0"},{"result":220,"points":0,"place":8,"phase":0,"sequence":2,"prices":[226,205,125,120,115,135,180,145,150,220],"times":[483,330,452,416,368,479,430,407,434,591],"next_num":11,"trial_type":"ticket-choose","trial_index":22,"time_elapsed":319588,"internal_node_id":"0.0-22.0"},{"result":140,"points":1,"place":2,"phase":0,"sequence":3,"prices":[156,175,126,246,170,190,165,140,100,196],"times":[685,365,483,420,475,445,554,827],"next_num":8,"trial_type":"ticket-choose","trial_index":23,"time_elapsed":327589,"internal_node_id":"0.0-23.0"},{"result":126,"points":2,"place":1,"phase":0,"sequence":4,"prices":[156,176,165,246,171,190,126,141,101,196],"times":[410,462,502,498,550,453,1142],"next_num":7,"trial_type":"ticket-choose","trial_index":24,"time_elapsed":334892,"internal_node_id":"0.0-24.0"},{"result":140,"points":1,"place":2,"phase":0,"sequence":5,"prices":[146,171,120,245,165,191,160,140,100,196],"times":[433,283,235,643,444,519,469,829],"next_num":8,"trial_type":"ticket-choose","trial_index":25,"time_elapsed":342214,"internal_node_id":"0.0-25.0"},{"result":141,"points":1,"place":2,"phase":0,"sequence":6,"prices":[111,231,131,146,171,295,141,241,271,150],"times":[1249,330,886,509,437,478,854],"next_num":7,"trial_type":"ticket-choose","trial_index":26,"time_elapsed":350477,"internal_node_id":"0.0-26.0"},{"result":145,"points":1,"place":2,"phase":0,"sequence":7,"prices":[135,180,141,151,175,220,145,196,211,155],"times":[583,442,561,521,429,472,885],"next_num":7,"trial_type":"ticket-choose","trial_index":27,"time_elapsed":357755,"internal_node_id":"0.0-27.0"},{"result":171,"points":0,"place":5,"phase":0,"sequence":8,"prices":[155,175,166,245,171,190,125,140,101,196],"times":[427,549,502,553,1240],"next_num":5,"trial_type":"ticket-choose","trial_index":28,"time_elapsed":363795,"internal_node_id":"0.0-28.0"},{"result":185,"points":1,"place":4,"phase":0,"sequence":9,"prices":[105,216,146,165,210,260,161,235,241,185],"times":[301,737,581,503,729,505,1155,456,490,687],"next_num":10,"trial_type":"ticket-choose","trial_index":29,"time_elapsed":373918,"internal_node_id":"0.0-29.0"},{"result":136,"points":1,"place":2,"phase":0,"sequence":10,"prices":[255,166,266,175,136,145,155,61,96,301],"times":[478,831,709,479,862],"next_num":5,"trial_type":"ticket-choose","trial_index":30,"time_elapsed":380278,"internal_node_id":"0.0-30.0"},{"result":120,"points":2,"place":1,"phase":0,"sequence":11,"prices":[145,170,160,245,165,190,120,141,100,195],"times":[344,467,490,377,466,465,943],"next_num":7,"trial_type":"ticket-choose","trial_index":31,"time_elapsed":387081,"internal_node_id":"0.0-31.0"},{"result":190,"points":0,"place":5,"phase":0,"sequence":12,"prices":[180,106,166,245,211,261,215,125,135,190],"times":[344,455,343,821,470,453,463,478,597,546],"next_num":11,"trial_type":"ticket-choose","trial_index":32,"time_elapsed":396173,"internal_node_id":"0.0-32.0"},{"result":81,"points":3,"place":0,"phase":0,"sequence":13,"prices":[155,245,155,81,180,130,156,306,166,115],"times":[484,497,699,1044],"next_num":4,"trial_type":"ticket-choose","trial_index":33,"time_elapsed":401725,"internal_node_id":"0.0-33.0"},{"result":120,"points":2,"place":1,"phase":0,"sequence":14,"prices":[186,156,191,120,195,145,45,130,246,176],"times":[678,585,496,884],"next_num":4,"trial_type":"ticket-choose","trial_index":34,"time_elapsed":406946,"internal_node_id":"0.0-34.0"},{"result":120,"points":2,"place":1,"phase":0,"sequence":15,"prices":[150,170,160,241,166,186,120,136,96,191],"times":[812,491,538,569,466,508,969],"next_num":7,"trial_type":"ticket-choose","trial_index":35,"time_elapsed":414455,"internal_node_id":"0.0-35.0"},{"result":100,"points":3,"place":0,"phase":0,"sequence":16,"prices":[145,171,161,245,165,191,120,140,100,196],"times":[420,347,356,373,422,438,426,560,655],"next_num":9,"trial_type":"ticket-choose","trial_index":36,"time_elapsed":422237,"internal_node_id":"0.0-36.0"},{"result":160,"points":1,"place":4,"phase":0,"sequence":17,"prices":[86,180,130,151,170,271,145,191,220,160],"times":[342,1296,462,524,636,611,490,520,581,623],"next_num":10,"trial_type":"ticket-choose","trial_index":37,"time_elapsed":432050,"internal_node_id":"0.0-37.0"},{"result":95,"points":3,"place":0,"phase":0,"sequence":18,"prices":[95,205,106,151,186,271,145,210,215,181],"times":[1471],"next_num":1,"trial_type":"ticket-choose","trial_index":38,"time_elapsed":435446,"internal_node_id":"0.0-38.0"},{"result":185,"points":1,"place":4,"phase":0,"sequence":19,"prices":[185,180,235,210,106,266,76,115,250,205],"times":[1164],"next_num":1,"trial_type":"ticket-choose","trial_index":39,"time_elapsed":439230,"internal_node_id":"0.0-39.0"},{"result":130,"points":2,"place":1,"phase":0,"sequence":20,"prices":[160,180,130,251,176,195,170,146,105,200],"times":[520,444,929],"next_num":3,"trial_type":"ticket-choose","trial_index":40,"time_elapsed":443381,"internal_node_id":"0.0-40.0"},{"result":75,"points":3,"place":0,"phase":0,"sequence":21,"prices":[75,171,131,151,161,250,145,190,206,156],"times":[1084],"next_num":1,"trial_type":"ticket-choose","trial_index":41,"time_elapsed":446183,"internal_node_id":"0.0-41.0"},{"result":126,"points":2,"place":1,"phase":0,"sequence":22,"prices":[151,176,126,251,170,196,165,145,105,201],"times":[1261,479,874],"next_num":3,"trial_type":"ticket-choose","trial_index":42,"time_elapsed":451033,"internal_node_id":"0.0-42.0"},{"result":120,"points":3,"place":0,"phase":0,"sequence":23,"prices":[120,221,135,185,200,261,181,251,255,196],"times":[1475],"next_num":1,"trial_type":"ticket-choose","trial_index":43,"time_elapsed":454386,"internal_node_id":"0.0-43.0"},{"result":131,"points":2,"place":1,"phase":0,"sequence":24,"prices":[160,180,170,251,176,195,131,146,105,200],"times":[851,452,422,482,431,383,1304],"next_num":7,"trial_type":"ticket-choose","trial_index":44,"time_elapsed":461646,"internal_node_id":"0.0-44.0"},{"result":111,"points":3,"place":0,"phase":0,"sequence":25,"prices":[175,211,266,286,111,216,220,245,230,165],"times":[635,357,389,352,1030],"next_num":5,"trial_type":"ticket-choose","trial_index":45,"time_elapsed":467330,"internal_node_id":"0.0-45.0"},{"result":145,"points":1,"place":2,"phase":0,"sequence":26,"prices":[150,176,126,251,171,195,165,145,105,200],"times":[427,357,321,533,471,462,433,848],"next_num":8,"trial_type":"ticket-choose","trial_index":46,"time_elapsed":474556,"internal_node_id":"0.0-46.0"},{"result":136,"points":3,"place":0,"phase":0,"sequence":27,"prices":[246,145,155,191,176,270,185,136,160,215],"times":[383,703,502,505,461,382,567,1058],"next_num":8,"trial_type":"ticket-choose","trial_index":47,"time_elapsed":482415,"internal_node_id":"0.0-47.0"},{"result":155,"points":0,"place":5,"phase":0,"sequence":28,"prices":[155,30,101,55,136,276,70,181,200,261],"times":[1479],"next_num":1,"trial_type":"ticket-choose","trial_index":48,"time_elapsed":485938,"internal_node_id":"0.0-48.0"},{"result":111,"points":3,"place":0,"phase":0,"sequence":29,"prices":[156,181,130,255,175,200,170,150,111,205],"times":[392,431,311,388,270,465,437,421,863],"next_num":9,"trial_type":"ticket-choose","trial_index":49,"time_elapsed":493410,"internal_node_id":"0.0-49.0"},{"result":136,"points":1,"place":2,"phase":0,"sequence":30,"prices":[150,170,160,240,166,185,121,136,95,191],"times":[453,386,313,400,472,430,420,596],"next_num":8,"trial_type":"ticket-choose","trial_index":50,"time_elapsed":500604,"internal_node_id":"0.0-50.0"},{"result":175,"points":1,"place":4,"phase":0,"sequence":31,"prices":[130,195,141,155,181,226,150,216,221,175],"times":[396,444,376,423,552,436,430,446,463,853],"next_num":10,"trial_type":"ticket-choose","trial_index":51,"time_elapsed":509130,"internal_node_id":"0.0-51.0"},{"result":130,"points":3,"place":0,"phase":0,"sequence":32,"prices":[185,175,276,221,130,141,171,216,235,165],"times":[344,416,613,515,890],"next_num":5,"trial_type":"ticket-choose","trial_index":52,"time_elapsed":514417,"internal_node_id":"0.0-52.0"},{"result":120,"points":2,"place":1,"phase":0,"sequence":33,"prices":[150,171,120,241,165,185,160,135,96,190],"times":[489,457,884],"next_num":3,"trial_type":"ticket-choose","trial_index":53,"time_elapsed":518535,"internal_node_id":"0.0-53.0"},{"result":121,"points":2,"place":1,"phase":0,"sequence":34,"prices":[146,170,121,245,166,190,161,141,100,195],"times":[403,369,928],"next_num":3,"trial_type":"ticket-choose","trial_index":54,"time_elapsed":522557,"internal_node_id":"0.0-54.0"},{"result":96,"points":2,"place":1,"phase":0,"sequence":35,"prices":[66,201,96,150,185,230,121,216,225,165],"times":[474,571,538],"next_num":3,"trial_type":"ticket-choose","trial_index":55,"time_elapsed":526323,"internal_node_id":"0.0-55.0"},{"result":126,"points":2,"place":1,"phase":0,"sequence":36,"prices":[151,175,166,251,170,195,126,146,105,201],"times":[469,611,706,500,473,468,864],"next_num":7,"trial_type":"ticket-choose","trial_index":56,"time_elapsed":533371,"internal_node_id":"0.0-56.0"},{"result":116,"points":3,"place":0,"phase":0,"sequence":37,"prices":[176,150,276,171,261,116,130,201,166,231],"times":[638,400,602,467,491,1147],"next_num":6,"trial_type":"ticket-choose","trial_index":57,"time_elapsed":539990,"internal_node_id":"0.0-57.0"},{"result":91,"points":3,"place":0,"phase":0,"sequence":38,"prices":[176,150,141,91,290,201,106,266,206,126],"times":[561,566,1879,720],"next_num":4,"trial_type":"ticket-choose","trial_index":58,"time_elapsed":546049,"internal_node_id":"0.0-58.0"},{"result":81,"points":3,"place":0,"phase":0,"sequence":39,"prices":[81,205,130,151,191,261,145,210,250,165],"times":[1335],"next_num":1,"trial_type":"ticket-choose","trial_index":59,"time_elapsed":549100,"internal_node_id":"0.0-59.0"},{"result":185,"points":0,"place":5,"phase":0,"sequence":40,"prices":[181,156,145,165,236,231,201,260,150,185],"times":[686,410,633,515,521,478,495,447,686,704],"next_num":11,"trial_type":"ticket-choose","trial_index":60,"time_elapsed":558815,"internal_node_id":"0.0-60.0"},{"result":65,"points":2,"place":1,"phase":0,"sequence":41,"prices":[220,236,176,65,185,101,110,61,156,191],"times":[455,529,629,1032],"next_num":4,"trial_type":"ticket-choose","trial_index":61,"time_elapsed":563820,"internal_node_id":"0.0-61.0"},{"result":126,"points":2,"place":1,"phase":0,"sequence":42,"prices":[150,175,166,251,170,196,126,145,105,201],"times":[548,404,547,468,513,543,874],"next_num":7,"trial_type":"ticket-choose","trial_index":62,"time_elapsed":570960,"internal_node_id":"0.0-62.0"},{"result":136,"points":1,"place":2,"phase":0,"sequence":43,"prices":[150,171,121,241,165,185,160,136,95,191],"times":[330,363,309,450,407,385,414,1010],"next_num":8,"trial_type":"ticket-choose","trial_index":63,"time_elapsed":577863,"internal_node_id":"0.0-63.0"},{"result":131,"points":2,"place":1,"phase":0,"sequence":44,"prices":[161,180,171,250,176,195,131,146,105,201],"times":[516,237,334,283,303,454,596],"next_num":7,"trial_type":"ticket-choose","trial_index":64,"time_elapsed":583582,"internal_node_id":"0.0-64.0"},{"result":80,"points":2,"place":1,"phase":0,"sequence":45,"prices":[221,175,51,196,146,130,166,80,126,156],"times":[457,240,308,871,421,543,476,884],"next_num":8,"trial_type":"ticket-choose","trial_index":65,"time_elapsed":590989,"internal_node_id":"0.0-65.0"},{"result":111,"points":3,"place":0,"phase":0,"sequence":46,"prices":[156,181,131,256,176,200,171,151,111,206],"times":[550,554,791,448,495,469,537,1215,913],"next_num":9,"trial_type":"ticket-choose","trial_index":66,"time_elapsed":600451,"internal_node_id":"0.0-66.0"},{"result":131,"points":2,"place":1,"phase":0,"sequence":47,"prices":[161,180,131,251,175,196,171,146,105,201],"times":[590,500,882],"next_num":3,"trial_type":"ticket-choose","trial_index":67,"time_elapsed":604594,"internal_node_id":"0.0-67.0"},{"result":130,"points":2,"place":1,"phase":0,"sequence":48,"prices":[155,181,170,255,176,200,130,150,110,205],"times":[595,466,471,485,446,504,968],"next_num":7,"trial_type":"ticket-choose","trial_index":68,"time_elapsed":611619,"internal_node_id":"0.0-68.0"},{"result":130,"points":2,"place":1,"phase":0,"sequence":49,"prices":[155,225,245,130,176,106,180,211,165,200],"times":[701,589,435,1442],"next_num":4,"trial_type":"ticket-choose","trial_index":69,"time_elapsed":617147,"internal_node_id":"0.0-69.0"},{"responses":[{"value":3,"offby":2,"category":"$30 - $75","category_index":0},{"value":3,"offby":1,"category":"$76 - $120","category_index":1},{"value":5,"offby":1,"category":"$121 - $165","category_index":2},{"value":4,"offby":-2,"category":"$166 - $210","category_index":3},{"value":3,"offby":-3,"category":"$211 - $255","category_index":4},{"value":2,"offby":1,"category":"$256 - $300","category_index":5},{"value":0,"offby":0,"category":"$301 - $345","category_index":6}],"phase":0,"number":1,"trial_type":"bar-choose","trial_index":70,"time_elapsed":635120,"internal_node_id":"0.0-70.0"},{"rt":4837,"url":"\/tickets\/utils\/start2.html","trial_type":"html","trial_index":71,"time_elapsed":641088,"internal_node_id":"0.0-71.0"},{"trial_type":"number-animation","trial_index":72,"time_elapsed":649685,"internal_node_id":"0.0-72.0"},{"phase":1,"sequence":0,"avg":180,"response":181,"trial_type":"training_avg","trial_index":73,"time_elapsed":658317,"internal_node_id":"0.0-73.0"},{"trial_type":"number-animation","trial_index":74,"time_elapsed":666286,"internal_node_id":"0.0-74.0"},{"phase":1,"sequence":1,"avg":178,"response":174,"trial_type":"training_avg","trial_index":75,"time_elapsed":671616,"internal_node_id":"0.0-75.0"},{"trial_type":"number-animation","trial_index":76,"time_elapsed":679190,"internal_node_id":"0.0-76.0"},{"phase":1,"sequence":2,"avg":176,"response":180,"trial_type":"training_avg","trial_index":77,"time_elapsed":683531,"internal_node_id":"0.0-77.0"},{"trial_type":"number-animation","trial_index":78,"time_elapsed":690789,"internal_node_id":"0.0-78.0"},{"phase":1,"sequence":3,"avg":178,"response":177,"trial_type":"training_avg","trial_index":79,"time_elapsed":694625,"internal_node_id":"0.0-79.0"},{"trial_type":"number-animation","trial_index":80,"time_elapsed":701785,"internal_node_id":"0.0-80.0"},{"phase":1,"sequence":4,"avg":179,"response":179,"trial_type":"training_avg","trial_index":81,"time_elapsed":707209,"internal_node_id":"0.0-81.0"},{"responses":[{"value":0,"offby":0,"category":"$140 - $250","category_index":0},{"value":0,"offby":0,"category":"$151 - $160","category_index":1},{"value":0,"offby":-4,"category":"$161 - $170","category_index":2},{"value":10,"offby":4,"category":"$171 - $180","category_index":3},{"value":10,"offby":3,"category":"$181 - $190","category_index":4},{"value":0,"offby":-3,"category":"$191 - $200","category_index":5},{"value":0,"offby":0,"category":"$201 - $210","category_index":6}],"phase":1,"number":0,"trial_type":"bar-choose","trial_index":82,"time_elapsed":717522,"internal_node_id":"0.0-82.0"},{"rt":9220,"url":"\/tickets\/utils\/testing2.html","trial_type":"html","trial_index":83,"time_elapsed":727856,"internal_node_id":"0.0-83.0"},{"phase":1,"order":[15,1,36,0,5,18,29,32,4,26,39,23,41,42,37,21,22,24,25,34,9,28,2,27,13,46,3,48,44,11,20,33,38,17,19,31,7,40,45,30,47,43,6,16,12,35,10,8,14,49],"trial_type":"store_order","trial_index":84,"time_elapsed":728860,"internal_node_id":"0.0-84.0"},{"result":177,"points":1,"place":2,"phase":1,"sequence":0,"prices":[181,179,199,188,170,172,178,187,191,177],"times":[769,435,463,319,646,998,461,428,519,1122],"next_num":10,"trial_type":"ticket-choose","trial_index":85,"time_elapsed":739011,"internal_node_id":"0.0-85.0"},{"result":179,"points":1,"place":4,"phase":1,"sequence":1,"prices":[170,183,172,175,180,189,174,187,188,179],"times":[1279,353,255,332,506,550,573,618,477,1080],"next_num":10,"trial_type":"ticket-choose","trial_index":86,"time_elapsed":748760,"internal_node_id":"0.0-86.0"},{"result":171,"points":3,"place":0,"phase":1,"sequence":2,"prices":[193,173,175,182,179,198,181,171,176,187],"times":[522,737,625,597,508,459,569,1034],"next_num":8,"trial_type":"ticket-choose","trial_index":87,"time_elapsed":757121,"internal_node_id":"0.0-87.0"},{"result":185,"points":0,"place":8,"phase":1,"sequence":3,"prices":[175,180,170,195,179,184,178,174,166,185],"times":[381,448,317,420,966,398,407,429,469,667],"next_num":11,"trial_type":"ticket-choose","trial_index":88,"time_elapsed":765788,"internal_node_id":"0.0-88.0"},{"result":164,"points":1,"place":2,"phase":1,"sequence":4,"prices":[188,191,179,157,181,164,166,156,175,182],"times":[686,283,358,523,329,1182],"next_num":6,"trial_type":"ticket-choose","trial_index":89,"time_elapsed":771837,"internal_node_id":"0.0-89.0"},{"result":164,"points":3,"place":0,"phase":1,"sequence":5,"prices":[173,178,176,193,177,182,168,172,164,183],"times":[684,384,316,436,473,502,459,602,1025],"next_num":9,"trial_type":"ticket-choose","trial_index":90,"time_elapsed":780277,"internal_node_id":"0.0-90.0"},{"result":164,"points":3,"place":0,"phase":1,"sequence":6,"prices":[173,178,168,193,177,182,176,172,164,183],"times":[312,293,325,353,302,537,518,480,922],"next_num":9,"trial_type":"ticket-choose","trial_index":91,"time_elapsed":787801,"internal_node_id":"0.0-91.0"},{"result":177,"points":2,"place":1,"phase":1,"sequence":7,"prices":[179,186,197,201,166,187,188,193,190,177],"times":[418,261,311,243,265,512,525,527,477,496],"next_num":11,"trial_type":"ticket-choose","trial_index":92,"time_elapsed":795732,"internal_node_id":"0.0-92.0"},{"result":175,"points":1,"place":4,"phase":1,"sequence":8,"prices":[171,180,172,174,179,188,173,183,186,175],"times":[320,398,489,474,460,437,424,639,584,1103],"next_num":10,"trial_type":"ticket-choose","trial_index":93,"time_elapsed":804707,"internal_node_id":"0.0-93.0"},{"result":168,"points":2,"place":1,"phase":1,"sequence":9,"prices":[173,178,176,193,177,182,168,172,164,183],"times":[208,294,302,970,542,551,1019],"next_num":7,"trial_type":"ticket-choose","trial_index":94,"time_elapsed":811830,"internal_node_id":"0.0-94.0"},{"result":176,"points":1,"place":4,"phase":1,"sequence":10,"prices":[161,180,170,174,178,198,173,182,188,176],"times":[302,330,1057,495,405,484,484,576,412,903],"next_num":10,"trial_type":"ticket-choose","trial_index":95,"time_elapsed":820929,"internal_node_id":"0.0-95.0"},{"result":167,"points":2,"place":1,"phase":1,"sequence":11,"prices":[175,193,175,160,180,170,175,205,177,167],"times":[297,326,273,421,392,403,423,502,450,485],"next_num":11,"trial_type":"ticket-choose","trial_index":96,"time_elapsed":828776,"internal_node_id":"0.0-96.0"},{"result":185,"points":0,"place":8,"phase":1,"sequence":12,"prices":[175,180,178,195,179,184,170,174,166,185],"times":[384,368,428,462,454,490,475,495,467,733],"next_num":11,"trial_type":"ticket-choose","trial_index":97,"time_elapsed":837098,"internal_node_id":"0.0-97.0"},{"result":163,"points":3,"place":0,"phase":1,"sequence":13,"prices":[174,178,176,192,177,181,168,171,163,182],"times":[668,359,309,332,319,343,445,405,1036],"next_num":9,"trial_type":"ticket-choose","trial_index":98,"time_elapsed":844559,"internal_node_id":"0.0-98.0"},{"result":169,"points":2,"place":1,"phase":1,"sequence":14,"prices":[175,179,169,193,178,182,177,172,164,183],"times":[313,246,1150],"next_num":3,"trial_type":"ticket-choose","trial_index":99,"time_elapsed":848347,"internal_node_id":"0.0-99.0"},{"result":182,"points":0,"place":8,"phase":1,"sequence":15,"prices":[174,178,168,192,177,181,176,171,163,182],"times":[483,673,316,350,383,500,495,480,395,542],"next_num":11,"trial_type":"ticket-choose","trial_index":100,"time_elapsed":856490,"internal_node_id":"0.0-100.0"},{"result":169,"points":2,"place":1,"phase":1,"sequence":16,"prices":[175,179,177,193,178,182,169,172,164,183],"times":[342,742,358,285,438,536,1044],"next_num":7,"trial_type":"ticket-choose","trial_index":101,"time_elapsed":863325,"internal_node_id":"0.0-101.0"},{"result":168,"points":2,"place":1,"phase":1,"sequence":17,"prices":[174,178,168,192,177,181,176,171,163,182],"times":[270,462,1140],"next_num":3,"trial_type":"ticket-choose","trial_index":102,"time_elapsed":867188,"internal_node_id":"0.0-102.0"},{"result":165,"points":3,"place":0,"phase":1,"sequence":18,"prices":[176,180,170,194,179,183,178,173,165,184],"times":[351,894,427,447,440,536,470,470,1058],"next_num":9,"trial_type":"ticket-choose","trial_index":103,"time_elapsed":875764,"internal_node_id":"0.0-103.0"},{"result":164,"points":3,"place":0,"phase":1,"sequence":19,"prices":[175,179,169,193,178,182,177,172,164,183],"times":[1376,348,214,551,443,510,501,480,935],"next_num":9,"trial_type":"ticket-choose","trial_index":104,"time_elapsed":884542,"internal_node_id":"0.0-104.0"},{"result":163,"points":2,"place":1,"phase":1,"sequence":20,"prices":[195,177,197,179,171,173,175,156,163,204],"times":[392,422,350,414,376,411,349,426,908],"next_num":9,"trial_type":"ticket-choose","trial_index":105,"time_elapsed":891912,"internal_node_id":"0.0-105.0"},{"result":183,"points":1,"place":4,"phase":1,"sequence":21,"prices":[168,188,171,181,184,196,180,194,195,183],"times":[323,478,375,434,399,464,481,501,542,799],"next_num":10,"trial_type":"ticket-choose","trial_index":106,"time_elapsed":900399,"internal_node_id":"0.0-106.0"},{"result":164,"points":3,"place":0,"phase":1,"sequence":22,"prices":[173,178,168,193,177,182,176,172,164,183],"times":[512,363,336,371,503,478,473,510,878],"next_num":9,"trial_type":"ticket-choose","trial_index":107,"time_elapsed":908116,"internal_node_id":"0.0-107.0"},{"result":181,"points":1,"place":4,"phase":1,"sequence":23,"prices":[165,187,173,177,186,196,176,191,192,181],"times":[283,342,252,404,565,470,462,507,583,707],"next_num":10,"trial_type":"ticket-choose","trial_index":108,"time_elapsed":916406,"internal_node_id":"0.0-108.0"},{"result":150,"points":3,"place":0,"phase":1,"sequence":24,"prices":[175,150,164,155,171,199,158,180,184,196],"times":[495,1142],"next_num":2,"trial_type":"ticket-choose","trial_index":109,"time_elapsed":919897,"internal_node_id":"0.0-109.0"},{"result":169,"points":2,"place":1,"phase":1,"sequence":25,"prices":[174,179,169,194,178,183,177,173,165,184],"times":[532,423,879],"next_num":3,"trial_type":"ticket-choose","trial_index":110,"time_elapsed":923855,"internal_node_id":"0.0-110.0"},{"result":169,"points":2,"place":1,"phase":1,"sequence":26,"prices":[174,179,169,194,178,183,177,173,165,184],"times":[302,365,884],"next_num":3,"trial_type":"ticket-choose","trial_index":111,"time_elapsed":927474,"internal_node_id":"0.0-111.0"},{"result":163,"points":2,"place":1,"phase":1,"sequence":27,"prices":[157,184,163,174,181,190,168,187,189,177],"times":[394,566,810],"next_num":3,"trial_type":"ticket-choose","trial_index":112,"time_elapsed":931247,"internal_node_id":"0.0-112.0"},{"result":169,"points":2,"place":1,"phase":1,"sequence":28,"prices":[174,179,177,194,178,183,169,173,165,184],"times":[558,481,447,421,445,439,1304],"next_num":7,"trial_type":"ticket-choose","trial_index":113,"time_elapsed":938320,"internal_node_id":"0.0-113.0"},{"result":165,"points":3,"place":0,"phase":1,"sequence":29,"prices":[176,180,170,194,179,183,178,173,165,184],"times":[537,515,447,503,439,588,514,608,1271],"next_num":9,"trial_type":"ticket-choose","trial_index":114,"time_elapsed":947248,"internal_node_id":"0.0-114.0"},{"result":165,"points":3,"place":0,"phase":1,"sequence":30,"prices":[176,180,178,194,179,183,170,173,165,184],"times":[363,431,415,309,268,612,453,501,866],"next_num":9,"trial_type":"ticket-choose","trial_index":115,"time_elapsed":954722,"internal_node_id":"0.0-115.0"},{"result":190,"points":0,"place":7,"phase":1,"sequence":31,"prices":[179,174,199,178,196,167,170,184,177,190],"times":[362,339,557,487,454,479,369,525,453,797],"next_num":10,"trial_type":"ticket-choose","trial_index":116,"time_elapsed":963283,"internal_node_id":"0.0-116.0"},{"result":153,"points":3,"place":0,"phase":1,"sequence":32,"prices":[181,175,182,168,183,173,153,170,193,179],"times":[959,486,606,384,324,490,980],"next_num":7,"trial_type":"ticket-choose","trial_index":117,"time_elapsed":970484,"internal_node_id":"0.0-117.0"},{"result":165,"points":3,"place":0,"phase":1,"sequence":33,"prices":[176,180,178,194,179,183,170,173,165,184],"times":[308,358,434,486,431,604,520,509,1183],"next_num":9,"trial_type":"ticket-choose","trial_index":118,"time_elapsed":978717,"internal_node_id":"0.0-118.0"},{"result":165,"points":2,"place":1,"phase":1,"sequence":34,"prices":[181,180,191,186,165,197,159,167,194,185],"times":[373,257,261,331,1126],"next_num":5,"trial_type":"ticket-choose","trial_index":119,"time_elapsed":983484,"internal_node_id":"0.0-119.0"},{"result":173,"points":1,"place":2,"phase":1,"sequence":35,"prices":[163,185,165,174,181,198,173,186,187,180],"times":[268,274,241,477,462,558,1037],"next_num":7,"trial_type":"ticket-choose","trial_index":120,"time_elapsed":989748,"internal_node_id":"0.0-120.0"},{"result":175,"points":1,"place":4,"phase":1,"sequence":36,"prices":[159,178,170,174,176,194,173,182,185,175],"times":[346,298,316,397,499,623,477,769,613,917],"next_num":10,"trial_type":"ticket-choose","trial_index":121,"time_elapsed":998452,"internal_node_id":"0.0-121.0"},{"result":165,"points":2,"place":1,"phase":1,"sequence":37,"prices":[179,174,172,162,202,184,165,197,185,169],"times":[466,468,441,399,579,730,1135],"next_num":7,"trial_type":"ticket-choose","trial_index":122,"time_elapsed":1005572,"internal_node_id":"0.0-122.0"},{"result":169,"points":2,"place":1,"phase":1,"sequence":38,"prices":[175,179,177,193,178,182,169,172,164,183],"times":[508,349,429,415,459,581,1114],"next_num":7,"trial_type":"ticket-choose","trial_index":123,"time_elapsed":1012532,"internal_node_id":"0.0-123.0"},{"result":166,"points":3,"place":0,"phase":1,"sequence":39,"prices":[175,180,170,195,179,184,178,174,166,185],"times":[476,514,456,535,498,541,474,496,961],"next_num":9,"trial_type":"ticket-choose","trial_index":124,"time_elapsed":1020707,"internal_node_id":"0.0-124.0"},{"result":173,"points":1,"place":2,"phase":1,"sequence":40,"prices":[160,185,170,174,182,196,173,186,194,177],"times":[294,386,217,494,520,536,1060],"next_num":7,"trial_type":"ticket-choose","trial_index":125,"time_elapsed":1027124,"internal_node_id":"0.0-125.0"},{"result":169,"points":1,"place":2,"phase":1,"sequence":41,"prices":[189,185,169,168,167,171,180,173,174,188],"times":[647,499,1051],"next_num":3,"trial_type":"ticket-choose","trial_index":126,"time_elapsed":1031536,"internal_node_id":"0.0-126.0"},{"result":181,"points":0,"place":5,"phase":1,"sequence":42,"prices":[180,175,173,177,191,190,184,196,174,181],"times":[353,268,312,275,340,506,502,529,439,660],"next_num":11,"trial_type":"ticket-choose","trial_index":127,"time_elapsed":1039223,"internal_node_id":"0.0-127.0"},{"result":154,"points":3,"place":0,"phase":1,"sequence":43,"prices":[188,179,154,183,173,170,177,160,169,175],"times":[543,351,985],"next_num":3,"trial_type":"ticket-choose","trial_index":128,"time_elapsed":1043026,"internal_node_id":"0.0-128.0"},{"result":174,"points":1,"place":4,"phase":1,"sequence":44,"prices":[166,190,170,173,178,203,172,192,198,174],"times":[387,495,380,397,245,368,339,656,445,704],"next_num":10,"trial_type":"ticket-choose","trial_index":129,"time_elapsed":1051174,"internal_node_id":"0.0-129.0"},{"result":169,"points":2,"place":1,"phase":1,"sequence":45,"prices":[174,179,177,194,178,183,169,173,165,184],"times":[415,331,434,469,537,466,1037],"next_num":7,"trial_type":"ticket-choose","trial_index":130,"time_elapsed":1057926,"internal_node_id":"0.0-130.0"},{"result":165,"points":3,"place":0,"phase":1,"sequence":46,"prices":[175,189,193,170,179,165,180,186,177,184],"times":[377,405,468,488,556,1334],"next_num":6,"trial_type":"ticket-choose","trial_index":131,"time_elapsed":1064159,"internal_node_id":"0.0-131.0"},{"result":166,"points":3,"place":0,"phase":1,"sequence":47,"prices":[175,180,178,195,179,184,170,174,166,185],"times":[438,343,414,389,443,634,581,503,1219],"next_num":9,"trial_type":"ticket-choose","trial_index":132,"time_elapsed":1072540,"internal_node_id":"0.0-132.0"},{"result":163,"points":3,"place":0,"phase":1,"sequence":48,"prices":[174,178,176,192,177,181,168,171,163,182],"times":[1176,213,215,240,235,351,308,516,935],"next_num":9,"trial_type":"ticket-choose","trial_index":133,"time_elapsed":1080321,"internal_node_id":"0.0-133.0"},{"result":169,"points":2,"place":1,"phase":1,"sequence":49,"prices":[180,165,177,193,186,196,187,169,171,182],"times":[506,395,378,208,309,388,424,951],"next_num":8,"trial_type":"ticket-choose","trial_index":134,"time_elapsed":1087144,"internal_node_id":"0.0-134.0"},{"responses":[{"value":0,"offby":0,"category":"$140 - $250","category_index":0},{"value":0,"offby":0,"category":"$151 - $160","category_index":1},{"value":0,"offby":-4,"category":"$161 - $170","category_index":2},{"value":10,"offby":4,"category":"$171 - $180","category_index":3},{"value":5,"offby":-2,"category":"$181 - $190","category_index":4},{"value":5,"offby":2,"category":"$191 - $200","category_index":5},{"value":0,"offby":0,"category":"$201 - $210","category_index":6}],"phase":1,"number":1,"trial_type":"bar-choose","trial_index":135,"time_elapsed":1099197,"internal_node_id":"0.0-135.0"},{"special_comment":"","trial_type":"special_sequence","trial_index":136,"time_elapsed":1103481,"internal_node_id":"0.0-136.0"},{"during":"Nothing","bonus":244,"trial_type":"final","trial_index":137,"time_elapsed":1141692,"internal_node_id":"0.0-137.0"}],"bonus":244}