{"start_time":"2017-02-15 10:33:07","end_time":"2017-02-15 10:53:01","points_phase0":100,"points_phase1":95,"phase_order":1,"age":36,"gender":"m","tries":1,"during":"Nothing","worker_id":"A1BWR5RBQDZQ16","assignment_id":"3ATTHHXXWBHCC3XZ92R4D73ZC5VXI2","data":[{"rt":3115,"url":"\/tickets\/utils\/consent.html","trial_type":"html","trial_index":0,"time_elapsed":3242,"internal_node_id":"0.0-0.0"},{"age":36,"gender":"m","trial_type":"age","trial_index":1,"time_elapsed":8549,"internal_node_id":"0.0-1.0"},{"worker_id":"A1BWR5RBQDZQ16","trial_type":"workerid","trial_index":2,"time_elapsed":25000,"internal_node_id":"0.0-2.0"},{"tries":1,"trial_type":"instructions_check","trial_index":3,"time_elapsed":31941,"internal_node_id":"0.0-3.0"},{"rt":7763,"url":"\/tickets\/utils\/start.html","trial_type":"html","trial_index":4,"time_elapsed":40838,"internal_node_id":"0.0-4.0"},{"trial_type":"number-animation","trial_index":5,"time_elapsed":50131,"internal_node_id":"0.0-5.0"},{"phase":0,"sequence":0,"avg":182,"response":186,"trial_type":"training_avg","trial_index":6,"time_elapsed":62026,"internal_node_id":"0.0-6.0"},{"trial_type":"number-animation","trial_index":7,"time_elapsed":79202,"internal_node_id":"0.0-7.0"},{"phase":0,"sequence":1,"avg":188,"response":194,"trial_type":"training_avg","trial_index":8,"time_elapsed":88805,"internal_node_id":"0.0-8.0"},{"trial_type":"number-animation","trial_index":9,"time_elapsed":96426,"internal_node_id":"0.0-9.0"},{"phase":0,"sequence":2,"avg":176,"response":145,"trial_type":"training_avg","trial_index":10,"time_elapsed":101900,"internal_node_id":"0.0-10.0"},{"trial_type":"number-animation","trial_index":11,"time_elapsed":109715,"internal_node_id":"0.0-11.0"},{"phase":0,"sequence":3,"avg":180,"response":177,"trial_type":"training_avg","trial_index":12,"time_elapsed":117598,"internal_node_id":"0.0-12.0"},{"trial_type":"number-animation","trial_index":13,"time_elapsed":124938,"internal_node_id":"0.0-13.0"},{"phase":0,"sequence":4,"avg":174,"response":181,"trial_type":"training_avg","trial_index":14,"time_elapsed":134092,"internal_node_id":"0.0-14.0"},{"responses":[{"value":2,"offby":1,"category":"$90 - $120","category_index":0},{"value":5,"offby":2,"category":"$121 - $145","category_index":1},{"value":10,"offby":7,"category":"$146 - $170","category_index":2},{"value":3,"offby":-3,"category":"$171 - $195","category_index":3},{"value":0,"offby":-4,"category":"$196 - $220","category_index":4},{"value":0,"offby":-2,"category":"$221 - $245","category_index":5},{"value":0,"offby":-1,"category":"$246 - $270","category_index":6}],"phase":0,"number":0,"trial_type":"bar-choose","trial_index":15,"time_elapsed":178165,"internal_node_id":"0.0-15.0"},{"rt":5832,"url":"\/tickets\/\/utils\/testing.html","trial_type":"html","trial_index":16,"time_elapsed":185129,"internal_node_id":"0.0-16.0"},{"phase":0,"order":[17,46,29,19,1,15,14,42,48,39,26,12,16,24,28,32,21,20,37,33,36,6,4,44,45,8,31,25,18,11,13,40,47,34,3,23,41,9,22,30,0,27,38,35,43,5,7,49,2,10],"trial_type":"store_order","trial_index":17,"time_elapsed":186131,"internal_node_id":"0.0-17.0"},{"result":126,"points":3,"place":0,"phase":0,"sequence":-1,"times":[2496,310,331,383,278,396,541,708,746,2014],"next_num":10,"trial_type":"ticket-choose","trial_index":18,"time_elapsed":198830,"internal_node_id":"0.0-18.0"},{"rt":30845,"url":"\/tickets\/utils\/testing_after.html","trial_type":"html","trial_index":19,"time_elapsed":230822,"internal_node_id":"0.0-19.0"},{"result":125,"points":3,"place":0,"phase":0,"sequence":0,"times":[1676,283,428,308,454,534,502,398,498,845],"next_num":10,"trial_type":"ticket-choose","trial_index":20,"time_elapsed":240708,"internal_node_id":"0.0-20.0"},{"result":172,"points":1,"place":4,"phase":0,"sequence":1,"times":[1227,314,267,850,462,295,451,597,606,1059],"next_num":11,"trial_type":"ticket-choose","trial_index":21,"time_elapsed":251072,"internal_node_id":"0.0-21.0"},{"result":127,"points":3,"place":0,"phase":0,"sequence":2,"times":[4600,309,579,359,223,348,493,521,597,909],"next_num":10,"trial_type":"ticket-choose","trial_index":22,"time_elapsed":263857,"internal_node_id":"0.0-22.0"},{"result":176,"points":1,"place":4,"phase":0,"sequence":3,"times":[1096,257,268,2513,647,513,1040],"next_num":7,"trial_type":"ticket-choose","trial_index":23,"time_elapsed":280099,"internal_node_id":"0.0-23.0"},{"result":137,"points":3,"place":0,"phase":0,"sequence":4,"times":[1447],"next_num":1,"trial_type":"ticket-choose","trial_index":24,"time_elapsed":292967,"internal_node_id":"0.0-24.0"},{"result":159,"points":2,"place":1,"phase":0,"sequence":5,"times":[4306,449,923],"next_num":3,"trial_type":"ticket-choose","trial_index":25,"time_elapsed":301168,"internal_node_id":"0.0-25.0"},{"result":146,"points":1,"place":2,"phase":0,"sequence":6,"times":[1656,809],"next_num":2,"trial_type":"ticket-choose","trial_index":26,"time_elapsed":305969,"internal_node_id":"0.0-26.0"},{"result":154,"points":2,"place":1,"phase":0,"sequence":7,"times":[680,375,1240,607,531,564,824],"next_num":7,"trial_type":"ticket-choose","trial_index":27,"time_elapsed":313992,"internal_node_id":"0.0-27.0"},{"result":189,"points":1,"place":4,"phase":0,"sequence":8,"times":[692,573,382,540,541,705,605,652,605,965],"next_num":10,"trial_type":"ticket-choose","trial_index":28,"time_elapsed":324122,"internal_node_id":"0.0-28.0"},{"result":132,"points":3,"place":0,"phase":0,"sequence":9,"times":[1173],"next_num":1,"trial_type":"ticket-choose","trial_index":29,"time_elapsed":327398,"internal_node_id":"0.0-29.0"},{"result":176,"points":1,"place":4,"phase":0,"sequence":10,"times":[3513,639,1164],"next_num":3,"trial_type":"ticket-choose","trial_index":30,"time_elapsed":335130,"internal_node_id":"0.0-30.0"},{"result":152,"points":2,"place":1,"phase":0,"sequence":11,"times":[820,662,333,443,347,449,495,425,524,660],"next_num":10,"trial_type":"ticket-choose","trial_index":31,"time_elapsed":344129,"internal_node_id":"0.0-31.0"},{"result":154,"points":2,"place":1,"phase":0,"sequence":12,"times":[833,9496,765,594,556,610,1268],"next_num":7,"trial_type":"ticket-choose","trial_index":32,"time_elapsed":361905,"internal_node_id":"0.0-32.0"},{"result":146,"points":2,"place":1,"phase":0,"sequence":13,"times":[1059,840,643,813,742,585,722],"next_num":7,"trial_type":"ticket-choose","trial_index":33,"time_elapsed":370522,"internal_node_id":"0.0-33.0"},{"result":171,"points":2,"place":1,"phase":0,"sequence":14,"times":[604,348,928],"next_num":3,"trial_type":"ticket-choose","trial_index":34,"time_elapsed":374827,"internal_node_id":"0.0-34.0"},{"result":146,"points":2,"place":1,"phase":0,"sequence":15,"times":[813,518,1604],"next_num":3,"trial_type":"ticket-choose","trial_index":35,"time_elapsed":380863,"internal_node_id":"0.0-35.0"},{"result":124,"points":3,"place":0,"phase":0,"sequence":16,"times":[820,844,655,1018],"next_num":4,"trial_type":"ticket-choose","trial_index":36,"time_elapsed":386786,"internal_node_id":"0.0-36.0"},{"result":105,"points":3,"place":0,"phase":0,"sequence":17,"times":[1128,515,567,629,917],"next_num":5,"trial_type":"ticket-choose","trial_index":37,"time_elapsed":393254,"internal_node_id":"0.0-37.0"},{"result":158,"points":1,"place":2,"phase":0,"sequence":18,"times":[741,558,536,474,731,584,626,898],"next_num":8,"trial_type":"ticket-choose","trial_index":38,"time_elapsed":401753,"internal_node_id":"0.0-38.0"},{"result":180,"points":0,"place":5,"phase":0,"sequence":19,"times":[717,681,491,627,878],"next_num":5,"trial_type":"ticket-choose","trial_index":39,"time_elapsed":407822,"internal_node_id":"0.0-39.0"},{"result":154,"points":2,"place":1,"phase":0,"sequence":20,"times":[548,513,862],"next_num":3,"trial_type":"ticket-choose","trial_index":40,"time_elapsed":412153,"internal_node_id":"0.0-40.0"},{"result":153,"points":2,"place":1,"phase":0,"sequence":21,"times":[706,782,929],"next_num":3,"trial_type":"ticket-choose","trial_index":41,"time_elapsed":418006,"internal_node_id":"0.0-41.0"},{"result":149,"points":3,"place":0,"phase":0,"sequence":22,"times":[5548,666,728,712,477,469,617,891],"next_num":8,"trial_type":"ticket-choose","trial_index":42,"time_elapsed":431969,"internal_node_id":"0.0-42.0"},{"result":136,"points":2,"place":1,"phase":0,"sequence":23,"times":[764,617,864],"next_num":3,"trial_type":"ticket-choose","trial_index":43,"time_elapsed":436663,"internal_node_id":"0.0-43.0"},{"result":130,"points":2,"place":1,"phase":0,"sequence":24,"times":[883,942],"next_num":2,"trial_type":"ticket-choose","trial_index":44,"time_elapsed":440732,"internal_node_id":"0.0-44.0"},{"result":149,"points":2,"place":1,"phase":0,"sequence":25,"times":[1083,610,861],"next_num":3,"trial_type":"ticket-choose","trial_index":45,"time_elapsed":445661,"internal_node_id":"0.0-45.0"},{"result":172,"points":1,"place":4,"phase":0,"sequence":26,"times":[1129,2420,1211],"next_num":3,"trial_type":"ticket-choose","trial_index":46,"time_elapsed":452838,"internal_node_id":"0.0-46.0"},{"result":146,"points":2,"place":1,"phase":0,"sequence":27,"times":[1226,712,846],"next_num":3,"trial_type":"ticket-choose","trial_index":47,"time_elapsed":458282,"internal_node_id":"0.0-47.0"},{"result":131,"points":2,"place":1,"phase":0,"sequence":28,"times":[805,701,765],"next_num":3,"trial_type":"ticket-choose","trial_index":48,"time_elapsed":462897,"internal_node_id":"0.0-48.0"},{"result":155,"points":1,"place":2,"phase":0,"sequence":29,"times":[1108],"next_num":1,"trial_type":"ticket-choose","trial_index":49,"time_elapsed":465937,"internal_node_id":"0.0-49.0"},{"result":136,"points":2,"place":1,"phase":0,"sequence":30,"times":[981,478,762],"next_num":3,"trial_type":"ticket-choose","trial_index":50,"time_elapsed":470393,"internal_node_id":"0.0-50.0"},{"result":138,"points":1,"place":2,"phase":0,"sequence":31,"times":[611,863],"next_num":2,"trial_type":"ticket-choose","trial_index":51,"time_elapsed":474054,"internal_node_id":"0.0-51.0"},{"result":136,"points":2,"place":1,"phase":0,"sequence":32,"times":[683,364,1262],"next_num":3,"trial_type":"ticket-choose","trial_index":52,"time_elapsed":478816,"internal_node_id":"0.0-52.0"},{"result":146,"points":2,"place":1,"phase":0,"sequence":33,"times":[872,668,676,581,706,658,1106],"next_num":7,"trial_type":"ticket-choose","trial_index":53,"time_elapsed":487497,"internal_node_id":"0.0-53.0"},{"result":126,"points":3,"place":0,"phase":0,"sequence":34,"times":[969,589,625,617,686,677,475,622,701,983],"next_num":10,"trial_type":"ticket-choose","trial_index":54,"time_elapsed":502663,"internal_node_id":"0.0-54.0"},{"result":117,"points":3,"place":0,"phase":0,"sequence":35,"times":[1820],"next_num":1,"trial_type":"ticket-choose","trial_index":55,"time_elapsed":506489,"internal_node_id":"0.0-55.0"},{"result":136,"points":2,"place":1,"phase":0,"sequence":36,"times":[1154,617,873],"next_num":3,"trial_type":"ticket-choose","trial_index":56,"time_elapsed":511526,"internal_node_id":"0.0-56.0"},{"result":154,"points":2,"place":1,"phase":0,"sequence":37,"times":[1168,599,925],"next_num":3,"trial_type":"ticket-choose","trial_index":57,"time_elapsed":516692,"internal_node_id":"0.0-57.0"},{"result":154,"points":2,"place":1,"phase":0,"sequence":38,"times":[1196,670,886,660,700,461,1481],"next_num":7,"trial_type":"ticket-choose","trial_index":58,"time_elapsed":526033,"internal_node_id":"0.0-58.0"},{"result":153,"points":2,"place":1,"phase":0,"sequence":39,"times":[830,808],"next_num":2,"trial_type":"ticket-choose","trial_index":59,"time_elapsed":530030,"internal_node_id":"0.0-59.0"},{"result":146,"points":2,"place":1,"phase":0,"sequence":40,"times":[1030,684,842],"next_num":3,"trial_type":"ticket-choose","trial_index":60,"time_elapsed":535014,"internal_node_id":"0.0-60.0"},{"result":119,"points":3,"place":0,"phase":0,"sequence":41,"times":[1242,1407],"next_num":2,"trial_type":"ticket-choose","trial_index":61,"time_elapsed":539815,"internal_node_id":"0.0-61.0"},{"result":121,"points":3,"place":0,"phase":0,"sequence":42,"times":[1531],"next_num":1,"trial_type":"ticket-choose","trial_index":62,"time_elapsed":543377,"internal_node_id":"0.0-62.0"},{"result":158,"points":1,"place":3,"phase":0,"sequence":43,"times":[699,616,819],"next_num":3,"trial_type":"ticket-choose","trial_index":63,"time_elapsed":547859,"internal_node_id":"0.0-63.0"},{"result":146,"points":2,"place":1,"phase":0,"sequence":44,"times":[733,675,837],"next_num":3,"trial_type":"ticket-choose","trial_index":64,"time_elapsed":552379,"internal_node_id":"0.0-64.0"},{"result":136,"points":2,"place":1,"phase":0,"sequence":45,"times":[1119,647,1102,702,600,629,1321],"next_num":7,"trial_type":"ticket-choose","trial_index":65,"time_elapsed":561681,"internal_node_id":"0.0-65.0"},{"result":180,"points":0,"place":5,"phase":0,"sequence":46,"times":[805,636,1015,702,1082],"next_num":5,"trial_type":"ticket-choose","trial_index":66,"time_elapsed":568755,"internal_node_id":"0.0-66.0"},{"result":136,"points":3,"place":0,"phase":0,"sequence":47,"times":[916,556,668,605,696,901],"next_num":6,"trial_type":"ticket-choose","trial_index":67,"time_elapsed":576286,"internal_node_id":"0.0-67.0"},{"result":157,"points":3,"place":0,"phase":0,"sequence":48,"times":[1301],"next_num":1,"trial_type":"ticket-choose","trial_index":68,"time_elapsed":579518,"internal_node_id":"0.0-68.0"},{"result":135,"points":3,"place":0,"phase":0,"sequence":49,"times":[1133,658,908],"next_num":3,"trial_type":"ticket-choose","trial_index":69,"time_elapsed":584507,"internal_node_id":"0.0-69.0"},{"responses":[{"value":0,"offby":-1,"category":"$90 - $120","category_index":0},{"value":3,"offby":0,"category":"$121 - $145","category_index":1},{"value":4,"offby":1,"category":"$146 - $170","category_index":2},{"value":8,"offby":2,"category":"$171 - $195","category_index":3},{"value":3,"offby":-1,"category":"$196 - $220","category_index":4},{"value":2,"offby":0,"category":"$221 - $245","category_index":5},{"value":0,"offby":-1,"category":"$246 - $270","category_index":6}],"phase":0,"number":1,"trial_type":"bar-choose","trial_index":70,"time_elapsed":621452,"internal_node_id":"0.0-70.0"},{"rt":11474,"url":"\/tickets\/utils\/start2.html","trial_type":"html","trial_index":71,"time_elapsed":634083,"internal_node_id":"0.0-71.0"},{"trial_type":"number-animation","trial_index":72,"time_elapsed":642826,"internal_node_id":"0.0-72.0"},{"phase":1,"sequence":0,"avg":181,"response":181,"trial_type":"training_avg","trial_index":73,"time_elapsed":649549,"internal_node_id":"0.0-73.0"},{"trial_type":"number-animation","trial_index":74,"time_elapsed":658029,"internal_node_id":"0.0-74.0"},{"phase":1,"sequence":1,"avg":188,"response":190,"trial_type":"training_avg","trial_index":75,"time_elapsed":678561,"internal_node_id":"0.0-75.0"},{"trial_type":"number-animation","trial_index":76,"time_elapsed":692362,"internal_node_id":"0.0-76.0"},{"phase":1,"sequence":2,"avg":188,"response":186,"trial_type":"training_avg","trial_index":77,"time_elapsed":698564,"internal_node_id":"0.0-77.0"},{"trial_type":"number-animation","trial_index":78,"time_elapsed":705442,"internal_node_id":"0.0-78.0"},{"phase":1,"sequence":3,"avg":177,"response":169,"trial_type":"training_avg","trial_index":79,"time_elapsed":711245,"internal_node_id":"0.0-79.0"},{"trial_type":"number-animation","trial_index":80,"time_elapsed":718642,"internal_node_id":"0.0-80.0"},{"phase":1,"sequence":4,"avg":182,"response":181,"trial_type":"training_avg","trial_index":81,"time_elapsed":725202,"internal_node_id":"0.0-81.0"},{"responses":[{"value":0,"offby":0,"category":"$106 - $134","category_index":0},{"value":3,"offby":2,"category":"$135 - $150","category_index":1},{"value":4,"offby":1,"category":"$151 - $165","category_index":2},{"value":5,"offby":-1,"category":"$166 - $180","category_index":3},{"value":3,"offby":-3,"category":"$181 - $195","category_index":4},{"value":4,"offby":1,"category":"$196 - $210","category_index":5},{"value":1,"offby":0,"category":"$211 - $225","category_index":6}],"phase":1,"number":0,"trial_type":"bar-choose","trial_index":82,"time_elapsed":770094,"internal_node_id":"0.0-82.0"},{"rt":12589,"url":"\/tickets\/utils\/testing2.html","trial_type":"html","trial_index":83,"time_elapsed":783836,"internal_node_id":"0.0-83.0"},{"phase":1,"order":[14,30,18,10,33,48,49,13,28,25,4,38,12,6,24,2,47,42,11,20,9,32,45,26,34,36,7,3,41,35,19,44,16,5,22,31,17,8,15,39,1,40,29,37,0,21,23,46,27,43],"trial_type":"store_order","trial_index":84,"time_elapsed":784841,"internal_node_id":"0.0-84.0"},{"result":167,"points":1,"place":2,"phase":1,"sequence":0,"times":[1840,511,487,861,637,580,1478,1698],"next_num":8,"trial_type":"ticket-choose","trial_index":85,"time_elapsed":796508,"internal_node_id":"0.0-85.0"},{"result":158,"points":3,"place":0,"phase":1,"sequence":1,"times":[1220,424,499,521,598,1012],"next_num":6,"trial_type":"ticket-choose","trial_index":86,"time_elapsed":803813,"internal_node_id":"0.0-86.0"},{"result":150,"points":3,"place":0,"phase":1,"sequence":2,"times":[1003],"next_num":1,"trial_type":"ticket-choose","trial_index":87,"time_elapsed":806853,"internal_node_id":"0.0-87.0"},{"result":154,"points":3,"place":0,"phase":1,"sequence":3,"times":[660,293,291,408,478,514,679,654,553,915],"next_num":10,"trial_type":"ticket-choose","trial_index":88,"time_elapsed":816049,"internal_node_id":"0.0-88.0"},{"result":154,"points":3,"place":0,"phase":1,"sequence":4,"times":[905,452,438,622,603,563,612,864,1073],"next_num":9,"trial_type":"ticket-choose","trial_index":89,"time_elapsed":825770,"internal_node_id":"0.0-89.0"},{"result":167,"points":2,"place":1,"phase":1,"sequence":5,"times":[769,394,350,374,562,630,1366],"next_num":7,"trial_type":"ticket-choose","trial_index":90,"time_elapsed":833473,"internal_node_id":"0.0-90.0"},{"result":167,"points":2,"place":1,"phase":1,"sequence":6,"times":[1352,543,613,521,562,716,878],"next_num":7,"trial_type":"ticket-choose","trial_index":91,"time_elapsed":841883,"internal_node_id":"0.0-91.0"},{"result":186,"points":1,"place":4,"phase":1,"sequence":7,"times":[709,499,498,472,480,443,588,533,584,745],"next_num":10,"trial_type":"ticket-choose","trial_index":92,"time_elapsed":851162,"internal_node_id":"0.0-92.0"},{"result":147,"points":3,"place":0,"phase":1,"sequence":8,"times":[956,558,529,1417],"next_num":4,"trial_type":"ticket-choose","trial_index":93,"time_elapsed":857032,"internal_node_id":"0.0-93.0"},{"result":171,"points":1,"place":3,"phase":1,"sequence":9,"times":[638,330,341,335,455,712,447,492,564,655],"next_num":10,"trial_type":"ticket-choose","trial_index":94,"time_elapsed":865740,"internal_node_id":"0.0-94.0"},{"result":152,"points":3,"place":0,"phase":1,"sequence":10,"times":[1895],"next_num":1,"trial_type":"ticket-choose","trial_index":95,"time_elapsed":869535,"internal_node_id":"0.0-95.0"},{"result":167,"points":2,"place":1,"phase":1,"sequence":11,"times":[1079,544,721,543,573,484,1276],"next_num":7,"trial_type":"ticket-choose","trial_index":96,"time_elapsed":877901,"internal_node_id":"0.0-96.0"},{"result":158,"points":2,"place":1,"phase":1,"sequence":12,"times":[783,553,1191],"next_num":3,"trial_type":"ticket-choose","trial_index":97,"time_elapsed":882806,"internal_node_id":"0.0-97.0"},{"result":184,"points":1,"place":4,"phase":1,"sequence":13,"times":[754,351,360,399,444,541,536,570,637,1418],"next_num":10,"trial_type":"ticket-choose","trial_index":98,"time_elapsed":892528,"internal_node_id":"0.0-98.0"},{"result":169,"points":3,"place":0,"phase":1,"sequence":14,"times":[1597],"next_num":1,"trial_type":"ticket-choose","trial_index":99,"time_elapsed":896154,"internal_node_id":"0.0-99.0"},{"result":161,"points":3,"place":0,"phase":1,"sequence":15,"times":[948],"next_num":1,"trial_type":"ticket-choose","trial_index":100,"time_elapsed":899085,"internal_node_id":"0.0-100.0"},{"result":175,"points":1,"place":3,"phase":1,"sequence":16,"times":[1189],"next_num":1,"trial_type":"ticket-choose","trial_index":101,"time_elapsed":902333,"internal_node_id":"0.0-101.0"},{"result":158,"points":2,"place":1,"phase":1,"sequence":17,"times":[931,692,657,597,575,594,1491],"next_num":7,"trial_type":"ticket-choose","trial_index":102,"time_elapsed":910999,"internal_node_id":"0.0-102.0"},{"result":169,"points":1,"place":3,"phase":1,"sequence":18,"times":[948,589,869],"next_num":3,"trial_type":"ticket-choose","trial_index":103,"time_elapsed":915644,"internal_node_id":"0.0-103.0"},{"result":170,"points":1,"place":4,"phase":1,"sequence":19,"times":[652,349,294,443,617,755,558,596,626,439],"next_num":10,"trial_type":"ticket-choose","trial_index":104,"time_elapsed":924734,"internal_node_id":"0.0-104.0"},{"result":165,"points":2,"place":1,"phase":1,"sequence":20,"times":[1205,580,836],"next_num":3,"trial_type":"ticket-choose","trial_index":105,"time_elapsed":929619,"internal_node_id":"0.0-105.0"},{"result":176,"points":1,"place":4,"phase":1,"sequence":21,"times":[1867,684,1131],"next_num":3,"trial_type":"ticket-choose","trial_index":106,"time_elapsed":935770,"internal_node_id":"0.0-106.0"},{"result":176,"points":1,"place":3,"phase":1,"sequence":22,"times":[12826],"next_num":1,"trial_type":"ticket-choose","trial_index":107,"time_elapsed":950606,"internal_node_id":"0.0-107.0"},{"result":159,"points":1,"place":2,"phase":1,"sequence":23,"times":[13014,831],"next_num":2,"trial_type":"ticket-choose","trial_index":108,"time_elapsed":966578,"internal_node_id":"0.0-108.0"},{"result":167,"points":2,"place":1,"phase":1,"sequence":24,"times":[838,342,611,652,1193],"next_num":5,"trial_type":"ticket-choose","trial_index":109,"time_elapsed":973004,"internal_node_id":"0.0-109.0"},{"result":167,"points":2,"place":1,"phase":1,"sequence":25,"times":[1345,1233,1946],"next_num":3,"trial_type":"ticket-choose","trial_index":110,"time_elapsed":979760,"internal_node_id":"0.0-110.0"},{"result":150,"points":2,"place":1,"phase":1,"sequence":26,"times":[637,774,783],"next_num":3,"trial_type":"ticket-choose","trial_index":111,"time_elapsed":984174,"internal_node_id":"0.0-111.0"},{"result":162,"points":2,"place":1,"phase":1,"sequence":27,"times":[766,3253,1136],"next_num":3,"trial_type":"ticket-choose","trial_index":112,"time_elapsed":991797,"internal_node_id":"0.0-112.0"},{"result":165,"points":1,"place":2,"phase":1,"sequence":28,"times":[1264,503,399,687,600,605,566,884],"next_num":8,"trial_type":"ticket-choose","trial_index":113,"time_elapsed":1000749,"internal_node_id":"0.0-113.0"},{"result":169,"points":1,"place":2,"phase":1,"sequence":29,"times":[1164,628,2701,562,713,849,745,917],"next_num":8,"trial_type":"ticket-choose","trial_index":114,"time_elapsed":1012295,"internal_node_id":"0.0-114.0"},{"result":167,"points":2,"place":1,"phase":1,"sequence":30,"times":[1640,626,515,598,610,696,1396],"next_num":7,"trial_type":"ticket-choose","trial_index":115,"time_elapsed":1021522,"internal_node_id":"0.0-115.0"},{"result":150,"points":3,"place":0,"phase":1,"sequence":31,"times":[2873,1488],"next_num":2,"trial_type":"ticket-choose","trial_index":116,"time_elapsed":1028109,"internal_node_id":"0.0-116.0"},{"result":152,"points":3,"place":0,"phase":1,"sequence":32,"times":[1175,531,589,981],"next_num":4,"trial_type":"ticket-choose","trial_index":117,"time_elapsed":1033880,"internal_node_id":"0.0-117.0"},{"result":155,"points":2,"place":1,"phase":1,"sequence":33,"times":[927,845],"next_num":2,"trial_type":"ticket-choose","trial_index":118,"time_elapsed":1037816,"internal_node_id":"0.0-118.0"},{"result":163,"points":2,"place":1,"phase":1,"sequence":34,"times":[814,631,848],"next_num":3,"trial_type":"ticket-choose","trial_index":119,"time_elapsed":1042402,"internal_node_id":"0.0-119.0"},{"result":158,"points":2,"place":1,"phase":1,"sequence":35,"times":[902,637,566,628,524,530,831],"next_num":7,"trial_type":"ticket-choose","trial_index":120,"time_elapsed":1050186,"internal_node_id":"0.0-120.0"},{"result":155,"points":2,"place":1,"phase":1,"sequence":36,"times":[1164,559,862],"next_num":3,"trial_type":"ticket-choose","trial_index":121,"time_elapsed":1055107,"internal_node_id":"0.0-121.0"},{"result":168,"points":1,"place":2,"phase":1,"sequence":37,"times":[824,587,1239,412,640,671,722,1683],"next_num":8,"trial_type":"ticket-choose","trial_index":122,"time_elapsed":1065296,"internal_node_id":"0.0-122.0"},{"result":158,"points":2,"place":1,"phase":1,"sequence":38,"times":[1157,514,410,520,543,538,870],"next_num":7,"trial_type":"ticket-choose","trial_index":123,"time_elapsed":1072991,"internal_node_id":"0.0-123.0"},{"result":157,"points":3,"place":0,"phase":1,"sequence":39,"times":[1496],"next_num":1,"trial_type":"ticket-choose","trial_index":124,"time_elapsed":1076393,"internal_node_id":"0.0-124.0"},{"result":176,"points":1,"place":3,"phase":1,"sequence":40,"times":[1143],"next_num":1,"trial_type":"ticket-choose","trial_index":125,"time_elapsed":1079500,"internal_node_id":"0.0-125.0"},{"result":186,"points":1,"place":4,"phase":1,"sequence":41,"times":[1247,411,451,439,514,524,518,590,552,836],"next_num":10,"trial_type":"ticket-choose","trial_index":126,"time_elapsed":1089257,"internal_node_id":"0.0-126.0"},{"result":168,"points":1,"place":2,"phase":1,"sequence":42,"times":[1490],"next_num":1,"trial_type":"ticket-choose","trial_index":127,"time_elapsed":1092674,"internal_node_id":"0.0-127.0"},{"result":154,"points":2,"place":1,"phase":1,"sequence":43,"times":[1070,833],"next_num":2,"trial_type":"ticket-choose","trial_index":128,"time_elapsed":1096646,"internal_node_id":"0.0-128.0"},{"result":157,"points":3,"place":0,"phase":1,"sequence":44,"times":[1221,550,837],"next_num":3,"trial_type":"ticket-choose","trial_index":129,"time_elapsed":1101517,"internal_node_id":"0.0-129.0"},{"result":163,"points":2,"place":1,"phase":1,"sequence":45,"times":[1925,590,500,544,620,578,878],"next_num":7,"trial_type":"ticket-choose","trial_index":130,"time_elapsed":1110402,"internal_node_id":"0.0-130.0"},{"result":163,"points":2,"place":1,"phase":1,"sequence":46,"times":[1206,359,484,577,572,545,883],"next_num":7,"trial_type":"ticket-choose","trial_index":131,"time_elapsed":1118088,"internal_node_id":"0.0-131.0"},{"result":163,"points":1,"place":2,"phase":1,"sequence":47,"times":[1114,1344],"next_num":2,"trial_type":"ticket-choose","trial_index":132,"time_elapsed":1122622,"internal_node_id":"0.0-132.0"},{"result":153,"points":3,"place":0,"phase":1,"sequence":48,"times":[1001,317,389,356,316,281,551,551,1243],"next_num":9,"trial_type":"ticket-choose","trial_index":133,"time_elapsed":1131205,"internal_node_id":"0.0-133.0"},{"result":175,"points":1,"place":3,"phase":1,"sequence":49,"times":[1273],"next_num":1,"trial_type":"ticket-choose","trial_index":134,"time_elapsed":1134463,"internal_node_id":"0.0-134.0"},{"responses":[{"value":0,"offby":0,"category":"$106 - $134","category_index":0},{"value":0,"offby":-1,"category":"$135 - $150","category_index":1},{"value":5,"offby":2,"category":"$151 - $165","category_index":2},{"value":5,"offby":-1,"category":"$166 - $180","category_index":3},{"value":6,"offby":0,"category":"$181 - $195","category_index":4},{"value":4,"offby":1,"category":"$196 - $210","category_index":5},{"value":0,"offby":-1,"category":"$211 - $225","category_index":6}],"phase":1,"number":1,"trial_type":"bar-choose","trial_index":135,"time_elapsed":1155307,"internal_node_id":"0.0-135.0"},{"special_comment":"nope","trial_type":"special_sequence","trial_index":136,"time_elapsed":1161419,"internal_node_id":"0.0-136.0"},{"during":"Nothing","bonus":260,"trial_type":"final","trial_index":137,"time_elapsed":1191095,"internal_node_id":"0.0-137.0"}],"bonus":260}