{"start_time":"2017-02-27 11:07:46","end_time":"2017-02-27 11:39:44","points_phase0":126,"points_phase1":115,"phase_order":0,"age":41,"gender":"m","tries":1,"during":"Nothing","worker_id":"A1CUTQUSPA2DPU","assignment_id":"3UWN2HHPUZYWUNMRC8Y9J7IOK3OSNZ","data":[{"rt":26743,"url":"\/tickets\/utils\/consent.html","trial_type":"html","trial_index":0,"time_elapsed":26897,"internal_node_id":"0.0-0.0"},{"age":41,"gender":"m","trial_type":"age","trial_index":1,"time_elapsed":33955,"internal_node_id":"0.0-1.0"},{"worker_id":"A1CUTQUSPA2DPU","trial_type":"workerid","trial_index":2,"time_elapsed":41712,"internal_node_id":"0.0-2.0"},{"tries":1,"trial_type":"instructions_check","trial_index":3,"time_elapsed":81968,"internal_node_id":"0.0-3.0"},{"rt":18052,"url":"\/tickets\/utils\/start.html","trial_type":"html","trial_index":4,"time_elapsed":101183,"internal_node_id":"0.0-4.0"},{"trial_type":"number-animation","trial_index":5,"time_elapsed":153765,"internal_node_id":"0.0-5.0"},{"phase":0,"sequence":0,"avg":180,"response":180,"trial_type":"training_avg","trial_index":6,"time_elapsed":168750,"internal_node_id":"0.0-6.0"},{"trial_type":"number-animation","trial_index":7,"time_elapsed":200292,"internal_node_id":"0.0-7.0"},{"phase":0,"sequence":1,"avg":178,"response":180,"trial_type":"training_avg","trial_index":8,"time_elapsed":212378,"internal_node_id":"0.0-8.0"},{"trial_type":"number-animation","trial_index":9,"time_elapsed":245852,"internal_node_id":"0.0-9.0"},{"phase":0,"sequence":2,"avg":176,"response":176,"trial_type":"training_avg","trial_index":10,"time_elapsed":255665,"internal_node_id":"0.0-10.0"},{"trial_type":"number-animation","trial_index":11,"time_elapsed":282768,"internal_node_id":"0.0-11.0"},{"phase":0,"sequence":3,"avg":178,"response":174,"trial_type":"training_avg","trial_index":12,"time_elapsed":294581,"internal_node_id":"0.0-12.0"},{"trial_type":"number-animation","trial_index":13,"time_elapsed":317468,"internal_node_id":"0.0-13.0"},{"phase":0,"sequence":4,"avg":179,"response":177,"trial_type":"training_avg","trial_index":14,"time_elapsed":327112,"internal_node_id":"0.0-14.0"},{"responses":[{"value":20,"offby":20,"category":"$140 - $250","category_index":0},{"value":0,"offby":0,"category":"$151 - $160","category_index":1},{"value":0,"offby":-4,"category":"$161 - $170","category_index":2},{"value":0,"offby":-6,"category":"$171 - $180","category_index":3},{"value":0,"offby":-7,"category":"$181 - $190","category_index":4},{"value":0,"offby":-3,"category":"$191 - $200","category_index":5},{"value":0,"offby":0,"category":"$201 - $210","category_index":6}],"phase":0,"number":0,"trial_type":"bar-choose","trial_index":15,"time_elapsed":445165,"internal_node_id":"0.0-15.0"},{"rt":23928,"url":"\/tickets\/\/utils\/testing.html","trial_type":"html","trial_index":16,"time_elapsed":470244,"internal_node_id":"0.0-16.0"},{"phase":0,"order":[22,47,11,3,44,4,42,35,13,21,5,15,8,48,24,0,9,46,27,36,30,49,23,32,6,39,29,20,41,18,16,38,19,10,17,12,34,2,14,28,43,1,26,25,40,45,7,33,31,37],"trial_type":"store_order","trial_index":17,"time_elapsed":471246,"internal_node_id":"0.0-17.0"},{"result":165,"points":2,"place":1,"phase":0,"sequence":-1,"prices":[184,180,224,165,181,199,185,193,218,126],"times":[3397,2051,1901,4529],"next_num":4,"trial_type":"ticket-choose","trial_index":18,"time_elapsed":487890,"internal_node_id":"0.0-18.0"},{"rt":24875,"url":"\/tickets\/utils\/testing_after.html","trial_type":"html","trial_index":19,"time_elapsed":513900,"internal_node_id":"0.0-19.0"},{"result":168,"points":2,"place":1,"phase":0,"sequence":0,"prices":[173,178,176,193,177,182,168,172,164,183],"times":[2823,1420,1676,1464,1399,1660,3944],"next_num":7,"trial_type":"ticket-choose","trial_index":20,"time_elapsed":533140,"internal_node_id":"0.0-20.0"},{"result":174,"points":2,"place":1,"phase":0,"sequence":1,"prices":[180,175,173,177,191,190,184,196,174,181],"times":[1552,1540,1437,1486,1149,1293,1169,1178,3186],"next_num":9,"trial_type":"ticket-choose","trial_index":21,"time_elapsed":553778,"internal_node_id":"0.0-21.0"},{"result":166,"points":3,"place":0,"phase":0,"sequence":2,"prices":[175,180,170,195,179,184,178,174,166,185],"times":[1515,781,4154,892,935,1010,1226,1860,3184],"next_num":9,"trial_type":"ticket-choose","trial_index":22,"time_elapsed":574575,"internal_node_id":"0.0-22.0"},{"result":169,"points":2,"place":1,"phase":0,"sequence":3,"prices":[174,179,169,194,178,183,177,173,165,184],"times":[1843,1094,6278],"next_num":3,"trial_type":"ticket-choose","trial_index":23,"time_elapsed":587509,"internal_node_id":"0.0-23.0"},{"result":150,"points":3,"place":0,"phase":0,"sequence":4,"prices":[175,150,164,155,171,199,158,180,184,196],"times":[1461,3121],"next_num":2,"trial_type":"ticket-choose","trial_index":24,"time_elapsed":595764,"internal_node_id":"0.0-24.0"},{"result":169,"points":2,"place":1,"phase":0,"sequence":5,"prices":[175,179,177,193,178,182,169,172,164,183],"times":[1146,1033,965,1161,1124,1166,3008],"next_num":7,"trial_type":"ticket-choose","trial_index":25,"time_elapsed":609547,"internal_node_id":"0.0-25.0"},{"result":160,"points":3,"place":0,"phase":0,"sequence":6,"prices":[175,193,175,160,180,170,175,205,177,167],"times":[1625,618,949,2832],"next_num":4,"trial_type":"ticket-choose","trial_index":26,"time_elapsed":619288,"internal_node_id":"0.0-26.0"},{"result":154,"points":3,"place":0,"phase":0,"sequence":7,"prices":[188,179,154,183,173,170,177,160,169,175],"times":[1201,925,3001],"next_num":3,"trial_type":"ticket-choose","trial_index":27,"time_elapsed":627864,"internal_node_id":"0.0-27.0"},{"result":170,"points":2,"place":1,"phase":0,"sequence":8,"prices":[176,180,178,194,179,183,170,173,165,184],"times":[1336,988,1045,1051,956,1201,2825],"next_num":7,"trial_type":"ticket-choose","trial_index":28,"time_elapsed":641214,"internal_node_id":"0.0-28.0"},{"result":168,"points":2,"place":1,"phase":0,"sequence":9,"prices":[174,178,176,192,177,181,168,171,163,182],"times":[890,690,726,995,1077,916,2616],"next_num":7,"trial_type":"ticket-choose","trial_index":29,"time_elapsed":653030,"internal_node_id":"0.0-29.0"},{"result":169,"points":2,"place":1,"phase":0,"sequence":10,"prices":[175,179,177,193,178,182,169,172,164,183],"times":[1632,628,491,484,573,523,5806],"next_num":7,"trial_type":"ticket-choose","trial_index":30,"time_elapsed":667306,"internal_node_id":"0.0-30.0"},{"result":170,"points":2,"place":1,"phase":0,"sequence":11,"prices":[175,180,178,195,179,184,170,174,166,185],"times":[816,549,748,852,897,914,2410],"next_num":7,"trial_type":"ticket-choose","trial_index":31,"time_elapsed":678290,"internal_node_id":"0.0-31.0"},{"result":165,"points":3,"place":0,"phase":0,"sequence":12,"prices":[176,180,170,194,179,183,178,173,165,184],"times":[1116,644,2278,555,819,763,987,1637,2760],"next_num":9,"trial_type":"ticket-choose","trial_index":32,"time_elapsed":694512,"internal_node_id":"0.0-32.0"},{"result":171,"points":3,"place":0,"phase":0,"sequence":13,"prices":[193,173,175,182,179,198,181,171,176,187],"times":[1921,990,780,594,636,885,1028,2546],"next_num":8,"trial_type":"ticket-choose","trial_index":33,"time_elapsed":708181,"internal_node_id":"0.0-33.0"},{"result":161,"points":3,"place":0,"phase":0,"sequence":14,"prices":[161,180,170,174,178,198,173,182,188,176],"times":[3367],"next_num":1,"trial_type":"ticket-choose","trial_index":34,"time_elapsed":714444,"internal_node_id":"0.0-34.0"},{"result":164,"points":3,"place":0,"phase":0,"sequence":15,"prices":[175,179,169,193,178,182,177,172,164,183],"times":[1094,586,1043,637,684,948,894,883,2605],"next_num":9,"trial_type":"ticket-choose","trial_index":35,"time_elapsed":728347,"internal_node_id":"0.0-35.0"},{"result":165,"points":3,"place":0,"phase":0,"sequence":16,"prices":[176,180,170,194,179,183,178,173,165,184],"times":[954,523,1020,517,514,521,478,947,2337],"next_num":9,"trial_type":"ticket-choose","trial_index":36,"time_elapsed":740233,"internal_node_id":"0.0-36.0"},{"result":166,"points":3,"place":0,"phase":0,"sequence":17,"prices":[179,186,197,201,166,187,188,193,190,177],"times":[1066,637,473,571,2840],"next_num":5,"trial_type":"ticket-choose","trial_index":37,"time_elapsed":749225,"internal_node_id":"0.0-37.0"},{"result":168,"points":3,"place":0,"phase":0,"sequence":18,"prices":[168,188,171,181,184,196,180,194,195,183],"times":[4101],"next_num":1,"trial_type":"ticket-choose","trial_index":38,"time_elapsed":756063,"internal_node_id":"0.0-38.0"},{"result":169,"points":1,"place":2,"phase":0,"sequence":19,"prices":[189,185,169,168,167,171,180,173,174,188],"times":[1482,523,3799],"next_num":3,"trial_type":"ticket-choose","trial_index":39,"time_elapsed":764998,"internal_node_id":"0.0-39.0"},{"result":160,"points":3,"place":0,"phase":0,"sequence":20,"prices":[160,185,170,174,182,196,173,186,194,177],"times":[2617],"next_num":1,"trial_type":"ticket-choose","trial_index":40,"time_elapsed":770109,"internal_node_id":"0.0-40.0"},{"result":165,"points":3,"place":0,"phase":0,"sequence":21,"prices":[175,189,193,170,179,165,180,186,177,184],"times":[2473,556,516,554,522,2760],"next_num":6,"trial_type":"ticket-choose","trial_index":41,"time_elapsed":781140,"internal_node_id":"0.0-41.0"},{"result":164,"points":3,"place":0,"phase":0,"sequence":22,"prices":[173,178,176,193,177,182,168,172,164,183],"times":[794,442,503,463,461,439,1349,1004,2203],"next_num":9,"trial_type":"ticket-choose","trial_index":42,"time_elapsed":792970,"internal_node_id":"0.0-42.0"},{"result":175,"points":1,"place":4,"phase":0,"sequence":23,"prices":[171,180,172,174,179,188,173,183,186,175],"times":[1169,461,362,380,377,509,675,951,1049,2354],"next_num":10,"trial_type":"ticket-choose","trial_index":43,"time_elapsed":806130,"internal_node_id":"0.0-43.0"},{"result":169,"points":2,"place":1,"phase":0,"sequence":24,"prices":[174,179,177,194,178,183,169,173,165,184],"times":[2491,605,548,832,660,554,2608],"next_num":7,"trial_type":"ticket-choose","trial_index":44,"time_elapsed":818295,"internal_node_id":"0.0-44.0"},{"result":156,"points":3,"place":0,"phase":0,"sequence":25,"prices":[195,177,197,179,171,173,175,156,163,204],"times":[674,317,443,518,2372,642,1550,2271],"next_num":8,"trial_type":"ticket-choose","trial_index":45,"time_elapsed":830998,"internal_node_id":"0.0-45.0"},{"result":174,"points":1,"place":4,"phase":0,"sequence":26,"prices":[166,190,170,173,178,203,172,192,198,174],"times":[1839,500,453,483,429,749,572,733,826,2017],"next_num":10,"trial_type":"ticket-choose","trial_index":46,"time_elapsed":843891,"internal_node_id":"0.0-46.0"},{"result":168,"points":2,"place":1,"phase":0,"sequence":27,"prices":[174,178,176,192,177,181,168,171,163,182],"times":[1750,484,454,475,525,773,2337],"next_num":7,"trial_type":"ticket-choose","trial_index":47,"time_elapsed":854145,"internal_node_id":"0.0-47.0"},{"result":165,"points":3,"place":0,"phase":0,"sequence":28,"prices":[180,165,177,193,186,196,187,169,171,182],"times":[626,2248],"next_num":2,"trial_type":"ticket-choose","trial_index":48,"time_elapsed":859524,"internal_node_id":"0.0-48.0"},{"result":164,"points":3,"place":0,"phase":0,"sequence":29,"prices":[173,178,168,193,177,182,176,172,164,183],"times":[778,901,1109,508,477,517,515,900,2093],"next_num":9,"trial_type":"ticket-choose","trial_index":49,"time_elapsed":871271,"internal_node_id":"0.0-49.0"},{"result":163,"points":3,"place":0,"phase":0,"sequence":30,"prices":[174,178,168,192,177,181,176,171,163,182],"times":[782,433,372,483,442,476,701,598,2146],"next_num":9,"trial_type":"ticket-choose","trial_index":50,"time_elapsed":882868,"internal_node_id":"0.0-50.0"},{"result":177,"points":1,"place":2,"phase":0,"sequence":31,"prices":[181,179,199,188,170,172,178,187,191,177],"times":[725,221,282,469,701,459,572,588,829,1888],"next_num":10,"trial_type":"ticket-choose","trial_index":51,"time_elapsed":893909,"internal_node_id":"0.0-51.0"},{"result":164,"points":3,"place":0,"phase":0,"sequence":32,"prices":[173,178,168,193,177,182,176,172,164,183],"times":[1485,495,998,516,518,845,716,885,2400],"next_num":9,"trial_type":"ticket-choose","trial_index":52,"time_elapsed":907002,"internal_node_id":"0.0-52.0"},{"result":166,"points":3,"place":0,"phase":0,"sequence":33,"prices":[175,180,170,195,179,184,178,174,166,185],"times":[1017,543,509,540,444,571,577,615,2448],"next_num":9,"trial_type":"ticket-choose","trial_index":53,"time_elapsed":918490,"internal_node_id":"0.0-53.0"},{"result":163,"points":3,"place":0,"phase":0,"sequence":34,"prices":[174,178,168,192,177,181,176,171,163,182],"times":[728,402,719,491,437,492,611,806,2473],"next_num":9,"trial_type":"ticket-choose","trial_index":54,"time_elapsed":929649,"internal_node_id":"0.0-54.0"},{"result":165,"points":3,"place":0,"phase":0,"sequence":35,"prices":[176,180,178,194,179,183,170,173,165,184],"times":[607,462,449,533,482,477,592,567,2521],"next_num":9,"trial_type":"ticket-choose","trial_index":55,"time_elapsed":940231,"internal_node_id":"0.0-55.0"},{"result":165,"points":2,"place":1,"phase":0,"sequence":36,"prices":[181,180,191,186,165,197,159,167,194,185],"times":[849,395,428,446,2521],"next_num":5,"trial_type":"ticket-choose","trial_index":56,"time_elapsed":947981,"internal_node_id":"0.0-56.0"},{"result":165,"points":3,"place":0,"phase":0,"sequence":37,"prices":[174,179,169,194,178,183,177,173,165,184],"times":[842,453,395,349,422,474,459,1067,2457],"next_num":9,"trial_type":"ticket-choose","trial_index":57,"time_elapsed":959428,"internal_node_id":"0.0-57.0"},{"result":166,"points":3,"place":0,"phase":0,"sequence":38,"prices":[175,180,178,195,179,184,170,174,166,185],"times":[1497,389,300,502,437,475,459,869,2328],"next_num":9,"trial_type":"ticket-choose","trial_index":58,"time_elapsed":970595,"internal_node_id":"0.0-58.0"},{"result":159,"points":3,"place":0,"phase":0,"sequence":39,"prices":[159,178,170,174,176,194,173,182,185,175],"times":[2459],"next_num":1,"trial_type":"ticket-choose","trial_index":59,"time_elapsed":975418,"internal_node_id":"0.0-59.0"},{"result":157,"points":2,"place":1,"phase":0,"sequence":40,"prices":[188,191,179,157,181,164,166,156,175,182],"times":[1109,514,582,2447],"next_num":4,"trial_type":"ticket-choose","trial_index":60,"time_elapsed":983264,"internal_node_id":"0.0-60.0"},{"result":164,"points":3,"place":0,"phase":0,"sequence":41,"prices":[175,179,169,193,178,182,177,172,164,183],"times":[1401,491,957,530,644,515,838,891,2393],"next_num":9,"trial_type":"ticket-choose","trial_index":61,"time_elapsed":995864,"internal_node_id":"0.0-61.0"},{"result":165,"points":3,"place":0,"phase":0,"sequence":42,"prices":[165,187,173,177,186,196,176,191,192,181],"times":[3588],"next_num":1,"trial_type":"ticket-choose","trial_index":62,"time_elapsed":1001992,"internal_node_id":"0.0-62.0"},{"result":163,"points":3,"place":0,"phase":0,"sequence":43,"prices":[163,185,165,174,181,198,173,186,187,180],"times":[2367],"next_num":1,"trial_type":"ticket-choose","trial_index":63,"time_elapsed":1006759,"internal_node_id":"0.0-63.0"},{"result":167,"points":3,"place":0,"phase":0,"sequence":44,"prices":[179,174,199,178,196,167,170,184,177,190],"times":[1248,556,445,476,533,3241],"next_num":6,"trial_type":"ticket-choose","trial_index":64,"time_elapsed":1016771,"internal_node_id":"0.0-64.0"},{"result":162,"points":3,"place":0,"phase":0,"sequence":45,"prices":[179,174,172,162,202,184,165,197,185,169],"times":[1186,718,477,2985],"next_num":4,"trial_type":"ticket-choose","trial_index":65,"time_elapsed":1025243,"internal_node_id":"0.0-65.0"},{"result":169,"points":2,"place":1,"phase":0,"sequence":46,"prices":[174,179,177,194,178,183,169,173,165,184],"times":[607,427,396,475,429,483,2640],"next_num":7,"trial_type":"ticket-choose","trial_index":66,"time_elapsed":1034400,"internal_node_id":"0.0-66.0"},{"result":179,"points":1,"place":4,"phase":0,"sequence":47,"prices":[170,183,172,175,180,189,174,187,188,179],"times":[1425,978,525,475,460,685,883,661,628,2257],"next_num":10,"trial_type":"ticket-choose","trial_index":67,"time_elapsed":1047702,"internal_node_id":"0.0-67.0"},{"result":157,"points":3,"place":0,"phase":0,"sequence":48,"prices":[157,184,163,174,181,190,168,187,189,177],"times":[2066],"next_num":1,"trial_type":"ticket-choose","trial_index":68,"time_elapsed":1052111,"internal_node_id":"0.0-68.0"},{"result":168,"points":2,"place":1,"phase":0,"sequence":49,"prices":[181,175,182,168,183,173,153,170,193,179],"times":[1277,658,517,2693],"next_num":4,"trial_type":"ticket-choose","trial_index":69,"time_elapsed":1060269,"internal_node_id":"0.0-69.0"},{"responses":[{"value":0,"offby":0,"category":"$140 - $250","category_index":0},{"value":4,"offby":4,"category":"$151 - $160","category_index":1},{"value":6,"offby":2,"category":"$161 - $170","category_index":2},{"value":8,"offby":2,"category":"$171 - $180","category_index":3},{"value":2,"offby":-5,"category":"$181 - $190","category_index":4},{"value":0,"offby":-3,"category":"$191 - $200","category_index":5},{"value":0,"offby":0,"category":"$201 - $210","category_index":6}],"phase":0,"number":1,"trial_type":"bar-choose","trial_index":70,"time_elapsed":1127379,"internal_node_id":"0.0-70.0"},{"rt":13078,"url":"\/tickets\/utils\/start2.html","trial_type":"html","trial_index":71,"time_elapsed":1141602,"internal_node_id":"0.0-71.0"},{"trial_type":"number-animation","trial_index":72,"time_elapsed":1169571,"internal_node_id":"0.0-72.0"},{"phase":1,"sequence":0,"avg":166,"response":160,"trial_type":"training_avg","trial_index":73,"time_elapsed":1182181,"internal_node_id":"0.0-73.0"},{"trial_type":"number-animation","trial_index":74,"time_elapsed":1210350,"internal_node_id":"0.0-74.0"},{"phase":1,"sequence":1,"avg":198,"response":180,"trial_type":"training_avg","trial_index":75,"time_elapsed":1220249,"internal_node_id":"0.0-75.0"},{"trial_type":"number-animation","trial_index":76,"time_elapsed":1243026,"internal_node_id":"0.0-76.0"},{"phase":1,"sequence":2,"avg":177,"response":150,"trial_type":"training_avg","trial_index":77,"time_elapsed":1251117,"internal_node_id":"0.0-77.0"},{"trial_type":"number-animation","trial_index":78,"time_elapsed":1271533,"internal_node_id":"0.0-78.0"},{"phase":1,"sequence":3,"avg":190,"response":155,"trial_type":"training_avg","trial_index":79,"time_elapsed":1279259,"internal_node_id":"0.0-79.0"},{"trial_type":"number-animation","trial_index":80,"time_elapsed":1302016,"internal_node_id":"0.0-80.0"},{"phase":1,"sequence":4,"avg":201,"response":195,"trial_type":"training_avg","trial_index":81,"time_elapsed":1309790,"internal_node_id":"0.0-81.0"},{"responses":[{"value":1,"offby":0,"category":"$30 - $75","category_index":0},{"value":2,"offby":0,"category":"$76 - $120","category_index":1},{"value":3,"offby":-1,"category":"$121 - $165","category_index":2},{"value":6,"offby":0,"category":"$166 - $210","category_index":3},{"value":7,"offby":1,"category":"$211 - $255","category_index":4},{"value":1,"offby":0,"category":"$256 - $300","category_index":5},{"value":0,"offby":0,"category":"$301 - $345","category_index":6}],"phase":1,"number":0,"trial_type":"bar-choose","trial_index":82,"time_elapsed":1364369,"internal_node_id":"0.0-82.0"},{"rt":11485,"url":"\/tickets\/utils\/testing2.html","trial_type":"html","trial_index":83,"time_elapsed":1377021,"internal_node_id":"0.0-83.0"},{"phase":1,"order":[24,11,26,2,14,22,6,35,21,8,28,31,30,0,45,3,46,32,17,10,34,48,43,1,33,41,40,49,29,18,7,37,19,36,42,5,47,44,39,27,9,38,23,16,4,12,15,20,25,13],"trial_type":"store_order","trial_index":84,"time_elapsed":1378025,"internal_node_id":"0.0-84.0"},{"result":86,"points":3,"place":0,"phase":1,"sequence":0,"prices":[86,180,130,151,170,271,145,191,220,160],"times":[4172],"next_num":1,"trial_type":"ticket-choose","trial_index":85,"time_elapsed":1385028,"internal_node_id":"0.0-85.0"},{"result":130,"points":2,"place":1,"phase":1,"sequence":1,"prices":[156,181,130,255,175,200,170,150,111,205],"times":[1626,741,2999],"next_num":3,"trial_type":"ticket-choose","trial_index":86,"time_elapsed":1393323,"internal_node_id":"0.0-86.0"},{"result":105,"points":3,"place":0,"phase":1,"sequence":2,"prices":[105,216,146,165,210,260,161,235,241,185],"times":[3554],"next_num":1,"trial_type":"ticket-choose","trial_index":87,"time_elapsed":1399274,"internal_node_id":"0.0-87.0"},{"result":126,"points":2,"place":1,"phase":1,"sequence":3,"prices":[151,176,126,251,170,196,165,145,105,201],"times":[1402,597,2347],"next_num":3,"trial_type":"ticket-choose","trial_index":88,"time_elapsed":1406298,"internal_node_id":"0.0-88.0"},{"result":130,"points":2,"place":1,"phase":1,"sequence":4,"prices":[155,181,170,255,176,200,130,150,110,205],"times":[1291,485,509,869,788,613,2351],"next_num":7,"trial_type":"ticket-choose","trial_index":89,"time_elapsed":1416800,"internal_node_id":"0.0-89.0"},{"result":120,"points":2,"place":1,"phase":1,"sequence":5,"prices":[145,171,161,245,165,191,120,140,100,196],"times":[1242,540,589,523,524,541,2112],"next_num":7,"trial_type":"ticket-choose","trial_index":90,"time_elapsed":1426423,"internal_node_id":"0.0-90.0"},{"result":126,"points":2,"place":1,"phase":1,"sequence":6,"prices":[150,175,166,251,170,196,126,145,105,201],"times":[1030,526,707,636,781,510,2375],"next_num":7,"trial_type":"ticket-choose","trial_index":91,"time_elapsed":1436484,"internal_node_id":"0.0-91.0"},{"result":51,"points":3,"place":0,"phase":1,"sequence":7,"prices":[221,175,51,196,146,130,166,80,126,156],"times":[640,436,2072],"next_num":3,"trial_type":"ticket-choose","trial_index":92,"time_elapsed":1442188,"internal_node_id":"0.0-92.0"},{"result":120,"points":2,"place":1,"phase":1,"sequence":8,"prices":[150,170,160,241,166,186,120,136,96,191],"times":[731,605,702,491,639,476,2362],"next_num":7,"trial_type":"ticket-choose","trial_index":93,"time_elapsed":1451579,"internal_node_id":"0.0-93.0"},{"result":131,"points":2,"place":1,"phase":1,"sequence":9,"prices":[161,180,131,251,175,196,171,146,105,201],"times":[668,452,2129],"next_num":3,"trial_type":"ticket-choose","trial_index":94,"time_elapsed":1457497,"internal_node_id":"0.0-94.0"},{"result":75,"points":3,"place":0,"phase":1,"sequence":10,"prices":[75,171,131,151,161,250,145,190,206,156],"times":[2325],"next_num":1,"trial_type":"ticket-choose","trial_index":95,"time_elapsed":1461993,"internal_node_id":"0.0-95.0"},{"result":66,"points":3,"place":0,"phase":1,"sequence":11,"prices":[66,201,96,150,185,230,121,216,225,165],"times":[1658],"next_num":1,"trial_type":"ticket-choose","trial_index":96,"time_elapsed":1466065,"internal_node_id":"0.0-96.0"},{"result":81,"points":3,"place":0,"phase":1,"sequence":12,"prices":[81,205,130,151,191,261,145,210,250,165],"times":[1207],"next_num":1,"trial_type":"ticket-choose","trial_index":97,"time_elapsed":1469535,"internal_node_id":"0.0-97.0"},{"result":100,"points":3,"place":0,"phase":1,"sequence":13,"prices":[156,175,126,246,170,190,165,140,100,196],"times":[1378,500,493,516,500,547,668,903,2200],"next_num":9,"trial_type":"ticket-choose","trial_index":98,"time_elapsed":1480927,"internal_node_id":"0.0-98.0"},{"result":91,"points":3,"place":0,"phase":1,"sequence":14,"prices":[176,150,141,91,290,201,106,266,206,126],"times":[599,449,447,2041],"next_num":4,"trial_type":"ticket-choose","trial_index":99,"time_elapsed":1487278,"internal_node_id":"0.0-99.0"},{"result":105,"points":3,"place":0,"phase":1,"sequence":15,"prices":[150,176,126,251,171,195,165,145,105,200],"times":[548,429,853,531,524,527,473,533,2243],"next_num":9,"trial_type":"ticket-choose","trial_index":100,"time_elapsed":1497700,"internal_node_id":"0.0-100.0"},{"result":165,"points":2,"place":1,"phase":1,"sequence":16,"prices":[175,211,266,286,111,216,220,245,230,165],"times":[453,477,461,453,1557,504,548,532,509,2050],"next_num":10,"trial_type":"ticket-choose","trial_index":101,"time_elapsed":1509930,"internal_node_id":"0.0-101.0"},{"result":155,"points":1,"place":4,"phase":1,"sequence":17,"prices":[135,180,141,151,175,220,145,196,211,155],"times":[1674,444,516,651,460,573,1076,572,917,2123],"next_num":10,"trial_type":"ticket-choose","trial_index":102,"time_elapsed":1523163,"internal_node_id":"0.0-102.0"},{"result":96,"points":3,"place":0,"phase":1,"sequence":18,"prices":[150,171,120,241,165,185,160,135,96,190],"times":[729,539,955,523,550,492,500,683,1929],"next_num":9,"trial_type":"ticket-choose","trial_index":103,"time_elapsed":1533776,"internal_node_id":"0.0-103.0"},{"result":111,"points":3,"place":0,"phase":1,"sequence":19,"prices":[156,181,131,256,176,200,171,151,111,206],"times":[617,452,442,477,502,467,604,539,2149],"next_num":9,"trial_type":"ticket-choose","trial_index":104,"time_elapsed":1544150,"internal_node_id":"0.0-104.0"},{"result":106,"points":2,"place":1,"phase":1,"sequence":20,"prices":[185,180,235,210,106,266,76,115,250,205],"times":[554,300,411,492,2256],"next_num":5,"trial_type":"ticket-choose","trial_index":105,"time_elapsed":1551014,"internal_node_id":"0.0-105.0"},{"result":136,"points":3,"place":0,"phase":1,"sequence":21,"prices":[246,145,155,191,176,270,185,136,160,215],"times":[448,348,467,478,423,460,470,2921],"next_num":8,"trial_type":"ticket-choose","trial_index":106,"time_elapsed":1560604,"internal_node_id":"0.0-106.0"},{"result":65,"points":2,"place":1,"phase":1,"sequence":22,"prices":[220,236,176,65,185,101,110,61,156,191],"times":[838,364,364,2161],"next_num":4,"trial_type":"ticket-choose","trial_index":107,"time_elapsed":1567157,"internal_node_id":"0.0-107.0"},{"result":101,"points":3,"place":0,"phase":1,"sequence":23,"prices":[156,175,125,245,170,190,165,140,101,196],"times":[529,373,389,451,466,476,579,521,1968],"next_num":9,"trial_type":"ticket-choose","trial_index":108,"time_elapsed":1576666,"internal_node_id":"0.0-108.0"},{"result":175,"points":1,"place":4,"phase":1,"sequence":24,"prices":[130,195,141,155,181,226,150,216,221,175],"times":[623,387,394,421,525,451,499,620,580,1829],"next_num":10,"trial_type":"ticket-choose","trial_index":109,"time_elapsed":1586881,"internal_node_id":"0.0-109.0"},{"result":190,"points":0,"place":5,"phase":1,"sequence":25,"prices":[180,106,166,245,211,261,215,125,135,190],"times":[506,417,509,492,502,476,454,2235,678,2090],"next_num":10,"trial_type":"ticket-choose","trial_index":110,"time_elapsed":1599543,"internal_node_id":"0.0-110.0"},{"result":116,"points":3,"place":0,"phase":1,"sequence":26,"prices":[176,150,276,171,261,116,130,201,166,231],"times":[661,629,500,581,587,2032],"next_num":6,"trial_type":"ticket-choose","trial_index":111,"time_elapsed":1607672,"internal_node_id":"0.0-111.0"},{"result":130,"points":2,"place":1,"phase":1,"sequence":27,"prices":[155,225,245,130,176,106,180,211,165,200],"times":[575,468,474,2150],"next_num":4,"trial_type":"ticket-choose","trial_index":112,"time_elapsed":1613944,"internal_node_id":"0.0-112.0"},{"result":111,"points":3,"place":0,"phase":1,"sequence":28,"prices":[111,231,131,146,171,295,141,241,271,150],"times":[1327],"next_num":1,"trial_type":"ticket-choose","trial_index":113,"time_elapsed":1617420,"internal_node_id":"0.0-113.0"},{"result":100,"points":3,"place":0,"phase":1,"sequence":29,"prices":[146,171,120,245,165,191,160,140,100,196],"times":[1809,513,470,459,517,523,580,1613,2046],"next_num":9,"trial_type":"ticket-choose","trial_index":114,"time_elapsed":1629990,"internal_node_id":"0.0-114.0"},{"result":126,"points":2,"place":1,"phase":1,"sequence":30,"prices":[151,175,166,251,170,195,126,146,105,201],"times":[986,456,461,499,564,498,2290],"next_num":7,"trial_type":"ticket-choose","trial_index":115,"time_elapsed":1639185,"internal_node_id":"0.0-115.0"},{"result":120,"points":2,"place":1,"phase":1,"sequence":31,"prices":[186,156,191,120,195,145,45,130,246,176],"times":[748,452,500,2591],"next_num":4,"trial_type":"ticket-choose","trial_index":116,"time_elapsed":1646196,"internal_node_id":"0.0-116.0"},{"result":121,"points":2,"place":1,"phase":1,"sequence":32,"prices":[146,170,121,245,166,190,161,141,100,195],"times":[572,443,2122],"next_num":3,"trial_type":"ticket-choose","trial_index":117,"time_elapsed":1651905,"internal_node_id":"0.0-117.0"},{"result":120,"points":2,"place":1,"phase":1,"sequence":33,"prices":[226,205,125,120,115,135,180,145,150,220],"times":[422,604,675,2310],"next_num":4,"trial_type":"ticket-choose","trial_index":118,"time_elapsed":1658584,"internal_node_id":"0.0-118.0"},{"result":81,"points":3,"place":0,"phase":1,"sequence":34,"prices":[155,245,155,81,180,130,156,306,166,115],"times":[1026,444,549,2089],"next_num":4,"trial_type":"ticket-choose","trial_index":119,"time_elapsed":1665903,"internal_node_id":"0.0-119.0"},{"result":101,"points":3,"place":0,"phase":1,"sequence":35,"prices":[156,176,165,246,171,190,126,141,101,196],"times":[438,437,493,460,470,484,1042,565,1995],"next_num":9,"trial_type":"ticket-choose","trial_index":120,"time_elapsed":1675992,"internal_node_id":"0.0-120.0"},{"result":150,"points":2,"place":1,"phase":1,"sequence":36,"prices":[181,156,145,165,236,231,201,260,150,185],"times":[608,374,421,605,779,691,572,868,2192],"next_num":9,"trial_type":"ticket-choose","trial_index":121,"time_elapsed":1686895,"internal_node_id":"0.0-121.0"},{"result":30,"points":3,"place":0,"phase":1,"sequence":37,"prices":[155,30,101,55,136,276,70,181,200,261],"times":[841,2377],"next_num":2,"trial_type":"ticket-choose","trial_index":122,"time_elapsed":1692899,"internal_node_id":"0.0-122.0"},{"result":61,"points":3,"place":0,"phase":1,"sequence":38,"prices":[255,166,266,175,136,145,155,61,96,301],"times":[932,458,448,475,546,499,516,2287],"next_num":8,"trial_type":"ticket-choose","trial_index":123,"time_elapsed":1702498,"internal_node_id":"0.0-123.0"},{"result":196,"points":1,"place":4,"phase":1,"sequence":39,"prices":[120,221,135,185,200,261,181,251,255,196],"times":[1642,532,540,445,549,454,613,516,573,1920],"next_num":10,"trial_type":"ticket-choose","trial_index":124,"time_elapsed":1714350,"internal_node_id":"0.0-124.0"},{"result":146,"points":1,"place":2,"phase":1,"sequence":40,"prices":[160,180,130,251,176,195,170,146,105,200],"times":[772,468,436,502,490,492,646,2863],"next_num":8,"trial_type":"ticket-choose","trial_index":125,"time_elapsed":1724632,"internal_node_id":"0.0-125.0"},{"result":130,"points":3,"place":0,"phase":1,"sequence":41,"prices":[185,175,276,221,130,141,171,216,235,165],"times":[623,774,480,509,2125],"next_num":5,"trial_type":"ticket-choose","trial_index":126,"time_elapsed":1732046,"internal_node_id":"0.0-126.0"},{"result":120,"points":2,"place":1,"phase":1,"sequence":42,"prices":[145,170,160,245,165,190,120,141,100,195],"times":[832,508,606,508,577,557,2174],"next_num":7,"trial_type":"ticket-choose","trial_index":127,"time_elapsed":1741195,"internal_node_id":"0.0-127.0"},{"result":136,"points":1,"place":2,"phase":1,"sequence":43,"prices":[150,171,121,241,165,185,160,136,95,191],"times":[971,500,996,470,502,435,526,2174],"next_num":8,"trial_type":"ticket-choose","trial_index":128,"time_elapsed":1751356,"internal_node_id":"0.0-128.0"},{"result":125,"points":2,"place":1,"phase":1,"sequence":44,"prices":[155,175,166,245,171,190,125,140,101,196],"times":[544,437,453,492,525,606,2256],"next_num":7,"trial_type":"ticket-choose","trial_index":129,"time_elapsed":1759985,"internal_node_id":"0.0-129.0"},{"result":131,"points":2,"place":1,"phase":1,"sequence":45,"prices":[161,180,171,250,176,195,131,146,105,201],"times":[749,507,468,381,498,479,2343],"next_num":7,"trial_type":"ticket-choose","trial_index":130,"time_elapsed":1769176,"internal_node_id":"0.0-130.0"},{"result":131,"points":2,"place":1,"phase":1,"sequence":46,"prices":[156,181,171,256,175,200,131,150,110,206],"times":[1766,653,459,492,470,580,2313],"next_num":7,"trial_type":"ticket-choose","trial_index":131,"time_elapsed":1779198,"internal_node_id":"0.0-131.0"},{"result":121,"points":2,"place":1,"phase":1,"sequence":47,"prices":[150,170,160,240,166,185,121,136,95,191],"times":[1600,341,343,468,454,517,2169],"next_num":7,"trial_type":"ticket-choose","trial_index":132,"time_elapsed":1788477,"internal_node_id":"0.0-132.0"},{"result":95,"points":3,"place":0,"phase":1,"sequence":48,"prices":[95,205,106,151,186,271,145,210,215,181],"times":[2012],"next_num":1,"trial_type":"ticket-choose","trial_index":133,"time_elapsed":1792629,"internal_node_id":"0.0-133.0"},{"result":131,"points":2,"place":1,"phase":1,"sequence":49,"prices":[160,180,170,251,176,195,131,146,105,200],"times":[1534,420,414,451,613,459,2051],"next_num":7,"trial_type":"ticket-choose","trial_index":134,"time_elapsed":1802035,"internal_node_id":"0.0-134.0"},{"responses":[{"value":1,"offby":0,"category":"$30 - $75","category_index":0},{"value":3,"offby":1,"category":"$76 - $120","category_index":1},{"value":6,"offby":2,"category":"$121 - $165","category_index":2},{"value":8,"offby":2,"category":"$166 - $210","category_index":3},{"value":2,"offby":-4,"category":"$211 - $255","category_index":4},{"value":0,"offby":-1,"category":"$256 - $300","category_index":5},{"value":0,"offby":0,"category":"$301 - $345","category_index":6}],"phase":1,"number":1,"trial_type":"bar-choose","trial_index":135,"time_elapsed":1832412,"internal_node_id":"0.0-135.0"},{"special_comment":"No,but there was an error on one of your graphs. The first graph has the dollar amount $40-$250 instead of $40-50 which I caught after submitting my answers.","trial_type":"special_sequence","trial_index":136,"time_elapsed":1892092,"internal_node_id":"0.0-136.0"},{"during":"Nothing","bonus":320,"trial_type":"final","trial_index":137,"time_elapsed":1913778,"internal_node_id":"0.0-137.0"}],"bonus":320}