{"start_time":"2017-03-01 08:25:01","end_time":"2017-03-01 08:52:35","points_phase0":105,"points_phase1":112,"phase_order":1,"age":24,"gender":"m","tries":1,"during":"Nothing","worker_id":"A1D36KAPWAUPTJ","assignment_id":"3Z3ZLGNNSJNDD3E42LPPFT5HY5BQ36","data":[{"rt":17747,"url":"\/tickets\/utils\/consent.html","trial_type":"html","trial_index":0,"time_elapsed":18416,"internal_node_id":"0.0-0.0"},{"age":24,"gender":"m","trial_type":"age","trial_index":1,"time_elapsed":24961,"internal_node_id":"0.0-1.0"},{"worker_id":"A1D36KAPWAUPTJ","trial_type":"workerid","trial_index":2,"time_elapsed":39988,"internal_node_id":"0.0-2.0"},{"tries":1,"trial_type":"instructions_check","trial_index":3,"time_elapsed":96227,"internal_node_id":"0.0-3.0"},{"rt":72071,"url":"\/tickets\/utils\/start.html","trial_type":"html","trial_index":4,"time_elapsed":169477,"internal_node_id":"0.0-4.0"},{"trial_type":"number-animation","trial_index":5,"time_elapsed":187046,"internal_node_id":"0.0-5.0"},{"phase":0,"sequence":0,"avg":188,"response":191,"trial_type":"training_avg","trial_index":6,"time_elapsed":202676,"internal_node_id":"0.0-6.0"},{"trial_type":"number-animation","trial_index":7,"time_elapsed":215278,"internal_node_id":"0.0-7.0"},{"phase":0,"sequence":1,"avg":202,"response":196,"trial_type":"training_avg","trial_index":8,"time_elapsed":229248,"internal_node_id":"0.0-8.0"},{"trial_type":"number-animation","trial_index":9,"time_elapsed":242856,"internal_node_id":"0.0-9.0"},{"phase":0,"sequence":2,"avg":200,"response":194,"trial_type":"training_avg","trial_index":10,"time_elapsed":249882,"internal_node_id":"0.0-10.0"},{"trial_type":"number-animation","trial_index":11,"time_elapsed":261981,"internal_node_id":"0.0-11.0"},{"phase":0,"sequence":3,"avg":209,"response":214,"trial_type":"training_avg","trial_index":12,"time_elapsed":270545,"internal_node_id":"0.0-12.0"},{"trial_type":"number-animation","trial_index":13,"time_elapsed":282198,"internal_node_id":"0.0-13.0"},{"phase":0,"sequence":4,"avg":195,"response":182,"trial_type":"training_avg","trial_index":14,"time_elapsed":289414,"internal_node_id":"0.0-14.0"},{"responses":[{"value":0,"offby":0,"category":"$145 - $160","category_index":0},{"value":0,"offby":-1,"category":"$161 - $175","category_index":1},{"value":3,"offby":0,"category":"$176 - $190","category_index":2},{"value":12,"offby":5,"category":"$191 - $205","category_index":3},{"value":5,"offby":-1,"category":"$206 - $220","category_index":4},{"value":0,"offby":-3,"category":"$221 - $235","category_index":5},{"value":0,"offby":0,"category":"$226 - $260","category_index":6}],"phase":0,"number":0,"trial_type":"bar-choose","trial_index":15,"time_elapsed":382447,"internal_node_id":"0.0-15.0"},{"rt":27826,"url":"\/tickets\/\/utils\/testing.html","trial_type":"html","trial_index":16,"time_elapsed":411487,"internal_node_id":"0.0-16.0"},{"phase":0,"order":[16,12,9,37,14,46,22,4,33,10,45,47,2,7,42,38,44,40,28,30,48,19,11,31,1,21,41,27,6,0,43,26,39,5,35,20,49,18,13,34,3,32,29,15,25,36,24,8,17,23],"trial_type":"store_order","trial_index":17,"time_elapsed":412488,"internal_node_id":"0.0-17.0"},{"result":165,"points":2,"place":1,"phase":0,"sequence":-1,"prices":[184,180,224,165,181,199,185,193,218,126],"times":[5602,514,598,2783],"next_num":4,"trial_type":"ticket-choose","trial_index":18,"time_elapsed":425639,"internal_node_id":"0.0-18.0"},{"rt":47354,"url":"\/tickets\/utils\/testing_after.html","trial_type":"html","trial_index":19,"time_elapsed":474171,"internal_node_id":"0.0-19.0"},{"result":188,"points":1,"place":2,"phase":0,"sequence":0,"prices":[195,205,187,244,201,206,198,188,228,176],"times":[1349,652,406,583,575,624,877,2222],"next_num":8,"trial_type":"ticket-choose","trial_index":20,"time_elapsed":486464,"internal_node_id":"0.0-20.0"},{"result":206,"points":1,"place":4,"phase":0,"sequence":1,"prices":[188,212,191,198,208,237,192,215,217,206],"times":[1117,558,1069,490,519,557,975,566,879,2366],"next_num":11,"trial_type":"ticket-choose","trial_index":21,"time_elapsed":500714,"internal_node_id":"0.0-21.0"},{"result":164,"points":3,"place":0,"phase":0,"sequence":2,"prices":[188,174,192,205,215,164,204,231,197,247],"times":[1262,485,613,551,518,1143],"next_num":6,"trial_type":"ticket-choose","trial_index":22,"time_elapsed":509021,"internal_node_id":"0.0-22.0"},{"result":173,"points":3,"place":0,"phase":0,"sequence":3,"prices":[196,206,183,246,199,207,196,186,173,228],"times":[999,522,486,587,590,510,478,630,1068],"next_num":9,"trial_type":"ticket-choose","trial_index":23,"time_elapsed":519330,"internal_node_id":"0.0-23.0"},{"result":186,"points":1,"place":2,"phase":0,"sequence":4,"prices":[194,206,183,245,201,207,196,186,173,229],"times":[559,1047,522,519,472,511,677,1138],"next_num":8,"trial_type":"ticket-choose","trial_index":24,"time_elapsed":529039,"internal_node_id":"0.0-24.0"},{"result":176,"points":3,"place":0,"phase":0,"sequence":5,"prices":[194,206,187,245,201,208,198,188,228,176],"times":[1004,470,443,539,511,427,526,3797,437,1071],"next_num":10,"trial_type":"ticket-choose","trial_index":25,"time_elapsed":542480,"internal_node_id":"0.0-25.0"},{"result":179,"points":1,"place":2,"phase":0,"sequence":6,"prices":[200,179,169,195,205,161,183,194,198,227],"times":[898,1472],"next_num":2,"trial_type":"ticket-choose","trial_index":26,"time_elapsed":547206,"internal_node_id":"0.0-26.0"},{"result":172,"points":3,"place":0,"phase":0,"sequence":7,"prices":[218,213,189,183,222,202,172,184,197,191],"times":[869,454,390,447,467,488,1047],"next_num":7,"trial_type":"ticket-choose","trial_index":27,"time_elapsed":554691,"internal_node_id":"0.0-27.0"},{"result":205,"points":1,"place":4,"phase":0,"sequence":8,"prices":[189,216,190,204,207,231,191,221,222,205],"times":[800,640,690,402,468,454,406,573,598,1042],"next_num":11,"trial_type":"ticket-choose","trial_index":28,"time_elapsed":564816,"internal_node_id":"0.0-28.0"},{"result":187,"points":2,"place":1,"phase":0,"sequence":9,"prices":[195,205,198,244,201,206,187,188,228,176],"times":[762,457,619,502,493,479,877],"next_num":7,"trial_type":"ticket-choose","trial_index":29,"time_elapsed":572195,"internal_node_id":"0.0-29.0"},{"result":187,"points":2,"place":1,"phase":0,"sequence":10,"prices":[194,206,198,245,201,208,187,188,228,176],"times":[423,384,509,503,527,606,1161],"next_num":7,"trial_type":"ticket-choose","trial_index":30,"time_elapsed":579625,"internal_node_id":"0.0-30.0"},{"result":183,"points":3,"place":0,"phase":0,"sequence":11,"prices":[188,219,216,218,205,215,247,183,197,186],"times":[409,404,422,447,461,450,555,1259],"next_num":8,"trial_type":"ticket-choose","trial_index":31,"time_elapsed":587594,"internal_node_id":"0.0-31.0"},{"result":172,"points":3,"place":0,"phase":0,"sequence":12,"prices":[172,220,178,193,202,227,181,222,224,200],"times":[1669],"next_num":1,"trial_type":"ticket-choose","trial_index":32,"time_elapsed":591468,"internal_node_id":"0.0-32.0"},{"result":183,"points":2,"place":1,"phase":0,"sequence":13,"prices":[195,206,183,244,199,207,196,185,173,230],"times":[927,534,1468],"next_num":3,"trial_type":"ticket-choose","trial_index":33,"time_elapsed":597193,"internal_node_id":"0.0-33.0"},{"result":183,"points":2,"place":1,"phase":0,"sequence":14,"prices":[195,207,183,246,200,208,196,185,174,228],"times":[416,503,967],"next_num":3,"trial_type":"ticket-choose","trial_index":34,"time_elapsed":601355,"internal_node_id":"0.0-34.0"},{"result":183,"points":2,"place":1,"phase":0,"sequence":15,"prices":[195,207,196,246,200,208,183,185,174,228],"times":[398,596,548,430,516,513,1584],"next_num":7,"trial_type":"ticket-choose","trial_index":35,"time_elapsed":609191,"internal_node_id":"0.0-35.0"},{"result":190,"points":2,"place":1,"phase":0,"sequence":16,"prices":[221,207,177,204,218,199,208,205,198,190],"times":[373,414,423,437,654,526,670,566,608,1379],"next_num":10,"trial_type":"ticket-choose","trial_index":36,"time_elapsed":619071,"internal_node_id":"0.0-36.0"},{"result":174,"points":3,"place":0,"phase":0,"sequence":17,"prices":[208,220,185,192,218,194,197,174,197,200],"times":[443,437,1031,1012,487,663,830,927],"next_num":8,"trial_type":"ticket-choose","trial_index":37,"time_elapsed":628159,"internal_node_id":"0.0-37.0"},{"result":178,"points":2,"place":1,"phase":0,"sequence":18,"prices":[195,206,178,243,201,208,197,187,228,174],"times":[533,589,981],"next_num":3,"trial_type":"ticket-choose","trial_index":38,"time_elapsed":632583,"internal_node_id":"0.0-38.0"},{"result":181,"points":3,"place":0,"phase":0,"sequence":19,"prices":[181,213,187,207,210,244,194,214,215,208],"times":[1380],"next_num":1,"trial_type":"ticket-choose","trial_index":39,"time_elapsed":635898,"internal_node_id":"0.0-39.0"},{"result":181,"points":3,"place":0,"phase":0,"sequence":20,"prices":[181,213,195,201,205,244,200,219,238,204],"times":[951],"next_num":1,"trial_type":"ticket-choose","trial_index":40,"time_elapsed":638853,"internal_node_id":"0.0-40.0"},{"result":175,"points":2,"place":1,"phase":0,"sequence":21,"prices":[201,175,168,181,188,207,192,219,196,214],"times":[1066,1199],"next_num":2,"trial_type":"ticket-choose","trial_index":41,"time_elapsed":643223,"internal_node_id":"0.0-41.0"},{"result":178,"points":2,"place":1,"phase":0,"sequence":22,"prices":[196,207,197,245,201,207,178,185,228,173],"times":[395,565,549,454,582,460,1164],"next_num":7,"trial_type":"ticket-choose","trial_index":42,"time_elapsed":650347,"internal_node_id":"0.0-42.0"},{"result":174,"points":3,"place":0,"phase":0,"sequence":23,"prices":[196,205,197,245,200,206,178,186,229,174],"times":[837,517,447,519,550,413,375,749,569,1071],"next_num":11,"trial_type":"ticket-choose","trial_index":43,"time_elapsed":660196,"internal_node_id":"0.0-43.0"},{"result":183,"points":2,"place":1,"phase":0,"sequence":24,"prices":[195,206,196,244,199,207,183,185,173,230],"times":[802,503,526,511,494,542,2187],"next_num":7,"trial_type":"ticket-choose","trial_index":44,"time_elapsed":668983,"internal_node_id":"0.0-44.0"},{"result":178,"points":2,"place":1,"phase":0,"sequence":25,"prices":[195,206,197,243,201,208,178,187,228,174],"times":[519,518,599,341,372,463,945],"next_num":7,"trial_type":"ticket-choose","trial_index":45,"time_elapsed":675914,"internal_node_id":"0.0-45.0"},{"result":228,"points":0,"place":6,"phase":0,"sequence":26,"prices":[230,204,246,213,235,178,219,195,196,228],"times":[3619,378,734,391,437,350,454,559,558,926],"next_num":11,"trial_type":"ticket-choose","trial_index":46,"time_elapsed":688692,"internal_node_id":"0.0-46.0"},{"result":187,"points":2,"place":1,"phase":0,"sequence":27,"prices":[195,206,198,245,199,207,187,189,229,173],"times":[683,536,537,496,447,520,3064],"next_num":7,"trial_type":"ticket-choose","trial_index":47,"time_elapsed":698161,"internal_node_id":"0.0-47.0"},{"result":167,"points":3,"place":0,"phase":0,"sequence":28,"prices":[201,235,189,167,202,213,197,204,196,199],"times":[495,814,424,1054],"next_num":4,"trial_type":"ticket-choose","trial_index":48,"time_elapsed":703531,"internal_node_id":"0.0-48.0"},{"result":172,"points":3,"place":0,"phase":0,"sequence":29,"prices":[220,201,223,172,195,191,180,174,196,211],"times":[599,573,495,982],"next_num":4,"trial_type":"ticket-choose","trial_index":49,"time_elapsed":708660,"internal_node_id":"0.0-49.0"},{"result":173,"points":3,"place":0,"phase":0,"sequence":30,"prices":[194,206,196,245,201,207,183,186,173,229],"times":[477,541,488,484,559,838,1879,473,640],"next_num":9,"trial_type":"ticket-choose","trial_index":50,"time_elapsed":718604,"internal_node_id":"0.0-50.0"},{"result":170,"points":3,"place":0,"phase":0,"sequence":31,"prices":[170,205,174,181,193,219,175,208,211,188],"times":[1427],"next_num":1,"trial_type":"ticket-choose","trial_index":51,"time_elapsed":722099,"internal_node_id":"0.0-51.0"},{"result":178,"points":2,"place":1,"phase":0,"sequence":32,"prices":[195,206,178,243,200,207,197,186,229,173],"times":[592,991,1081],"next_num":3,"trial_type":"ticket-choose","trial_index":52,"time_elapsed":726828,"internal_node_id":"0.0-52.0"},{"result":190,"points":1,"place":4,"phase":0,"sequence":33,"prices":[179,203,186,188,193,225,187,207,211,190],"times":[402,588,648,990,630,554,771,620,568,1164],"next_num":10,"trial_type":"ticket-choose","trial_index":53,"time_elapsed":737493,"internal_node_id":"0.0-53.0"},{"result":173,"points":3,"place":0,"phase":0,"sequence":34,"prices":[195,207,198,245,199,207,187,189,228,173],"times":[683,574,534,500,478,514,706,852,618,1013],"next_num":10,"trial_type":"ticket-choose","trial_index":54,"time_elapsed":748036,"internal_node_id":"0.0-54.0"},{"result":175,"points":2,"place":1,"phase":0,"sequence":35,"prices":[221,227,175,178,176,185,187,155,198,197],"times":[524,470,870],"next_num":3,"trial_type":"ticket-choose","trial_index":55,"time_elapsed":752176,"internal_node_id":"0.0-55.0"},{"result":173,"points":3,"place":0,"phase":0,"sequence":36,"prices":[196,206,196,246,199,207,183,186,173,228],"times":[433,514,549,455,517,440,2173,989,606],"next_num":9,"trial_type":"ticket-choose","trial_index":56,"time_elapsed":762210,"internal_node_id":"0.0-56.0"},{"result":186,"points":1,"place":2,"phase":0,"sequence":37,"prices":[196,205,178,245,200,206,197,186,229,174],"times":[485,514,454,373,358,413,481,1277],"next_num":8,"trial_type":"ticket-choose","trial_index":57,"time_elapsed":769738,"internal_node_id":"0.0-57.0"},{"result":173,"points":3,"place":0,"phase":0,"sequence":38,"prices":[195,207,187,245,199,207,198,189,228,173],"times":[388,638,768,527,1195,562,556,815,500,633],"next_num":10,"trial_type":"ticket-choose","trial_index":58,"time_elapsed":780034,"internal_node_id":"0.0-58.0"},{"result":170,"points":2,"place":1,"phase":0,"sequence":39,"prices":[168,191,170,183,187,240,182,206,207,185],"times":[444,616,934],"next_num":3,"trial_type":"ticket-choose","trial_index":59,"time_elapsed":784098,"internal_node_id":"0.0-59.0"},{"result":196,"points":1,"place":4,"phase":0,"sequence":40,"prices":[177,211,185,195,202,223,190,215,220,196],"times":[772,482,692,640,527,469,517,487,542,729],"next_num":10,"trial_type":"ticket-choose","trial_index":60,"time_elapsed":793692,"internal_node_id":"0.0-60.0"},{"result":178,"points":2,"place":1,"phase":0,"sequence":41,"prices":[196,207,178,245,201,207,197,185,228,173],"times":[759,486,1128],"next_num":3,"trial_type":"ticket-choose","trial_index":61,"time_elapsed":798190,"internal_node_id":"0.0-61.0"},{"result":190,"points":1,"place":2,"phase":0,"sequence":42,"prices":[232,212,208,204,187,213,209,184,196,190],"times":[413,480,423,391,326,526,539,654,543,1092],"next_num":10,"trial_type":"ticket-choose","trial_index":62,"time_elapsed":807276,"internal_node_id":"0.0-62.0"},{"result":183,"points":1,"place":2,"phase":0,"sequence":43,"prices":[203,183,205,200,186,168,180,206,196,204],"times":[635,919],"next_num":2,"trial_type":"ticket-choose","trial_index":63,"time_elapsed":810812,"internal_node_id":"0.0-63.0"},{"result":176,"points":3,"place":0,"phase":0,"sequence":44,"prices":[176,221,182,186,205,234,185,222,224,199],"times":[923],"next_num":1,"trial_type":"ticket-choose","trial_index":64,"time_elapsed":813370,"internal_node_id":"0.0-64.0"},{"result":191,"points":1,"place":3,"phase":0,"sequence":45,"prices":[209,187,200,217,185,188,192,233,198,191],"times":[708,669,540,493,818,683,620,559,661,1029],"next_num":10,"trial_type":"ticket-choose","trial_index":65,"time_elapsed":823845,"internal_node_id":"0.0-65.0"},{"result":178,"points":2,"place":1,"phase":0,"sequence":46,"prices":[195,206,197,243,200,207,178,186,229,173],"times":[737,2258,594,438,1693,591,792],"next_num":7,"trial_type":"ticket-choose","trial_index":66,"time_elapsed":834108,"internal_node_id":"0.0-66.0"},{"result":178,"points":2,"place":1,"phase":0,"sequence":47,"prices":[209,170,195,180,208,227,178,214,198,219],"times":[3553,396,598,557,520,669,1105],"next_num":7,"trial_type":"ticket-choose","trial_index":67,"time_elapsed":844553,"internal_node_id":"0.0-67.0"},{"result":163,"points":3,"place":0,"phase":0,"sequence":48,"prices":[242,193,222,217,163,225,218,203,198,206],"times":[727,356,494,582,1065],"next_num":5,"trial_type":"ticket-choose","trial_index":68,"time_elapsed":850482,"internal_node_id":"0.0-68.0"},{"result":189,"points":1,"place":2,"phase":0,"sequence":49,"prices":[195,206,187,245,199,207,198,189,229,173],"times":[704,511,839,589,590,623,559,1266],"next_num":8,"trial_type":"ticket-choose","trial_index":69,"time_elapsed":860076,"internal_node_id":"0.0-69.0"},{"responses":[{"value":0,"offby":0,"category":"$145 - $160","category_index":0},{"value":1,"offby":0,"category":"$161 - $175","category_index":1},{"value":2,"offby":-1,"category":"$176 - $190","category_index":2},{"value":14,"offby":7,"category":"$191 - $205","category_index":3},{"value":3,"offby":-3,"category":"$206 - $220","category_index":4},{"value":0,"offby":-3,"category":"$221 - $235","category_index":5},{"value":0,"offby":0,"category":"$226 - $260","category_index":6}],"phase":0,"number":1,"trial_type":"bar-choose","trial_index":70,"time_elapsed":908726,"internal_node_id":"0.0-70.0"},{"rt":28170,"url":"\/tickets\/utils\/start2.html","trial_type":"html","trial_index":71,"time_elapsed":938077,"internal_node_id":"0.0-71.0"},{"trial_type":"number-animation","trial_index":72,"time_elapsed":950686,"internal_node_id":"0.0-72.0"},{"phase":1,"sequence":0,"avg":162,"response":168,"trial_type":"training_avg","trial_index":73,"time_elapsed":958273,"internal_node_id":"0.0-73.0"},{"trial_type":"number-animation","trial_index":74,"time_elapsed":965799,"internal_node_id":"0.0-74.0"},{"phase":1,"sequence":1,"avg":158,"response":165,"trial_type":"training_avg","trial_index":75,"time_elapsed":973276,"internal_node_id":"0.0-75.0"},{"trial_type":"number-animation","trial_index":76,"time_elapsed":993865,"internal_node_id":"0.0-76.0"},{"phase":1,"sequence":2,"avg":166,"response":163,"trial_type":"training_avg","trial_index":77,"time_elapsed":1001660,"internal_node_id":"0.0-77.0"},{"trial_type":"number-animation","trial_index":78,"time_elapsed":1023630,"internal_node_id":"0.0-78.0"},{"phase":1,"sequence":3,"avg":153,"response":151,"trial_type":"training_avg","trial_index":79,"time_elapsed":1033135,"internal_node_id":"0.0-79.0"},{"trial_type":"number-animation","trial_index":80,"time_elapsed":1042431,"internal_node_id":"0.0-80.0"},{"phase":1,"sequence":4,"avg":164,"response":153,"trial_type":"training_avg","trial_index":81,"time_elapsed":1048950,"internal_node_id":"0.0-81.0"},{"responses":[{"value":0,"offby":0,"category":"$105 - $120","category_index":0},{"value":2,"offby":1,"category":"$121 - $135","category_index":1},{"value":3,"offby":0,"category":"$136 - $150","category_index":2},{"value":10,"offby":3,"category":"$151 - $165","category_index":3},{"value":3,"offby":-3,"category":"$166 - $180","category_index":4},{"value":2,"offby":-1,"category":"$181 - $195","category_index":5},{"value":0,"offby":0,"category":"$196 - $210","category_index":6}],"phase":1,"number":0,"trial_type":"bar-choose","trial_index":82,"time_elapsed":1084484,"internal_node_id":"0.0-82.0"},{"rt":19004,"url":"\/tickets\/utils\/testing2.html","trial_type":"html","trial_index":83,"time_elapsed":1104734,"internal_node_id":"0.0-83.0"},{"phase":1,"order":[9,27,35,0,2,8,44,37,28,13,12,38,26,3,1,5,43,36,17,32,24,34,22,23,7,21,46,14,48,47,6,29,16,33,15,41,4,19,11,31,30,18,45,49,25,39,20,40,42,10],"trial_type":"store_order","trial_index":84,"time_elapsed":1105736,"internal_node_id":"0.0-84.0"},{"result":155,"points":1,"place":3,"phase":1,"sequence":0,"prices":[155,166,138,203,160,167,157,146,189,133],"times":[3217],"next_num":1,"trial_type":"ticket-choose","trial_index":85,"time_elapsed":1111623,"internal_node_id":"0.0-85.0"},{"result":147,"points":2,"place":1,"phase":1,"sequence":1,"prices":[154,166,158,205,161,168,147,148,188,136],"times":[725,516,1271,594,533,535,1000],"next_num":7,"trial_type":"ticket-choose","trial_index":86,"time_elapsed":1120061,"internal_node_id":"0.0-86.0"},{"result":136,"points":3,"place":0,"phase":1,"sequence":2,"prices":[155,165,147,204,161,166,158,148,188,136],"times":[435,383,342,441,572,382,359,503,662,1097],"next_num":10,"trial_type":"ticket-choose","trial_index":87,"time_elapsed":1129050,"internal_node_id":"0.0-87.0"},{"result":132,"points":3,"place":0,"phase":1,"sequence":3,"prices":[178,173,149,143,182,162,132,144,157,151],"times":[1240,526,325,424,477,390,976],"next_num":7,"trial_type":"ticket-choose","trial_index":88,"time_elapsed":1136639,"internal_node_id":"0.0-88.0"},{"result":133,"points":3,"place":0,"phase":1,"sequence":4,"prices":[155,166,158,205,159,167,147,149,189,133],"times":[346,551,425,341,405,423,453,492,470,596],"next_num":10,"trial_type":"ticket-choose","trial_index":89,"time_elapsed":1145047,"internal_node_id":"0.0-89.0"},{"result":138,"points":3,"place":0,"phase":1,"sequence":5,"prices":[190,164,206,173,195,138,179,155,156,188],"times":[336,393,339,791,431,1226],"next_num":6,"trial_type":"ticket-choose","trial_index":90,"time_elapsed":1151592,"internal_node_id":"0.0-90.0"},{"result":138,"points":2,"place":1,"phase":1,"sequence":6,"prices":[156,167,157,205,161,167,138,145,188,133],"times":[368,496,369,512,398,431,1386],"next_num":7,"trial_type":"ticket-choose","trial_index":91,"time_elapsed":1158653,"internal_node_id":"0.0-91.0"},{"result":133,"points":3,"place":0,"phase":1,"sequence":7,"prices":[156,166,156,206,159,167,143,146,133,188],"times":[379,415,339,448,453,415,479,510,946],"next_num":9,"trial_type":"ticket-choose","trial_index":92,"time_elapsed":1166740,"internal_node_id":"0.0-92.0"},{"result":150,"points":1,"place":4,"phase":1,"sequence":8,"prices":[139,163,146,148,153,185,147,167,171,150],"times":[372,693,534,493,511,420,399,567,590,1004],"next_num":10,"trial_type":"ticket-choose","trial_index":93,"time_elapsed":1176274,"internal_node_id":"0.0-93.0"},{"result":133,"points":3,"place":0,"phase":1,"sequence":9,"prices":[155,166,147,205,159,167,158,149,189,133],"times":[653,490,450,525,559,493,510,677,932,1125],"next_num":10,"trial_type":"ticket-choose","trial_index":94,"time_elapsed":1186308,"internal_node_id":"0.0-94.0"},{"result":150,"points":1,"place":2,"phase":1,"sequence":10,"prices":[192,172,168,164,147,173,169,144,156,150],"times":[386,445,458,427,462,499,508,440,628,747],"next_num":10,"trial_type":"ticket-choose","trial_index":95,"time_elapsed":1195122,"internal_node_id":"0.0-95.0"},{"result":132,"points":3,"place":0,"phase":1,"sequence":11,"prices":[180,161,183,132,155,151,140,134,156,171],"times":[393,662,463,779],"next_num":4,"trial_type":"ticket-choose","trial_index":96,"time_elapsed":1199752,"internal_node_id":"0.0-96.0"},{"result":133,"points":3,"place":0,"phase":1,"sequence":12,"prices":[154,166,143,205,161,167,156,146,133,189],"times":[419,943,830,521,572,524,527,480,983],"next_num":9,"trial_type":"ticket-choose","trial_index":97,"time_elapsed":1208982,"internal_node_id":"0.0-97.0"},{"result":133,"points":3,"place":0,"phase":1,"sequence":13,"prices":[155,166,156,204,159,167,143,145,133,190],"times":[389,420,668,523,446,470,718,414,1636],"next_num":9,"trial_type":"ticket-choose","trial_index":98,"time_elapsed":1218361,"internal_node_id":"0.0-98.0"},{"result":166,"points":1,"place":4,"phase":1,"sequence":14,"prices":[202,153,182,177,123,185,178,163,158,166],"times":[378,528,411,469,467,500,502,638,519,971],"next_num":10,"trial_type":"ticket-choose","trial_index":99,"time_elapsed":1227534,"internal_node_id":"0.0-99.0"},{"result":143,"points":3,"place":0,"phase":1,"sequence":15,"prices":[148,179,176,178,165,175,207,143,157,146],"times":[821,430,480,476,438,472,582,895],"next_num":8,"trial_type":"ticket-choose","trial_index":100,"time_elapsed":1235639,"internal_node_id":"0.0-100.0"},{"result":187,"points":0,"place":9,"phase":1,"sequence":16,"prices":[160,139,129,155,165,121,143,154,158,187],"times":[450,427,446,735,445,483,760,635,527,1027],"next_num":10,"trial_type":"ticket-choose","trial_index":101,"time_elapsed":1245438,"internal_node_id":"0.0-101.0"},{"result":130,"points":3,"place":0,"phase":1,"sequence":17,"prices":[169,130,155,140,168,187,138,174,158,179],"times":[423,1081],"next_num":2,"trial_type":"ticket-choose","trial_index":102,"time_elapsed":1249064,"internal_node_id":"0.0-102.0"},{"result":165,"points":1,"place":4,"phase":1,"sequence":18,"prices":[149,176,150,164,167,191,151,181,182,165],"times":[604,436,600,534,609,508,928,590,542,904],"next_num":10,"trial_type":"ticket-choose","trial_index":103,"time_elapsed":1258968,"internal_node_id":"0.0-103.0"},{"result":156,"points":1,"place":4,"phase":1,"sequence":19,"prices":[137,171,145,155,162,183,150,175,180,156],"times":[359,557,510,491,460,534,496,614,558,1217],"next_num":10,"trial_type":"ticket-choose","trial_index":104,"time_elapsed":1268318,"internal_node_id":"0.0-104.0"},{"result":127,"points":3,"place":0,"phase":1,"sequence":20,"prices":[161,195,149,127,162,173,157,164,156,159],"times":[554,453,648,923],"next_num":4,"trial_type":"ticket-choose","trial_index":105,"time_elapsed":1273351,"internal_node_id":"0.0-105.0"},{"result":138,"points":2,"place":1,"phase":1,"sequence":21,"prices":[156,165,138,205,160,166,157,146,189,134],"times":[535,510,1075],"next_num":3,"trial_type":"ticket-choose","trial_index":106,"time_elapsed":1277610,"internal_node_id":"0.0-106.0"},{"result":133,"points":3,"place":0,"phase":1,"sequence":22,"prices":[155,167,147,205,159,167,158,149,188,133],"times":[441,519,526,532,557,2848,1372,580,488,824],"next_num":10,"trial_type":"ticket-choose","trial_index":107,"time_elapsed":1289994,"internal_node_id":"0.0-107.0"},{"result":128,"points":3,"place":0,"phase":1,"sequence":23,"prices":[128,151,130,143,147,200,142,166,167,145],"times":[2514],"next_num":1,"trial_type":"ticket-choose","trial_index":108,"time_elapsed":1294478,"internal_node_id":"0.0-108.0"},{"result":134,"points":3,"place":0,"phase":1,"sequence":24,"prices":[155,167,143,206,160,168,156,145,134,188],"times":[924,562,474,512,550,469,640,565,768],"next_num":9,"trial_type":"ticket-choose","trial_index":109,"time_elapsed":1303623,"internal_node_id":"0.0-109.0"},{"result":138,"points":2,"place":1,"phase":1,"sequence":25,"prices":[155,166,157,203,161,168,138,147,188,134],"times":[1702,738,451,565,1279,461,801],"next_num":7,"trial_type":"ticket-choose","trial_index":110,"time_elapsed":1312742,"internal_node_id":"0.0-110.0"},{"result":135,"points":2,"place":1,"phase":1,"sequence":26,"prices":[181,187,135,138,136,145,147,115,158,157],"times":[599,678,895],"next_num":3,"trial_type":"ticket-choose","trial_index":111,"time_elapsed":1317067,"internal_node_id":"0.0-111.0"},{"result":166,"points":1,"place":4,"phase":1,"sequence":27,"prices":[148,172,151,158,168,197,152,175,177,166],"times":[551,590,429,478,431,590,677,717,532,1796],"next_num":10,"trial_type":"ticket-choose","trial_index":112,"time_elapsed":1327841,"internal_node_id":"0.0-112.0"},{"result":143,"points":2,"place":1,"phase":1,"sequence":28,"prices":[154,166,156,205,161,167,143,146,133,189],"times":[695,493,411,557,477,607,1496],"next_num":7,"trial_type":"ticket-choose","trial_index":113,"time_elapsed":1335975,"internal_node_id":"0.0-113.0"},{"result":133,"points":3,"place":0,"phase":1,"sequence":29,"prices":[156,166,143,206,159,167,156,146,133,188],"times":[437,446,479,563,459,493,532,613,893],"next_num":9,"trial_type":"ticket-choose","trial_index":114,"time_elapsed":1344439,"internal_node_id":"0.0-114.0"},{"result":137,"points":3,"place":0,"phase":1,"sequence":30,"prices":[181,167,137,164,178,159,168,165,158,150],"times":[382,551,934],"next_num":3,"trial_type":"ticket-choose","trial_index":115,"time_elapsed":1348518,"internal_node_id":"0.0-115.0"},{"result":132,"points":3,"place":0,"phase":1,"sequence":31,"prices":[132,180,138,153,162,187,141,182,184,160],"times":[1322],"next_num":1,"trial_type":"ticket-choose","trial_index":116,"time_elapsed":1351498,"internal_node_id":"0.0-116.0"},{"result":151,"points":1,"place":3,"phase":1,"sequence":32,"prices":[169,147,160,177,145,148,152,193,158,151],"times":[801,615,508,444,392,301,598,735,462,842],"next_num":10,"trial_type":"ticket-choose","trial_index":117,"time_elapsed":1360942,"internal_node_id":"0.0-117.0"},{"result":143,"points":2,"place":1,"phase":1,"sequence":33,"prices":[155,167,156,206,160,168,143,145,134,188],"times":[505,463,447,599,405,508,855],"next_num":7,"trial_type":"ticket-choose","trial_index":118,"time_elapsed":1367797,"internal_node_id":"0.0-118.0"},{"result":124,"points":3,"place":0,"phase":1,"sequence":34,"prices":[148,134,152,165,175,124,164,191,157,207],"times":[726,383,537,571,502,860],"next_num":6,"trial_type":"ticket-choose","trial_index":119,"time_elapsed":1374125,"internal_node_id":"0.0-119.0"},{"result":138,"points":2,"place":1,"phase":1,"sequence":35,"prices":[155,166,157,203,160,167,138,146,189,133],"times":[578,494,432,532,450,548,975],"next_num":7,"trial_type":"ticket-choose","trial_index":120,"time_elapsed":1381095,"internal_node_id":"0.0-120.0"},{"result":128,"points":3,"place":0,"phase":1,"sequence":36,"prices":[163,143,165,160,146,128,140,166,156,164],"times":[506,340,414,429,453,1322],"next_num":6,"trial_type":"ticket-choose","trial_index":121,"time_elapsed":1387330,"internal_node_id":"0.0-121.0"},{"result":138,"points":2,"place":1,"phase":1,"sequence":37,"prices":[156,167,138,205,161,167,157,145,188,133],"times":[1861,1063,815],"next_num":3,"trial_type":"ticket-choose","trial_index":122,"time_elapsed":1393234,"internal_node_id":"0.0-122.0"},{"result":136,"points":3,"place":0,"phase":1,"sequence":38,"prices":[155,165,158,204,161,166,147,148,188,136],"times":[407,431,568,422,629,664,910,491,518,1431],"next_num":10,"trial_type":"ticket-choose","trial_index":123,"time_elapsed":1403455,"internal_node_id":"0.0-123.0"},{"result":135,"points":2,"place":1,"phase":1,"sequence":39,"prices":[161,135,128,141,148,167,152,179,156,174],"times":[521,1747],"next_num":2,"trial_type":"ticket-choose","trial_index":124,"time_elapsed":1407699,"internal_node_id":"0.0-124.0"},{"result":133,"points":3,"place":0,"phase":1,"sequence":40,"prices":[155,166,143,204,159,167,156,145,133,190],"times":[520,475,423,408,485,570,372,439,650],"next_num":9,"trial_type":"ticket-choose","trial_index":125,"time_elapsed":1415412,"internal_node_id":"0.0-125.0"},{"result":168,"points":1,"place":4,"phase":1,"sequence":41,"prices":[141,173,147,167,170,204,154,174,175,168],"times":[566,359,366,405,381,567,439,543,462,603],"next_num":11,"trial_type":"ticket-choose","trial_index":126,"time_elapsed":1423894,"internal_node_id":"0.0-126.0"},{"result":135,"points":1,"place":2,"phase":1,"sequence":42,"prices":[130,165,134,141,153,179,135,168,171,148],"times":[500,471,421,750,604,527,1962],"next_num":7,"trial_type":"ticket-choose","trial_index":127,"time_elapsed":1432245,"internal_node_id":"0.0-127.0"},{"result":133,"points":3,"place":0,"phase":1,"sequence":43,"prices":[155,167,158,205,159,167,147,149,188,133],"times":[1378,513,559,606,430,470,744,510,574,1044],"next_num":10,"trial_type":"ticket-choose","trial_index":128,"time_elapsed":1443105,"internal_node_id":"0.0-128.0"},{"result":159,"points":1,"place":4,"phase":1,"sequence":44,"prices":[136,181,142,146,165,194,145,182,184,159],"times":[495,520,519,506,558,564,535,614,551,1154],"next_num":10,"trial_type":"ticket-choose","trial_index":129,"time_elapsed":1452948,"internal_node_id":"0.0-129.0"},{"result":134,"points":3,"place":0,"phase":1,"sequence":45,"prices":[168,180,145,152,178,154,157,134,157,160],"times":[735,459,523,510,549,674,507,841],"next_num":8,"trial_type":"ticket-choose","trial_index":130,"time_elapsed":1460932,"internal_node_id":"0.0-130.0"},{"result":164,"points":1,"place":4,"phase":1,"sequence":46,"prices":[141,173,155,161,165,204,160,179,198,164],"times":[731,2335,470,446,461,534,491,718,648,870],"next_num":10,"trial_type":"ticket-choose","trial_index":131,"time_elapsed":1472548,"internal_node_id":"0.0-131.0"},{"result":136,"points":3,"place":0,"phase":1,"sequence":47,"prices":[154,166,147,205,161,168,158,148,188,136],"times":[498,474,463,577,516,494,514,820,550,824],"next_num":10,"trial_type":"ticket-choose","trial_index":132,"time_elapsed":1481876,"internal_node_id":"0.0-132.0"},{"result":134,"points":3,"place":0,"phase":1,"sequence":48,"prices":[155,166,138,203,161,168,157,147,188,134],"times":[591,622,433,501,600,557,579,536,550,833],"next_num":10,"trial_type":"ticket-choose","trial_index":133,"time_elapsed":1491679,"internal_node_id":"0.0-133.0"},{"result":138,"points":2,"place":1,"phase":1,"sequence":49,"prices":[156,165,157,205,160,166,138,146,189,134],"times":[484,613,368,491,575,514,965],"next_num":7,"trial_type":"ticket-choose","trial_index":134,"time_elapsed":1498804,"internal_node_id":"0.0-134.0"},{"responses":[{"value":0,"offby":0,"category":"$105 - $120","category_index":0},{"value":3,"offby":2,"category":"$121 - $135","category_index":1},{"value":4,"offby":1,"category":"$136 - $150","category_index":2},{"value":7,"offby":0,"category":"$151 - $165","category_index":3},{"value":4,"offby":-2,"category":"$166 - $180","category_index":4},{"value":1,"offby":-2,"category":"$181 - $195","category_index":5},{"value":1,"offby":1,"category":"$196 - $210","category_index":6}],"phase":1,"number":1,"trial_type":"bar-choose","trial_index":135,"time_elapsed":1562921,"internal_node_id":"0.0-135.0"},{"special_comment":"I think they had number sets, the same numbers in each set, When there was a 138 I believe there was almost always a lower number in that set.","trial_type":"special_sequence","trial_index":136,"time_elapsed":1609139,"internal_node_id":"0.0-136.0"},{"during":"Nothing","bonus":288,"trial_type":"final","trial_index":137,"time_elapsed":1648682,"internal_node_id":"0.0-137.0"}],"bonus":288}