{"start_time":"2017-02-21 11:07:51","end_time":"2017-02-21 11:28:46","points_phase0":100,"points_phase1":112,"phase_order":0,"age":34,"gender":"m","tries":1,"during":"Nothing","worker_id":"A1DIGREVLNOXT3","assignment_id":"3R6BYFZZP85S2CV98ULJAAQ7X1AXFV","data":[{"rt":4074,"url":"\/tickets\/utils\/consent.html","trial_type":"html","trial_index":0,"time_elapsed":4264,"internal_node_id":"0.0-0.0"},{"age":34,"gender":"m","trial_type":"age","trial_index":1,"time_elapsed":8257,"internal_node_id":"0.0-1.0"},{"worker_id":"A1DIGREVLNOXT3","trial_type":"workerid","trial_index":2,"time_elapsed":12813,"internal_node_id":"0.0-2.0"},{"tries":1,"trial_type":"instructions_check","trial_index":3,"time_elapsed":37664,"internal_node_id":"0.0-3.0"},{"rt":25929,"url":"\/tickets\/utils\/start.html","trial_type":"html","trial_index":4,"time_elapsed":64740,"internal_node_id":"0.0-4.0"},{"trial_type":"number-animation","trial_index":5,"time_elapsed":82797,"internal_node_id":"0.0-5.0"},{"phase":0,"sequence":0,"avg":181,"response":181,"trial_type":"training_avg","trial_index":6,"time_elapsed":95869,"internal_node_id":"0.0-6.0"},{"trial_type":"number-animation","trial_index":7,"time_elapsed":115523,"internal_node_id":"0.0-7.0"},{"phase":0,"sequence":1,"avg":188,"response":175,"trial_type":"training_avg","trial_index":8,"time_elapsed":126424,"internal_node_id":"0.0-8.0"},{"trial_type":"number-animation","trial_index":9,"time_elapsed":142174,"internal_node_id":"0.0-9.0"},{"phase":0,"sequence":2,"avg":188,"response":183,"trial_type":"training_avg","trial_index":10,"time_elapsed":150926,"internal_node_id":"0.0-10.0"},{"trial_type":"number-animation","trial_index":11,"time_elapsed":162244,"internal_node_id":"0.0-11.0"},{"phase":0,"sequence":3,"avg":177,"response":177,"trial_type":"training_avg","trial_index":12,"time_elapsed":171716,"internal_node_id":"0.0-12.0"},{"trial_type":"number-animation","trial_index":13,"time_elapsed":200336,"internal_node_id":"0.0-13.0"},{"phase":0,"sequence":4,"avg":182,"response":178,"trial_type":"training_avg","trial_index":14,"time_elapsed":206512,"internal_node_id":"0.0-14.0"},{"responses":[{"value":0,"offby":0,"category":"$106 - $134","category_index":0},{"value":1,"offby":0,"category":"$135 - $150","category_index":1},{"value":8,"offby":5,"category":"$151 - $165","category_index":2},{"value":6,"offby":0,"category":"$166 - $180","category_index":3},{"value":3,"offby":-3,"category":"$181 - $195","category_index":4},{"value":1,"offby":-2,"category":"$196 - $210","category_index":5},{"value":1,"offby":0,"category":"$211 - $225","category_index":6}],"phase":0,"number":0,"trial_type":"bar-choose","trial_index":15,"time_elapsed":278300,"internal_node_id":"0.0-15.0"},{"rt":32828,"url":"\/tickets\/\/utils\/testing.html","trial_type":"html","trial_index":16,"time_elapsed":312238,"internal_node_id":"0.0-16.0"},{"phase":0,"order":[5,20,6,2,8,1,4,33,27,37,14,48,49,43,25,40,41,24,10,36,21,26,42,23,34,19,16,35,32,38,46,7,12,17,3,9,45,30,28,0,31,29,13,22,11,15,44,47,18,39],"trial_type":"store_order","trial_index":17,"time_elapsed":313239,"internal_node_id":"0.0-17.0"},{"result":165,"points":2,"place":1,"phase":0,"sequence":-1,"prices":[184,180,224,165,181,199,185,193,218,126],"times":[2560,825,647,1242],"next_num":4,"trial_type":"ticket-choose","trial_index":18,"time_elapsed":321824,"internal_node_id":"0.0-18.0"},{"rt":14317,"url":"\/tickets\/utils\/testing_after.html","trial_type":"html","trial_index":19,"time_elapsed":337258,"internal_node_id":"0.0-19.0"},{"result":163,"points":2,"place":1,"phase":0,"sequence":0,"prices":[175,187,176,209,180,188,163,165,154,208],"times":[1469,521,635,543,747,590,959],"next_num":7,"trial_type":"ticket-choose","trial_index":20,"time_elapsed":346055,"internal_node_id":"0.0-20.0"},{"result":158,"points":2,"place":1,"phase":0,"sequence":1,"prices":[175,186,177,221,180,187,158,166,209,153],"times":[1176,545,533,645,567,578,950],"next_num":7,"trial_type":"ticket-choose","trial_index":21,"time_elapsed":354211,"internal_node_id":"0.0-21.0"},{"result":153,"points":3,"place":0,"phase":0,"sequence":2,"prices":[174,186,176,217,181,187,163,166,153,209],"times":[670,319,285,331,398,521,735,521,915],"next_num":9,"trial_type":"ticket-choose","trial_index":22,"time_elapsed":364247,"internal_node_id":"0.0-22.0"},{"result":153,"points":3,"place":0,"phase":0,"sequence":3,"prices":[174,186,163,212,181,187,176,166,153,209],"times":[973,555,285,296,274,387,388,565,825],"next_num":9,"trial_type":"ticket-choose","trial_index":23,"time_elapsed":372459,"internal_node_id":"0.0-23.0"},{"result":156,"points":3,"place":0,"phase":0,"sequence":4,"prices":[174,186,167,211,181,188,178,168,208,156],"times":[658,286,823,334,318,319,285,522,544,859],"next_num":10,"trial_type":"ticket-choose","trial_index":24,"time_elapsed":381200,"internal_node_id":"0.0-24.0"},{"result":154,"points":3,"place":0,"phase":0,"sequence":5,"prices":[175,187,163,209,180,188,176,165,154,208],"times":[916,308,240,274,251,251,274,364,950],"next_num":9,"trial_type":"ticket-choose","trial_index":25,"time_elapsed":388692,"internal_node_id":"0.0-25.0"},{"result":153,"points":3,"place":0,"phase":0,"sequence":6,"prices":[176,186,176,210,179,187,163,166,153,208],"times":[737,240,241,240,680,376,375,602,802],"next_num":9,"trial_type":"ticket-choose","trial_index":26,"time_elapsed":396714,"internal_node_id":"0.0-26.0"},{"result":170,"points":1,"place":4,"phase":0,"sequence":7,"prices":[159,183,166,168,173,205,167,187,191,170],"times":[793,285,241,261,274,265,519,511,770,1038],"next_num":10,"trial_type":"ticket-choose","trial_index":27,"time_elapsed":405490,"internal_node_id":"0.0-27.0"},{"result":186,"points":1,"place":4,"phase":0,"sequence":8,"prices":[168,192,171,178,188,217,172,195,197,186],"times":[860,264,274,263,308,510,533,612,713,712],"next_num":10,"trial_type":"ticket-choose","trial_index":28,"time_elapsed":414410,"internal_node_id":"0.0-28.0"},{"result":169,"points":1,"place":3,"phase":0,"sequence":9,"prices":[198,193,169,163,202,182,152,164,177,171],"times":[1277,622,993],"next_num":3,"trial_type":"ticket-choose","trial_index":29,"time_elapsed":419675,"internal_node_id":"0.0-29.0"},{"result":167,"points":2,"place":1,"phase":0,"sequence":10,"prices":[175,186,178,212,179,187,167,169,209,153],"times":[625,341,308,622,646,578,940],"next_num":7,"trial_type":"ticket-choose","trial_index":30,"time_elapsed":426740,"internal_node_id":"0.0-30.0"},{"result":169,"points":2,"place":1,"phase":0,"sequence":11,"prices":[181,215,169,147,182,193,177,184,176,179],"times":[503,228,904],"next_num":3,"trial_type":"ticket-choose","trial_index":31,"time_elapsed":430587,"internal_node_id":"0.0-31.0"},{"result":148,"points":3,"place":0,"phase":0,"sequence":12,"prices":[183,163,185,180,166,148,160,186,176,184],"times":[489,285,455,602,735,960],"next_num":6,"trial_type":"ticket-choose","trial_index":32,"time_elapsed":437079,"internal_node_id":"0.0-32.0"},{"result":157,"points":3,"place":0,"phase":0,"sequence":13,"prices":[201,187,157,184,198,179,188,185,178,170],"times":[501,960,881],"next_num":3,"trial_type":"ticket-choose","trial_index":33,"time_elapsed":441669,"internal_node_id":"0.0-33.0"},{"result":156,"points":3,"place":0,"phase":0,"sequence":14,"prices":[156,201,162,166,185,214,165,202,204,179],"times":[1255],"next_num":1,"trial_type":"ticket-choose","trial_index":34,"time_elapsed":444864,"internal_node_id":"0.0-34.0"},{"result":150,"points":3,"place":0,"phase":0,"sequence":15,"prices":[189,150,175,160,188,207,158,194,178,199],"times":[783,882],"next_num":2,"trial_type":"ticket-choose","trial_index":35,"time_elapsed":448577,"internal_node_id":"0.0-35.0"},{"result":155,"points":2,"place":1,"phase":0,"sequence":16,"prices":[201,207,155,158,156,165,167,135,178,177],"times":[780,589,950],"next_num":3,"trial_type":"ticket-choose","trial_index":36,"time_elapsed":453144,"internal_node_id":"0.0-36.0"},{"result":184,"points":1,"place":4,"phase":0,"sequence":17,"prices":[161,193,175,181,185,224,180,199,218,184],"times":[465,601,812,499,589,567,1073,578,589,758],"next_num":10,"trial_type":"ticket-choose","trial_index":37,"time_elapsed":463359,"internal_node_id":"0.0-37.0"},{"result":167,"points":2,"place":1,"phase":0,"sequence":18,"prices":[175,186,167,225,179,187,178,169,209,153],"times":[648,499,859],"next_num":3,"trial_type":"ticket-choose","trial_index":38,"time_elapsed":467444,"internal_node_id":"0.0-38.0"},{"result":165,"points":2,"place":1,"phase":0,"sequence":19,"prices":[188,200,165,172,198,174,177,154,177,180],"times":[442,533,882],"next_num":3,"trial_type":"ticket-choose","trial_index":39,"time_elapsed":471538,"internal_node_id":"0.0-39.0"},{"result":158,"points":2,"place":1,"phase":0,"sequence":20,"prices":[175,186,177,209,181,188,158,167,208,154],"times":[387,454,590,623,578,556,836],"next_num":7,"trial_type":"ticket-choose","trial_index":40,"time_elapsed":478581,"internal_node_id":"0.0-40.0"},{"result":161,"points":1,"place":2,"phase":0,"sequence":21,"prices":[152,200,158,173,182,207,161,202,204,180],"times":[590,343,283,612,601,601,792],"next_num":7,"trial_type":"ticket-choose","trial_index":41,"time_elapsed":486129,"internal_node_id":"0.0-41.0"},{"result":143,"points":3,"place":0,"phase":0,"sequence":22,"prices":[222,173,202,197,143,205,198,183,178,186],"times":[624,700,566,611,904],"next_num":5,"trial_type":"ticket-choose","trial_index":42,"time_elapsed":492193,"internal_node_id":"0.0-42.0"},{"result":158,"points":2,"place":1,"phase":0,"sequence":23,"prices":[176,185,177,218,180,186,158,166,209,154],"times":[1435,308,522,521,555,488,826],"next_num":7,"trial_type":"ticket-choose","trial_index":43,"time_elapsed":499742,"internal_node_id":"0.0-43.0"},{"result":155,"points":2,"place":1,"phase":0,"sequence":24,"prices":[181,155,148,161,168,187,172,199,176,194],"times":[768,792],"next_num":2,"trial_type":"ticket-choose","trial_index":44,"time_elapsed":503105,"internal_node_id":"0.0-44.0"},{"result":158,"points":2,"place":1,"phase":0,"sequence":25,"prices":[176,185,158,217,180,186,177,166,209,154],"times":[556,554,792],"next_num":3,"trial_type":"ticket-choose","trial_index":45,"time_elapsed":507020,"internal_node_id":"0.0-45.0"},{"result":158,"points":2,"place":1,"phase":0,"sequence":26,"prices":[175,186,158,211,180,187,177,166,209,153],"times":[410,499,805],"next_num":3,"trial_type":"ticket-choose","trial_index":46,"time_elapsed":510777,"internal_node_id":"0.0-46.0"},{"result":154,"points":2,"place":1,"phase":0,"sequence":27,"prices":[168,154,172,185,195,144,184,211,177,227],"times":[456,859],"next_num":2,"trial_type":"ticket-choose","trial_index":47,"time_elapsed":513916,"internal_node_id":"0.0-47.0"},{"result":188,"points":1,"place":4,"phase":0,"sequence":28,"prices":[161,193,167,187,190,224,174,194,195,188],"times":[397,531,600,545,554,599,837,566,555,611],"next_num":10,"trial_type":"ticket-choose","trial_index":48,"time_elapsed":523333,"internal_node_id":"0.0-48.0"},{"result":168,"points":1,"place":2,"phase":0,"sequence":29,"prices":[168,199,196,198,185,195,227,163,177,166],"times":[850],"next_num":1,"trial_type":"ticket-choose","trial_index":49,"time_elapsed":525886,"internal_node_id":"0.0-49.0"},{"result":158,"points":3,"place":0,"phase":0,"sequence":30,"prices":[210,184,226,193,215,158,199,175,176,208],"times":[556,623,567,566,601,904],"next_num":6,"trial_type":"ticket-choose","trial_index":50,"time_elapsed":532524,"internal_node_id":"0.0-50.0"},{"result":176,"points":1,"place":4,"phase":0,"sequence":31,"prices":[175,186,176,224,179,187,163,165,153,210],"times":[1513,837,1478],"next_num":3,"trial_type":"ticket-choose","trial_index":51,"time_elapsed":538632,"internal_node_id":"0.0-51.0"},{"result":167,"points":2,"place":1,"phase":0,"sequence":32,"prices":[174,186,178,217,181,188,167,168,208,156],"times":[409,330,577,522,714,555,1074],"next_num":7,"trial_type":"ticket-choose","trial_index":52,"time_elapsed":545821,"internal_node_id":"0.0-52.0"},{"result":158,"points":2,"place":1,"phase":0,"sequence":33,"prices":[175,186,158,209,181,188,177,167,208,154],"times":[412,444,881],"next_num":3,"trial_type":"ticket-choose","trial_index":53,"time_elapsed":551514,"internal_node_id":"0.0-53.0"},{"result":176,"points":1,"place":4,"phase":0,"sequence":34,"prices":[175,186,163,211,179,187,176,165,153,210],"times":[882,274,319,511,544,521,837],"next_num":7,"trial_type":"ticket-choose","trial_index":54,"time_elapsed":558264,"internal_node_id":"0.0-54.0"},{"result":156,"points":3,"place":0,"phase":0,"sequence":35,"prices":[175,185,167,224,181,186,178,168,208,156],"times":[421,487,398,399,566,567,623,1141,544,760],"next_num":10,"trial_type":"ticket-choose","trial_index":55,"time_elapsed":567748,"internal_node_id":"0.0-55.0"},{"result":188,"points":0,"place":5,"phase":0,"sequence":36,"prices":[212,192,188,184,167,193,189,164,176,170],"times":[734,1006,1016],"next_num":3,"trial_type":"ticket-choose","trial_index":56,"time_elapsed":572720,"internal_node_id":"0.0-56.0"},{"result":176,"points":1,"place":4,"phase":0,"sequence":37,"prices":[157,191,165,175,182,203,170,195,200,176],"times":[399,552,1005,612,522,510,556,556,544,724],"next_num":10,"trial_type":"ticket-choose","trial_index":57,"time_elapsed":582361,"internal_node_id":"0.0-57.0"},{"result":185,"points":1,"place":4,"phase":0,"sequence":38,"prices":[169,196,170,184,187,211,171,201,202,185],"times":[1311,612,557,623,489,533,432,522,770,600],"next_num":10,"trial_type":"ticket-choose","trial_index":58,"time_elapsed":592407,"internal_node_id":"0.0-58.0"},{"result":163,"points":2,"place":1,"phase":0,"sequence":39,"prices":[176,186,163,214,179,187,176,166,153,208],"times":[784,520,859],"next_num":3,"trial_type":"ticket-choose","trial_index":59,"time_elapsed":596638,"internal_node_id":"0.0-59.0"},{"result":150,"points":2,"place":1,"phase":0,"sequence":40,"prices":[148,171,150,163,167,220,162,186,187,165],"times":[444,746,795],"next_num":3,"trial_type":"ticket-choose","trial_index":60,"time_elapsed":600722,"internal_node_id":"0.0-60.0"},{"result":150,"points":3,"place":0,"phase":0,"sequence":41,"prices":[150,185,154,161,173,199,155,188,191,168],"times":[982],"next_num":1,"trial_type":"ticket-choose","trial_index":61,"time_elapsed":603365,"internal_node_id":"0.0-61.0"},{"result":168,"points":1,"place":2,"phase":0,"sequence":42,"prices":[175,185,178,215,181,186,167,168,208,156],"times":[771,566,569,575,569,533,511,1433],"next_num":8,"trial_type":"ticket-choose","trial_index":62,"time_elapsed":612286,"internal_node_id":"0.0-62.0"},{"result":158,"points":2,"place":1,"phase":0,"sequence":43,"prices":[176,187,177,225,181,187,158,165,208,153],"times":[443,478,565,500,556,499,905],"next_num":7,"trial_type":"ticket-choose","trial_index":63,"time_elapsed":619598,"internal_node_id":"0.0-63.0"},{"result":153,"points":3,"place":0,"phase":0,"sequence":44,"prices":[175,187,167,212,179,187,178,169,208,153],"times":[1174,454,319,486,465,488,578,1041,813,567],"next_num":10,"trial_type":"ticket-choose","trial_index":64,"time_elapsed":629622,"internal_node_id":"0.0-64.0"},{"result":167,"points":2,"place":1,"phase":0,"sequence":45,"prices":[175,187,178,209,179,187,167,169,208,153],"times":[1243,577,994,554,872,835,1027],"next_num":7,"trial_type":"ticket-choose","trial_index":65,"time_elapsed":638678,"internal_node_id":"0.0-65.0"},{"result":159,"points":1,"place":2,"phase":0,"sequence":46,"prices":[180,159,149,175,185,141,163,174,178,207],"times":[1478,1354],"next_num":2,"trial_type":"ticket-choose","trial_index":66,"time_elapsed":643516,"internal_node_id":"0.0-66.0"},{"result":152,"points":3,"place":0,"phase":0,"sequence":47,"prices":[200,181,203,152,175,171,160,154,176,191],"times":[724,646,564,904],"next_num":4,"trial_type":"ticket-choose","trial_index":67,"time_elapsed":648647,"internal_node_id":"0.0-67.0"},{"result":158,"points":2,"place":1,"phase":0,"sequence":48,"prices":[176,187,158,210,181,187,177,165,208,153],"times":[1814,465,847],"next_num":3,"trial_type":"ticket-choose","trial_index":68,"time_elapsed":653922,"internal_node_id":"0.0-68.0"},{"result":167,"points":2,"place":1,"phase":0,"sequence":49,"prices":[189,167,180,197,165,168,172,213,178,171],"times":[1210,948],"next_num":2,"trial_type":"ticket-choose","trial_index":69,"time_elapsed":658017,"internal_node_id":"0.0-69.0"},{"responses":[{"value":0,"offby":0,"category":"$106 - $134","category_index":0},{"value":1,"offby":0,"category":"$135 - $150","category_index":1},{"value":4,"offby":1,"category":"$151 - $165","category_index":2},{"value":7,"offby":1,"category":"$166 - $180","category_index":3},{"value":4,"offby":-2,"category":"$181 - $195","category_index":4},{"value":3,"offby":0,"category":"$196 - $210","category_index":5},{"value":1,"offby":0,"category":"$211 - $225","category_index":6}],"phase":0,"number":1,"trial_type":"bar-choose","trial_index":70,"time_elapsed":701668,"internal_node_id":"0.0-70.0"},{"rt":15017,"url":"\/tickets\/utils\/start2.html","trial_type":"html","trial_index":71,"time_elapsed":717800,"internal_node_id":"0.0-71.0"},{"trial_type":"number-animation","trial_index":72,"time_elapsed":728611,"internal_node_id":"0.0-72.0"},{"phase":1,"sequence":0,"avg":182,"response":167,"trial_type":"training_avg","trial_index":73,"time_elapsed":737893,"internal_node_id":"0.0-73.0"},{"trial_type":"number-animation","trial_index":74,"time_elapsed":748400,"internal_node_id":"0.0-74.0"},{"phase":1,"sequence":1,"avg":188,"response":185,"trial_type":"training_avg","trial_index":75,"time_elapsed":756376,"internal_node_id":"0.0-75.0"},{"trial_type":"number-animation","trial_index":76,"time_elapsed":768594,"internal_node_id":"0.0-76.0"},{"phase":1,"sequence":2,"avg":176,"response":181,"trial_type":"training_avg","trial_index":77,"time_elapsed":776311,"internal_node_id":"0.0-77.0"},{"trial_type":"number-animation","trial_index":78,"time_elapsed":786593,"internal_node_id":"0.0-78.0"},{"phase":1,"sequence":3,"avg":180,"response":178,"trial_type":"training_avg","trial_index":79,"time_elapsed":794312,"internal_node_id":"0.0-79.0"},{"trial_type":"number-animation","trial_index":80,"time_elapsed":803671,"internal_node_id":"0.0-80.0"},{"phase":1,"sequence":4,"avg":174,"response":170,"trial_type":"training_avg","trial_index":81,"time_elapsed":810492,"internal_node_id":"0.0-81.0"},{"responses":[{"value":0,"offby":-1,"category":"$90 - $120","category_index":0},{"value":2,"offby":-1,"category":"$121 - $145","category_index":1},{"value":4,"offby":1,"category":"$146 - $170","category_index":2},{"value":7,"offby":1,"category":"$171 - $195","category_index":3},{"value":5,"offby":1,"category":"$196 - $220","category_index":4},{"value":2,"offby":0,"category":"$221 - $245","category_index":5},{"value":0,"offby":-1,"category":"$246 - $270","category_index":6}],"phase":1,"number":0,"trial_type":"bar-choose","trial_index":82,"time_elapsed":837523,"internal_node_id":"0.0-82.0"},{"rt":2994,"url":"\/tickets\/utils\/testing2.html","trial_type":"html","trial_index":83,"time_elapsed":841640,"internal_node_id":"0.0-83.0"},{"phase":1,"order":[30,16,37,24,38,12,25,33,5,31,43,44,40,9,48,11,47,1,7,19,18,10,21,2,20,42,36,6,49,28,13,32,34,14,4,22,35,39,17,46,41,26,27,3,29,23,15,0,8,45],"trial_type":"store_order","trial_index":84,"time_elapsed":842641,"internal_node_id":"0.0-84.0"},{"result":135,"points":3,"place":0,"phase":1,"sequence":0,"prices":[135,202,150,169,183,225,160,211,220,172],"times":[1512],"next_num":1,"trial_type":"ticket-choose","trial_index":85,"time_elapsed":846275,"internal_node_id":"0.0-85.0"},{"result":136,"points":2,"place":1,"phase":1,"sequence":1,"prices":[171,192,136,265,180,194,174,152,239,127],"times":[1501,590,971],"next_num":3,"trial_type":"ticket-choose","trial_index":86,"time_elapsed":851653,"internal_node_id":"0.0-86.0"},{"result":158,"points":1,"place":3,"phase":1,"sequence":2,"prices":[216,206,158,145,224,185,124,149,175,162],"times":[779,624,1995],"next_num":3,"trial_type":"ticket-choose","trial_index":87,"time_elapsed":857370,"internal_node_id":"0.0-87.0"},{"result":142,"points":3,"place":0,"phase":1,"sequence":3,"prices":[142,207,171,182,190,269,180,218,256,188],"times":[1150],"next_num":1,"trial_type":"ticket-choose","trial_index":88,"time_elapsed":860371,"internal_node_id":"0.0-88.0"},{"result":146,"points":3,"place":0,"phase":1,"sequence":4,"prices":[156,218,212,216,191,210,275,146,174,152],"times":[1233,525,510,510,577,578,589,994],"next_num":8,"trial_type":"ticket-choose","trial_index":89,"time_elapsed":869180,"internal_node_id":"0.0-89.0"},{"result":154,"points":2,"place":1,"phase":1,"sequence":5,"prices":[168,192,176,242,183,197,154,156,237,132],"times":[1524,566,522,646,655,590,959],"next_num":7,"trial_type":"ticket-choose","trial_index":90,"time_elapsed":877708,"internal_node_id":"0.0-90.0"},{"result":132,"points":3,"place":0,"phase":1,"sequence":6,"prices":[132,222,144,153,190,248,151,224,228,179],"times":[792],"next_num":1,"trial_type":"ticket-choose","trial_index":91,"time_elapsed":880160,"internal_node_id":"0.0-91.0"},{"result":137,"points":3,"place":0,"phase":1,"sequence":7,"prices":[137,187,152,156,166,231,155,194,202,160],"times":[873],"next_num":1,"trial_type":"ticket-choose","trial_index":92,"time_elapsed":882738,"internal_node_id":"0.0-92.0"},{"result":146,"points":2,"place":1,"phase":1,"sequence":8,"prices":[171,195,172,242,179,196,146,150,128,235],"times":[869,544,509,725,600,611,1040],"next_num":7,"trial_type":"ticket-choose","trial_index":93,"time_elapsed":890667,"internal_node_id":"0.0-93.0"},{"result":117,"points":3,"place":0,"phase":1,"sequence":9,"prices":[117,161,120,147,153,259,144,191,195,149],"times":[905],"next_num":1,"trial_type":"ticket-choose","trial_index":94,"time_elapsed":893210,"internal_node_id":"0.0-94.0"},{"result":135,"points":3,"place":0,"phase":1,"sequence":10,"prices":[221,193,135,188,217,179,196,190,175,159],"times":[963,543,881],"next_num":3,"trial_type":"ticket-choose","trial_index":95,"time_elapsed":897799,"internal_node_id":"0.0-95.0"},{"result":138,"points":1,"place":2,"phase":1,"sequence":11,"prices":[181,138,118,170,190,101,146,169,175,233],"times":[861,860],"next_num":2,"trial_type":"ticket-choose","trial_index":96,"time_elapsed":901423,"internal_node_id":"0.0-96.0"},{"result":119,"points":3,"place":0,"phase":1,"sequence":12,"prices":[198,119,169,141,195,233,136,208,177,217],"times":[634,871],"next_num":2,"trial_type":"ticket-choose","trial_index":97,"time_elapsed":904876,"internal_node_id":"0.0-97.0"},{"result":154,"points":2,"place":1,"phase":1,"sequence":13,"prices":[169,191,154,268,183,197,176,155,236,133],"times":[849,532,948],"next_num":3,"trial_type":"ticket-choose","trial_index":98,"time_elapsed":909421,"internal_node_id":"0.0-98.0"},{"result":114,"points":3,"place":0,"phase":1,"sequence":14,"prices":[182,249,159,114,184,205,175,189,172,178],"times":[621,510,792,925],"next_num":4,"trial_type":"ticket-choose","trial_index":99,"time_elapsed":914585,"internal_node_id":"0.0-99.0"},{"result":127,"points":3,"place":0,"phase":1,"sequence":15,"prices":[169,194,154,271,178,201,176,158,236,127],"times":[769,544,803,533,624,542,533,577,1253,702],"next_num":10,"trial_type":"ticket-choose","trial_index":100,"time_elapsed":925015,"internal_node_id":"0.0-100.0"},{"result":124,"points":3,"place":0,"phase":1,"sequence":16,"prices":[219,183,227,124,176,161,140,129,171,201],"times":[860,644,543,960],"next_num":4,"trial_type":"ticket-choose","trial_index":101,"time_elapsed":930323,"internal_node_id":"0.0-101.0"},{"result":146,"points":2,"place":1,"phase":1,"sequence":17,"prices":[169,193,146,237,180,196,172,150,129,236],"times":[748,545,1206],"next_num":3,"trial_type":"ticket-choose","trial_index":102,"time_elapsed":935037,"internal_node_id":"0.0-102.0"},{"result":146,"points":2,"place":1,"phase":1,"sequence":18,"prices":[171,191,172,268,179,194,146,150,127,239],"times":[557,986,475,593,810,556,1034],"next_num":7,"trial_type":"ticket-choose","trial_index":103,"time_elapsed":943161,"internal_node_id":"0.0-103.0"},{"result":136,"points":2,"place":1,"phase":1,"sequence":19,"prices":[172,190,136,270,179,192,174,152,237,129],"times":[656,555,832],"next_num":3,"trial_type":"ticket-choose","trial_index":104,"time_elapsed":947278,"internal_node_id":"0.0-104.0"},{"result":136,"points":2,"place":1,"phase":1,"sequence":20,"prices":[173,194,136,239,182,200,174,150,236,127],"times":[406,521,826],"next_num":3,"trial_type":"ticket-choose","trial_index":105,"time_elapsed":951182,"internal_node_id":"0.0-105.0"},{"result":126,"points":3,"place":0,"phase":1,"sequence":21,"prices":[169,193,154,255,178,194,176,158,239,126],"times":[565,543,1058,638,554,566,678,938,725,735],"next_num":10,"trial_type":"ticket-choose","trial_index":106,"time_elapsed":961733,"internal_node_id":"0.0-106.0"},{"result":136,"points":2,"place":1,"phase":1,"sequence":22,"prices":[170,192,174,242,181,196,136,153,236,128],"times":[996,590,624,566,624,601,938],"next_num":7,"trial_type":"ticket-choose","trial_index":107,"time_elapsed":969867,"internal_node_id":"0.0-107.0"},{"result":146,"points":2,"place":1,"phase":1,"sequence":23,"prices":[168,191,146,252,183,193,172,153,126,238],"times":[817,521,1725],"next_num":3,"trial_type":"ticket-choose","trial_index":108,"time_elapsed":975122,"internal_node_id":"0.0-108.0"},{"result":136,"points":2,"place":1,"phase":1,"sequence":24,"prices":[169,192,174,246,180,195,136,152,238,126],"times":[656,556,602,679,532,547,1026],"next_num":7,"trial_type":"ticket-choose","trial_index":109,"time_elapsed":982727,"internal_node_id":"0.0-109.0"},{"result":105,"points":3,"place":0,"phase":1,"sequence":25,"prices":[263,165,224,214,105,230,215,185,177,193],"times":[611,692,936,601,927],"next_num":5,"trial_type":"ticket-choose","trial_index":110,"time_elapsed":988981,"internal_node_id":"0.0-110.0"},{"result":149,"points":2,"place":1,"phase":1,"sequence":26,"prices":[196,221,149,164,216,167,175,128,176,181],"times":[1255,465,2244],"next_num":3,"trial_type":"ticket-choose","trial_index":111,"time_elapsed":995056,"internal_node_id":"0.0-111.0"},{"result":146,"points":2,"place":1,"phase":1,"sequence":27,"prices":[168,191,172,240,183,193,146,151,125,238],"times":[433,522,555,544,521,556,1253],"next_num":7,"trial_type":"ticket-choose","trial_index":112,"time_elapsed":1002549,"internal_node_id":"0.0-112.0"},{"result":146,"points":1,"place":2,"phase":1,"sequence":28,"prices":[186,146,191,179,152,116,140,201,172,187],"times":[589,971],"next_num":2,"trial_type":"ticket-choose","trial_index":113,"time_elapsed":1006047,"internal_node_id":"0.0-113.0"},{"result":189,"points":1,"place":4,"phase":1,"sequence":29,"prices":[157,213,159,187,194,242,161,222,225,189],"times":[481,557,554,521,589,568,736,557,577,815],"next_num":10,"trial_type":"ticket-choose","trial_index":114,"time_elapsed":1015565,"internal_node_id":"0.0-114.0"},{"result":131,"points":3,"place":0,"phase":1,"sequence":30,"prices":[170,190,176,251,183,192,154,157,236,131],"times":[783,543,638,519,556,568,1174,691,612,802],"next_num":10,"trial_type":"ticket-choose","trial_index":115,"time_elapsed":1026084,"internal_node_id":"0.0-115.0"},{"result":143,"points":3,"place":0,"phase":1,"sequence":31,"prices":[143,206,153,194,201,267,168,208,210,196],"times":[966],"next_num":1,"trial_type":"ticket-choose","trial_index":116,"time_elapsed":1028738,"internal_node_id":"0.0-116.0"},{"result":130,"points":2,"place":1,"phase":1,"sequence":32,"prices":[181,130,116,142,157,193,165,218,173,207],"times":[753,880],"next_num":2,"trial_type":"ticket-choose","trial_index":117,"time_elapsed":1032214,"internal_node_id":"0.0-117.0"},{"result":154,"points":2,"place":1,"phase":1,"sequence":33,"prices":[169,192,176,244,178,194,154,159,237,125],"times":[831,578,578,827,587,684,1028],"next_num":7,"trial_type":"ticket-choose","trial_index":118,"time_elapsed":1040349,"internal_node_id":"0.0-118.0"},{"result":146,"points":2,"place":1,"phase":1,"sequence":34,"prices":[172,191,176,272,179,194,146,152,126,235],"times":[725,543,568,567,596,556,984],"next_num":7,"trial_type":"ticket-choose","trial_index":119,"time_elapsed":1047875,"internal_node_id":"0.0-119.0"},{"result":126,"points":3,"place":0,"phase":1,"sequence":35,"prices":[172,194,174,243,182,193,136,150,237,126],"times":[474,477,543,600,557,553,994,892,556,746],"next_num":10,"trial_type":"ticket-choose","trial_index":120,"time_elapsed":1057913,"internal_node_id":"0.0-120.0"},{"result":155,"points":1,"place":2,"phase":1,"sequence":36,"prices":[155,129,164,189,210,108,187,241,174,275],"times":[1551],"next_num":1,"trial_type":"ticket-choose","trial_index":121,"time_elapsed":1061285,"internal_node_id":"0.0-121.0"},{"result":150,"points":3,"place":0,"phase":1,"sequence":37,"prices":[197,153,181,215,150,155,164,247,177,162],"times":[646,511,477,565,904],"next_num":5,"trial_type":"ticket-choose","trial_index":122,"time_elapsed":1067033,"internal_node_id":"0.0-122.0"},{"result":136,"points":2,"place":1,"phase":1,"sequence":38,"prices":[171,192,136,243,182,195,174,154,236,128],"times":[579,465,1104],"next_num":3,"trial_type":"ticket-choose","trial_index":123,"time_elapsed":1071354,"internal_node_id":"0.0-123.0"},{"result":236,"points":0,"place":6,"phase":1,"sequence":39,"prices":[240,188,273,207,250,136,217,170,171,236],"times":[1684,511,510,578,704,486,455,578,477,1308],"next_num":10,"trial_type":"ticket-choose","trial_index":124,"time_elapsed":1082785,"internal_node_id":"0.0-124.0"},{"result":131,"points":2,"place":1,"phase":1,"sequence":40,"prices":[221,234,131,136,132,149,154,90,176,173],"times":[689,522,994],"next_num":3,"trial_type":"ticket-choose","trial_index":125,"time_elapsed":1087103,"internal_node_id":"0.0-125.0"},{"result":124,"points":3,"place":0,"phase":1,"sequence":41,"prices":[124,220,136,165,185,234,143,225,228,179],"times":[1042],"next_num":1,"trial_type":"ticket-choose","trial_index":126,"time_elapsed":1089994,"internal_node_id":"0.0-126.0"},{"result":165,"points":1,"place":2,"phase":1,"sequence":42,"prices":[157,205,161,175,197,254,165,210,214,192],"times":[946,691,677,510,548,474,938],"next_num":7,"trial_type":"ticket-choose","trial_index":127,"time_elapsed":1097827,"internal_node_id":"0.0-127.0"},{"result":146,"points":2,"place":1,"phase":1,"sequence":43,"prices":[170,193,146,268,178,195,172,149,126,241],"times":[971,533,871],"next_num":3,"trial_type":"ticket-choose","trial_index":128,"time_elapsed":1102741,"internal_node_id":"0.0-128.0"},{"result":121,"points":3,"place":0,"phase":1,"sequence":44,"prices":[121,191,128,141,166,217,129,196,202,157],"times":[1207],"next_num":1,"trial_type":"ticket-choose","trial_index":129,"time_elapsed":1105599,"internal_node_id":"0.0-129.0"},{"result":129,"points":3,"place":0,"phase":1,"sequence":45,"prices":[173,191,174,270,180,193,136,153,239,129],"times":[936,499,555,556,600,623,836,511,634,634],"next_num":10,"trial_type":"ticket-choose","trial_index":130,"time_elapsed":1115543,"internal_node_id":"0.0-130.0"},{"result":126,"points":3,"place":0,"phase":1,"sequence":46,"prices":[170,193,176,245,178,194,154,159,236,126],"times":[623,455,453,633,600,589,645,568,520,781],"next_num":10,"trial_type":"ticket-choose","trial_index":131,"time_elapsed":1125060,"internal_node_id":"0.0-131.0"},{"result":235,"points":0,"place":8,"phase":1,"sequence":47,"prices":[173,191,146,242,178,194,172,152,126,235],"times":[1075,611,556,555,545,612,589,780,556,1231],"next_num":10,"trial_type":"ticket-choose","trial_index":132,"time_elapsed":1135759,"internal_node_id":"0.0-132.0"},{"result":133,"points":3,"place":0,"phase":1,"sequence":48,"prices":[168,192,154,237,182,196,176,156,235,133],"times":[836,567,579,565,949,588,837,972,545,655],"next_num":10,"trial_type":"ticket-choose","trial_index":133,"time_elapsed":1147741,"internal_node_id":"0.0-133.0"},{"result":154,"points":2,"place":1,"phase":1,"sequence":49,"prices":[244,203,196,189,154,206,197,149,171,159],"times":[1289,522,510,588,1062],"next_num":5,"trial_type":"ticket-choose","trial_index":134,"time_elapsed":1154423,"internal_node_id":"0.0-134.0"},{"responses":[{"value":0,"offby":-1,"category":"$90 - $120","category_index":0},{"value":2,"offby":-1,"category":"$121 - $145","category_index":1},{"value":5,"offby":2,"category":"$146 - $170","category_index":2},{"value":7,"offby":1,"category":"$171 - $195","category_index":3},{"value":5,"offby":1,"category":"$196 - $220","category_index":4},{"value":1,"offby":-1,"category":"$221 - $245","category_index":5},{"value":0,"offby":-1,"category":"$246 - $270","category_index":6}],"phase":1,"number":1,"trial_type":"bar-choose","trial_index":135,"time_elapsed":1182055,"internal_node_id":"0.0-135.0"},{"special_comment":"Idid not. I started to notice a pattern but did not quite figure it out. ","trial_type":"special_sequence","trial_index":136,"time_elapsed":1213901,"internal_node_id":"0.0-136.0"},{"during":"Nothing","bonus":284,"trial_type":"final","trial_index":137,"time_elapsed":1252966,"internal_node_id":"0.0-137.0"}],"bonus":284}