{"start_time":"2017-02-17 16:53:17","end_time":"2017-02-17 17:27:45","points_phase0":119,"points_phase1":117,"phase_order":1,"age":59,"gender":"f","tries":1,"during":"Nothing","worker_id":"A1FYTTGF0QACU9","assignment_id":"39O5D9O87UL9J24LX3OUVOG0SI83CU","data":[{"rt":49876,"url":"\/tickets\/utils\/consent.html","trial_type":"html","trial_index":0,"time_elapsed":50238,"internal_node_id":"0.0-0.0"},{"age":59,"gender":"f","trial_type":"age","trial_index":1,"time_elapsed":62403,"internal_node_id":"0.0-1.0"},{"worker_id":"A1FYTTGF0QACU9","trial_type":"workerid","trial_index":2,"time_elapsed":87654,"internal_node_id":"0.0-2.0"},{"tries":1,"trial_type":"instructions_check","trial_index":3,"time_elapsed":159565,"internal_node_id":"0.0-3.0"},{"rt":30056,"url":"\/tickets\/utils\/start.html","trial_type":"html","trial_index":4,"time_elapsed":190788,"internal_node_id":"0.0-4.0"},{"trial_type":"number-animation","trial_index":5,"time_elapsed":261544,"internal_node_id":"0.0-5.0"},{"phase":0,"sequence":0,"avg":182,"response":190,"trial_type":"training_avg","trial_index":6,"time_elapsed":283465,"internal_node_id":"0.0-6.0"},{"trial_type":"number-animation","trial_index":7,"time_elapsed":351678,"internal_node_id":"0.0-7.0"},{"phase":0,"sequence":1,"avg":188,"response":188,"trial_type":"training_avg","trial_index":8,"time_elapsed":369489,"internal_node_id":"0.0-8.0"},{"trial_type":"number-animation","trial_index":9,"time_elapsed":411205,"internal_node_id":"0.0-9.0"},{"phase":0,"sequence":2,"avg":176,"response":175,"trial_type":"training_avg","trial_index":10,"time_elapsed":430400,"internal_node_id":"0.0-10.0"},{"trial_type":"number-animation","trial_index":11,"time_elapsed":468639,"internal_node_id":"0.0-11.0"},{"phase":0,"sequence":3,"avg":180,"response":180,"trial_type":"training_avg","trial_index":12,"time_elapsed":485404,"internal_node_id":"0.0-12.0"},{"trial_type":"number-animation","trial_index":13,"time_elapsed":507192,"internal_node_id":"0.0-13.0"},{"phase":0,"sequence":4,"avg":174,"response":180,"trial_type":"training_avg","trial_index":14,"time_elapsed":523559,"internal_node_id":"0.0-14.0"},{"responses":[{"value":0,"offby":-1,"category":"$90 - $120","category_index":0},{"value":0,"offby":-3,"category":"$121 - $145","category_index":1},{"value":0,"offby":-3,"category":"$146 - $170","category_index":2},{"value":20,"offby":14,"category":"$171 - $195","category_index":3},{"value":0,"offby":-4,"category":"$196 - $220","category_index":4},{"value":0,"offby":-2,"category":"$221 - $245","category_index":5},{"value":0,"offby":-1,"category":"$246 - $270","category_index":6}],"phase":0,"number":0,"trial_type":"bar-choose","trial_index":15,"time_elapsed":592217,"internal_node_id":"0.0-15.0"},{"rt":25582,"url":"\/tickets\/\/utils\/testing.html","trial_type":"html","trial_index":16,"time_elapsed":618955,"internal_node_id":"0.0-16.0"},{"phase":0,"order":[13,43,21,18,2,27,29,19,20,24,33,30,12,40,34,17,46,22,41,14,5,16,23,36,48,44,35,26,1,6,11,15,10,39,3,45,47,28,0,25,8,31,32,42,49,7,9,38,37,4],"trial_type":"store_order","trial_index":17,"time_elapsed":619960,"internal_node_id":"0.0-17.0"},{"result":180,"points":1,"place":2,"phase":0,"sequence":-1,"prices":[184,180,224,165,181,199,185,193,218,126],"times":[3526,1938],"next_num":2,"trial_type":"ticket-choose","trial_index":18,"time_elapsed":629353,"internal_node_id":"0.0-18.0"},{"rt":8351,"url":"\/tickets\/utils\/testing_after.html","trial_type":"html","trial_index":19,"time_elapsed":638877,"internal_node_id":"0.0-19.0"},{"result":121,"points":3,"place":0,"phase":0,"sequence":0,"prices":[121,191,128,141,166,217,129,196,202,157],"times":[2467],"next_num":1,"trial_type":"ticket-choose","trial_index":20,"time_elapsed":645035,"internal_node_id":"0.0-20.0"},{"result":136,"points":2,"place":1,"phase":0,"sequence":1,"prices":[171,192,136,266,180,194,174,152,239,127],"times":[1518,1466,1606],"next_num":3,"trial_type":"ticket-choose","trial_index":21,"time_elapsed":652985,"internal_node_id":"0.0-21.0"},{"result":146,"points":2,"place":1,"phase":0,"sequence":2,"prices":[168,191,172,271,183,193,146,151,125,238],"times":[1644,1068,1496,775,768,660,1688],"next_num":7,"trial_type":"ticket-choose","trial_index":22,"time_elapsed":665992,"internal_node_id":"0.0-22.0"},{"result":146,"points":2,"place":1,"phase":0,"sequence":3,"prices":[172,191,176,272,179,194,146,152,126,235],"times":[1382,629,669,738,696,625,1612],"next_num":7,"trial_type":"ticket-choose","trial_index":23,"time_elapsed":676189,"internal_node_id":"0.0-23.0"},{"result":125,"points":3,"place":0,"phase":0,"sequence":4,"prices":[169,192,176,271,178,194,154,159,237,125],"times":[1246,654,651,719,657,626,1133,682,701,1504],"next_num":10,"trial_type":"ticket-choose","trial_index":24,"time_elapsed":689591,"internal_node_id":"0.0-24.0"},{"result":136,"points":2,"place":1,"phase":0,"sequence":5,"prices":[173,191,174,270,180,193,136,153,239,129],"times":[1947,1072,650,609,740,860,1735],"next_num":7,"trial_type":"ticket-choose","trial_index":25,"time_elapsed":701151,"internal_node_id":"0.0-25.0"},{"result":126,"points":3,"place":0,"phase":0,"sequence":6,"prices":[170,193,176,271,178,194,154,159,236,126],"times":[1438,827,496,442,546,749,806,676,773,1274],"next_num":10,"trial_type":"ticket-choose","trial_index":26,"time_elapsed":713733,"internal_node_id":"0.0-26.0"},{"result":149,"points":1,"place":2,"phase":0,"sequence":7,"prices":[170,193,146,268,178,195,172,149,126,241],"times":[1230,556,2400,651,945,613,829,2111],"next_num":8,"trial_type":"ticket-choose","trial_index":27,"time_elapsed":727262,"internal_node_id":"0.0-27.0"},{"result":128,"points":3,"place":0,"phase":0,"sequence":8,"prices":[196,221,149,164,216,167,175,128,176,181],"times":[1293,518,560,520,658,599,593,1701],"next_num":8,"trial_type":"ticket-choose","trial_index":28,"time_elapsed":738152,"internal_node_id":"0.0-28.0"},{"result":142,"points":3,"place":0,"phase":0,"sequence":9,"prices":[142,207,171,182,190,269,180,218,256,188],"times":[2749],"next_num":1,"trial_type":"ticket-choose","trial_index":29,"time_elapsed":743772,"internal_node_id":"0.0-29.0"},{"result":119,"points":3,"place":0,"phase":0,"sequence":10,"prices":[198,119,169,141,195,233,136,208,177,217],"times":[1961,1715],"next_num":2,"trial_type":"ticket-choose","trial_index":30,"time_elapsed":750826,"internal_node_id":"0.0-30.0"},{"result":131,"points":3,"place":0,"phase":0,"sequence":11,"prices":[170,190,176,268,183,192,154,157,236,131],"times":[2295,708,679,672,689,602,777,615,664,1596],"next_num":10,"trial_type":"ticket-choose","trial_index":31,"time_elapsed":764747,"internal_node_id":"0.0-31.0"},{"result":136,"points":2,"place":1,"phase":0,"sequence":12,"prices":[172,190,136,270,179,192,174,152,237,129],"times":[1290,1257,2043],"next_num":3,"trial_type":"ticket-choose","trial_index":32,"time_elapsed":772612,"internal_node_id":"0.0-32.0"},{"result":124,"points":3,"place":0,"phase":0,"sequence":13,"prices":[219,183,227,124,176,161,140,129,171,201],"times":[1631,666,569,1797],"next_num":4,"trial_type":"ticket-choose","trial_index":33,"time_elapsed":780457,"internal_node_id":"0.0-33.0"},{"result":108,"points":3,"place":0,"phase":0,"sequence":14,"prices":[155,129,164,189,210,108,187,241,174,275],"times":[1081,918,749,631,676,1643],"next_num":6,"trial_type":"ticket-choose","trial_index":34,"time_elapsed":790224,"internal_node_id":"0.0-34.0"},{"result":127,"points":3,"place":0,"phase":0,"sequence":15,"prices":[171,191,172,268,179,194,146,150,127,239],"times":[1275,748,701,571,695,634,1050,636,1528],"next_num":9,"trial_type":"ticket-choose","trial_index":35,"time_elapsed":802306,"internal_node_id":"0.0-35.0"},{"result":136,"points":2,"place":1,"phase":0,"sequence":16,"prices":[172,194,174,270,182,193,136,150,237,126],"times":[1043,571,569,659,635,663,1710],"next_num":7,"trial_type":"ticket-choose","trial_index":36,"time_elapsed":811986,"internal_node_id":"0.0-36.0"},{"result":126,"points":3,"place":0,"phase":0,"sequence":17,"prices":[168,191,146,270,183,193,172,153,126,238],"times":[1163,510,625,658,749,600,632,778,1553],"next_num":9,"trial_type":"ticket-choose","trial_index":37,"time_elapsed":823401,"internal_node_id":"0.0-37.0"},{"result":132,"points":1,"place":2,"phase":0,"sequence":18,"prices":[221,234,131,136,132,149,154,90,176,173],"times":[958,480,446,1077,1650],"next_num":5,"trial_type":"ticket-choose","trial_index":38,"time_elapsed":831843,"internal_node_id":"0.0-38.0"},{"result":124,"points":3,"place":0,"phase":0,"sequence":19,"prices":[216,206,158,145,224,185,124,149,175,162],"times":[1050,764,824,793,660,645,1709],"next_num":7,"trial_type":"ticket-choose","trial_index":39,"time_elapsed":841971,"internal_node_id":"0.0-39.0"},{"result":136,"points":2,"place":1,"phase":0,"sequence":20,"prices":[170,192,174,266,181,196,136,153,236,128],"times":[1482,625,504,598,661,598,1732],"next_num":7,"trial_type":"ticket-choose","trial_index":40,"time_elapsed":852042,"internal_node_id":"0.0-40.0"},{"result":196,"points":1,"place":4,"phase":0,"sequence":21,"prices":[143,206,153,194,201,267,168,208,210,196],"times":[1038,944,734,583,656,595,672,683,609,711],"next_num":11,"trial_type":"ticket-choose","trial_index":41,"time_elapsed":865421,"internal_node_id":"0.0-41.0"},{"result":189,"points":1,"place":4,"phase":0,"sequence":22,"prices":[157,213,159,187,194,242,161,222,225,189],"times":[1315,750,829,579,638,648,800,785,1234,1279],"next_num":10,"trial_type":"ticket-choose","trial_index":42,"time_elapsed":878727,"internal_node_id":"0.0-42.0"},{"result":129,"points":3,"place":0,"phase":0,"sequence":23,"prices":[169,193,146,271,180,196,172,150,129,236],"times":[2119,828,2014,1122,620,600,817,913,1504],"next_num":9,"trial_type":"ticket-choose","trial_index":43,"time_elapsed":893493,"internal_node_id":"0.0-43.0"},{"result":160,"points":1,"place":4,"phase":0,"sequence":24,"prices":[137,187,152,156,166,231,155,194,202,160],"times":[1327,619,624,585,671,808,826,1171,814,1283],"next_num":10,"trial_type":"ticket-choose","trial_index":44,"time_elapsed":906688,"internal_node_id":"0.0-44.0"},{"result":127,"points":3,"place":0,"phase":0,"sequence":25,"prices":[169,194,154,271,178,201,176,158,236,127],"times":[1436,725,584,586,573,630,987,1097,711,1380],"next_num":10,"trial_type":"ticket-choose","trial_index":45,"time_elapsed":920050,"internal_node_id":"0.0-45.0"},{"result":192,"points":1,"place":4,"phase":0,"sequence":26,"prices":[157,205,161,175,197,254,165,210,214,192],"times":[2578,647,777,717,566,645,648,664,658,1613],"next_num":10,"trial_type":"ticket-choose","trial_index":46,"time_elapsed":934406,"internal_node_id":"0.0-46.0"},{"result":132,"points":3,"place":0,"phase":0,"sequence":27,"prices":[168,192,176,271,183,197,154,156,237,132],"times":[2186,637,584,680,573,616,1252,1009,677,1282],"next_num":10,"trial_type":"ticket-choose","trial_index":47,"time_elapsed":948681,"internal_node_id":"0.0-47.0"},{"result":114,"points":3,"place":0,"phase":0,"sequence":28,"prices":[182,249,159,114,184,205,175,189,172,178],"times":[1256,585,470,1581],"next_num":4,"trial_type":"ticket-choose","trial_index":48,"time_elapsed":955645,"internal_node_id":"0.0-48.0"},{"result":146,"points":3,"place":0,"phase":0,"sequence":29,"prices":[156,218,212,216,191,210,275,146,174,152],"times":[1897,719,596,673,757,1038,611,1899],"next_num":8,"trial_type":"ticket-choose","trial_index":49,"time_elapsed":967811,"internal_node_id":"0.0-49.0"},{"result":133,"points":3,"place":0,"phase":0,"sequence":30,"prices":[168,192,154,269,182,196,176,156,235,133],"times":[1326,429,571,610,668,804,891,989,678,1341],"next_num":10,"trial_type":"ticket-choose","trial_index":50,"time_elapsed":980676,"internal_node_id":"0.0-50.0"},{"result":136,"points":2,"place":1,"phase":0,"sequence":31,"prices":[169,192,174,267,180,195,136,152,238,126],"times":[1576,651,750,636,608,622,1744],"next_num":7,"trial_type":"ticket-choose","trial_index":51,"time_elapsed":991524,"internal_node_id":"0.0-51.0"},{"result":159,"points":1,"place":2,"phase":0,"sequence":32,"prices":[244,203,196,189,154,206,197,149,171,159],"times":[1414,596,753,646,826,658,777,1071,671,1400],"next_num":10,"trial_type":"ticket-choose","trial_index":52,"time_elapsed":1004628,"internal_node_id":"0.0-52.0"},{"result":133,"points":3,"place":0,"phase":0,"sequence":33,"prices":[169,191,154,268,183,197,176,155,236,133],"times":[2664,793,821,572,713,659,653,1378,623,1362],"next_num":10,"trial_type":"ticket-choose","trial_index":53,"time_elapsed":1019622,"internal_node_id":"0.0-53.0"},{"result":126,"points":3,"place":0,"phase":0,"sequence":34,"prices":[173,191,146,272,178,194,172,152,126,235],"times":[1600,678,1112,624,650,632,634,1367,1693],"next_num":9,"trial_type":"ticket-choose","trial_index":54,"time_elapsed":1032816,"internal_node_id":"0.0-54.0"},{"result":116,"points":3,"place":0,"phase":0,"sequence":35,"prices":[186,146,191,179,152,116,140,201,172,187],"times":[1300,862,559,535,551,1566],"next_num":6,"trial_type":"ticket-choose","trial_index":55,"time_elapsed":1041905,"internal_node_id":"0.0-55.0"},{"result":126,"points":3,"place":0,"phase":0,"sequence":36,"prices":[169,193,154,270,178,194,176,158,239,126],"times":[1101,585,892,663,748,625,848,825,1042,1376],"next_num":10,"trial_type":"ticket-choose","trial_index":56,"time_elapsed":1055494,"internal_node_id":"0.0-56.0"},{"result":162,"points":1,"place":3,"phase":0,"sequence":37,"prices":[197,153,181,215,150,155,164,247,177,162],"times":[1598,782,548,905,658,600,744,661,1006,1289],"next_num":10,"trial_type":"ticket-choose","trial_index":57,"time_elapsed":1068755,"internal_node_id":"0.0-57.0"},{"result":236,"points":0,"place":6,"phase":0,"sequence":38,"prices":[240,188,273,207,250,136,217,170,171,236],"times":[1207,508,493,545,564,1298,655,815,712,1985],"next_num":10,"trial_type":"ticket-choose","trial_index":58,"time_elapsed":1082300,"internal_node_id":"0.0-58.0"},{"result":127,"points":3,"place":0,"phase":0,"sequence":39,"prices":[173,194,136,270,182,200,174,150,236,127],"times":[1398,501,971,591,744,806,676,2868,787,1262],"next_num":10,"trial_type":"ticket-choose","trial_index":59,"time_elapsed":1097565,"internal_node_id":"0.0-59.0"},{"result":105,"points":3,"place":0,"phase":0,"sequence":40,"prices":[263,165,224,214,105,230,215,185,177,193],"times":[3249,630,540,544,1696],"next_num":5,"trial_type":"ticket-choose","trial_index":60,"time_elapsed":1107481,"internal_node_id":"0.0-60.0"},{"result":101,"points":3,"place":0,"phase":0,"sequence":41,"prices":[181,138,118,170,190,101,146,169,175,233],"times":[1067,546,604,784,645,1740],"next_num":6,"trial_type":"ticket-choose","trial_index":61,"time_elapsed":1116265,"internal_node_id":"0.0-61.0"},{"result":159,"points":2,"place":1,"phase":0,"sequence":42,"prices":[221,193,135,188,217,179,196,190,175,159],"times":[1200,648,968,609,633,635,636,810,766,1517],"next_num":10,"trial_type":"ticket-choose","trial_index":62,"time_elapsed":1128991,"internal_node_id":"0.0-62.0"},{"result":117,"points":3,"place":0,"phase":0,"sequence":43,"prices":[117,161,120,147,153,259,144,191,195,149],"times":[2055],"next_num":1,"trial_type":"ticket-choose","trial_index":63,"time_elapsed":1133433,"internal_node_id":"0.0-63.0"},{"result":128,"points":3,"place":0,"phase":0,"sequence":44,"prices":[171,192,136,266,182,195,174,154,236,128],"times":[1057,559,933,699,675,622,762,723,643,1299],"next_num":10,"trial_type":"ticket-choose","trial_index":64,"time_elapsed":1145474,"internal_node_id":"0.0-64.0"},{"result":172,"points":1,"place":4,"phase":0,"sequence":45,"prices":[135,202,150,169,183,225,160,211,220,172],"times":[1232,953,619,595,625,776,712,674,701,1339],"next_num":10,"trial_type":"ticket-choose","trial_index":65,"time_elapsed":1157947,"internal_node_id":"0.0-65.0"},{"result":124,"points":3,"place":0,"phase":0,"sequence":46,"prices":[124,220,136,165,185,234,143,225,228,179],"times":[1657],"next_num":1,"trial_type":"ticket-choose","trial_index":66,"time_elapsed":1162058,"internal_node_id":"0.0-66.0"},{"result":128,"points":3,"place":0,"phase":0,"sequence":47,"prices":[171,195,172,272,179,196,146,150,128,235],"times":[1148,610,581,610,562,543,1266,735,1509],"next_num":9,"trial_type":"ticket-choose","trial_index":67,"time_elapsed":1175720,"internal_node_id":"0.0-67.0"},{"result":130,"points":2,"place":1,"phase":0,"sequence":48,"prices":[181,130,116,142,157,193,165,218,173,207],"times":[1864,2235],"next_num":2,"trial_type":"ticket-choose","trial_index":68,"time_elapsed":1182682,"internal_node_id":"0.0-68.0"},{"result":132,"points":3,"place":0,"phase":0,"sequence":49,"prices":[132,222,144,153,190,248,151,224,228,179],"times":[1983],"next_num":1,"trial_type":"ticket-choose","trial_index":69,"time_elapsed":1186937,"internal_node_id":"0.0-69.0"},{"responses":[{"value":0,"offby":-1,"category":"$90 - $120","category_index":0},{"value":0,"offby":-3,"category":"$121 - $145","category_index":1},{"value":5,"offby":2,"category":"$146 - $170","category_index":2},{"value":10,"offby":4,"category":"$171 - $195","category_index":3},{"value":5,"offby":1,"category":"$196 - $220","category_index":4},{"value":0,"offby":-2,"category":"$221 - $245","category_index":5},{"value":0,"offby":-1,"category":"$246 - $270","category_index":6}],"phase":0,"number":1,"trial_type":"bar-choose","trial_index":70,"time_elapsed":1223154,"internal_node_id":"0.0-70.0"},{"rt":4476,"url":"\/tickets\/utils\/start2.html","trial_type":"html","trial_index":71,"time_elapsed":1228788,"internal_node_id":"0.0-71.0"},{"trial_type":"number-animation","trial_index":72,"time_elapsed":1243254,"internal_node_id":"0.0-72.0"},{"phase":1,"sequence":0,"avg":181,"response":160,"trial_type":"training_avg","trial_index":73,"time_elapsed":1254721,"internal_node_id":"0.0-73.0"},{"trial_type":"number-animation","trial_index":74,"time_elapsed":1282162,"internal_node_id":"0.0-74.0"},{"phase":1,"sequence":1,"avg":188,"response":181,"trial_type":"training_avg","trial_index":75,"time_elapsed":1293959,"internal_node_id":"0.0-75.0"},{"trial_type":"number-animation","trial_index":76,"time_elapsed":1316484,"internal_node_id":"0.0-76.0"},{"phase":1,"sequence":2,"avg":188,"response":190,"trial_type":"training_avg","trial_index":77,"time_elapsed":1328567,"internal_node_id":"0.0-77.0"},{"trial_type":"number-animation","trial_index":78,"time_elapsed":1365941,"internal_node_id":"0.0-78.0"},{"phase":1,"sequence":3,"avg":177,"response":160,"trial_type":"training_avg","trial_index":79,"time_elapsed":1375336,"internal_node_id":"0.0-79.0"},{"trial_type":"number-animation","trial_index":80,"time_elapsed":1401141,"internal_node_id":"0.0-80.0"},{"phase":1,"sequence":4,"avg":182,"response":190,"trial_type":"training_avg","trial_index":81,"time_elapsed":1415028,"internal_node_id":"0.0-81.0"},{"responses":[{"value":0,"offby":0,"category":"$106 - $134","category_index":0},{"value":0,"offby":-1,"category":"$135 - $150","category_index":1},{"value":5,"offby":2,"category":"$151 - $165","category_index":2},{"value":5,"offby":-1,"category":"$166 - $180","category_index":3},{"value":5,"offby":-1,"category":"$181 - $195","category_index":4},{"value":5,"offby":2,"category":"$196 - $210","category_index":5},{"value":0,"offby":-1,"category":"$211 - $225","category_index":6}],"phase":1,"number":0,"trial_type":"bar-choose","trial_index":82,"time_elapsed":1454721,"internal_node_id":"0.0-82.0"},{"rt":3204,"url":"\/tickets\/utils\/testing2.html","trial_type":"html","trial_index":83,"time_elapsed":1459079,"internal_node_id":"0.0-83.0"},{"phase":1,"order":[29,16,6,4,14,23,15,3,36,24,40,13,19,47,35,7,22,2,41,37,21,32,28,1,33,11,27,12,48,38,8,20,45,9,0,49,10,39,46,18,42,44,43,31,17,30,26,5,34,25],"trial_type":"store_order","trial_index":84,"time_elapsed":1460083,"internal_node_id":"0.0-84.0"},{"result":167,"points":2,"place":1,"phase":1,"sequence":0,"prices":[175,185,178,224,181,186,167,168,208,156],"times":[2192,651,749,714,888,722,1662],"next_num":7,"trial_type":"ticket-choose","trial_index":85,"time_elapsed":1472779,"internal_node_id":"0.0-85.0"},{"result":170,"points":2,"place":1,"phase":1,"sequence":1,"prices":[201,187,157,184,198,179,188,185,178,170],"times":[1674,706,2699,688,719,1155,622,648,672,1618],"next_num":10,"trial_type":"ticket-choose","trial_index":86,"time_elapsed":1488629,"internal_node_id":"0.0-86.0"},{"result":158,"points":2,"place":1,"phase":1,"sequence":2,"prices":[175,186,177,223,181,188,158,167,208,154],"times":[7052,776,554,596,571,580,1417],"next_num":7,"trial_type":"ticket-choose","trial_index":87,"time_elapsed":1503959,"internal_node_id":"0.0-87.0"},{"result":158,"points":2,"place":1,"phase":1,"sequence":3,"prices":[176,187,158,225,181,187,177,165,208,153],"times":[2494,596,1438],"next_num":3,"trial_type":"ticket-choose","trial_index":88,"time_elapsed":1511200,"internal_node_id":"0.0-88.0"},{"result":153,"points":3,"place":0,"phase":1,"sequence":4,"prices":[174,186,163,225,181,187,176,166,153,209],"times":[2437,773,986,709,1158,628,616,1921,1870],"next_num":9,"trial_type":"ticket-choose","trial_index":89,"time_elapsed":1529803,"internal_node_id":"0.0-89.0"},{"result":186,"points":1,"place":4,"phase":1,"sequence":5,"prices":[168,192,171,178,188,217,172,195,197,186],"times":[2519,646,612,725,579,634,801,791,778,1477],"next_num":10,"trial_type":"ticket-choose","trial_index":90,"time_elapsed":1544172,"internal_node_id":"0.0-90.0"},{"result":150,"points":3,"place":0,"phase":1,"sequence":6,"prices":[150,185,154,161,173,199,155,188,191,168],"times":[1676],"next_num":1,"trial_type":"ticket-choose","trial_index":91,"time_elapsed":1548881,"internal_node_id":"0.0-91.0"},{"result":166,"points":1,"place":2,"phase":1,"sequence":7,"prices":[176,185,158,225,180,186,177,166,209,154],"times":[1442,596,536,800,674,641,729,1823],"next_num":8,"trial_type":"ticket-choose","trial_index":92,"time_elapsed":1561611,"internal_node_id":"0.0-92.0"},{"result":158,"points":2,"place":1,"phase":1,"sequence":8,"prices":[175,186,177,223,180,187,158,166,209,153],"times":[1514,2033,764,675,672,622,1348],"next_num":7,"trial_type":"ticket-choose","trial_index":93,"time_elapsed":1573507,"internal_node_id":"0.0-93.0"},{"result":184,"points":1,"place":4,"phase":1,"sequence":9,"prices":[161,193,175,181,185,224,180,199,218,184],"times":[1237,676,592,676,577,680,661,724,843,1426],"next_num":10,"trial_type":"ticket-choose","trial_index":94,"time_elapsed":1586074,"internal_node_id":"0.0-94.0"},{"result":159,"points":3,"place":0,"phase":1,"sequence":10,"prices":[159,183,166,168,173,205,167,187,191,170],"times":[1829],"next_num":1,"trial_type":"ticket-choose","trial_index":95,"time_elapsed":1590516,"internal_node_id":"0.0-95.0"},{"result":157,"points":3,"place":0,"phase":1,"sequence":11,"prices":[157,191,165,175,182,203,170,195,200,176],"times":[1428],"next_num":1,"trial_type":"ticket-choose","trial_index":96,"time_elapsed":1594743,"internal_node_id":"0.0-96.0"},{"result":167,"points":2,"place":1,"phase":1,"sequence":12,"prices":[174,186,178,225,181,188,167,168,208,156],"times":[1561,998,629,923,843,635,1951],"next_num":7,"trial_type":"ticket-choose","trial_index":97,"time_elapsed":1606594,"internal_node_id":"0.0-97.0"},{"result":150,"points":3,"place":0,"phase":1,"sequence":13,"prices":[189,150,175,160,188,207,158,194,178,199],"times":[2100,3095],"next_num":2,"trial_type":"ticket-choose","trial_index":98,"time_elapsed":1615921,"internal_node_id":"0.0-98.0"},{"result":155,"points":2,"place":1,"phase":1,"sequence":14,"prices":[181,155,148,161,168,187,172,199,176,194],"times":[2106,1463],"next_num":2,"trial_type":"ticket-choose","trial_index":99,"time_elapsed":1622676,"internal_node_id":"0.0-99.0"},{"result":158,"points":2,"place":1,"phase":1,"sequence":15,"prices":[175,186,158,223,181,188,177,167,208,154],"times":[1733,843,1984],"next_num":3,"trial_type":"ticket-choose","trial_index":100,"time_elapsed":1630621,"internal_node_id":"0.0-100.0"},{"result":208,"points":0,"place":6,"phase":1,"sequence":16,"prices":[210,184,226,193,215,158,199,175,176,208],"times":[1590,597,558,570,590,561,765,985,645,1913],"next_num":10,"trial_type":"ticket-choose","trial_index":101,"time_elapsed":1643526,"internal_node_id":"0.0-101.0"},{"result":158,"points":2,"place":1,"phase":1,"sequence":17,"prices":[176,187,177,225,181,187,158,165,208,153],"times":[1898,597,612,701,629,722,1257],"next_num":7,"trial_type":"ticket-choose","trial_index":102,"time_elapsed":1653443,"internal_node_id":"0.0-102.0"},{"result":155,"points":2,"place":1,"phase":1,"sequence":18,"prices":[201,207,155,158,156,165,167,135,178,177],"times":[739,599,1075],"next_num":3,"trial_type":"ticket-choose","trial_index":103,"time_elapsed":1658579,"internal_node_id":"0.0-103.0"},{"result":153,"points":3,"place":0,"phase":1,"sequence":19,"prices":[175,186,178,225,179,187,167,169,209,153],"times":[744,626,623,636,649,595,1104,687,675,1009],"next_num":10,"trial_type":"ticket-choose","trial_index":104,"time_elapsed":1670070,"internal_node_id":"0.0-104.0"},{"result":154,"points":3,"place":0,"phase":1,"sequence":20,"prices":[175,187,176,226,180,188,163,165,154,208],"times":[1229,638,612,639,619,878,1513,879,1213],"next_num":9,"trial_type":"ticket-choose","trial_index":105,"time_elapsed":1682231,"internal_node_id":"0.0-105.0"},{"result":158,"points":2,"place":1,"phase":1,"sequence":21,"prices":[175,186,158,223,180,187,177,166,209,153],"times":[1520,1110,1269],"next_num":3,"trial_type":"ticket-choose","trial_index":106,"time_elapsed":1688978,"internal_node_id":"0.0-106.0"},{"result":158,"points":2,"place":1,"phase":1,"sequence":22,"prices":[176,185,177,225,180,186,158,166,209,154],"times":[1295,781,642,823,624,571,1248],"next_num":7,"trial_type":"ticket-choose","trial_index":107,"time_elapsed":1700749,"internal_node_id":"0.0-107.0"},{"result":154,"points":3,"place":0,"phase":1,"sequence":23,"prices":[188,200,165,172,198,174,177,154,177,180],"times":[712,588,711,643,624,684,613,1130],"next_num":8,"trial_type":"ticket-choose","trial_index":108,"time_elapsed":1710051,"internal_node_id":"0.0-108.0"},{"result":147,"points":3,"place":0,"phase":1,"sequence":24,"prices":[181,215,169,147,182,193,177,184,176,179],"times":[774,622,609,1587],"next_num":4,"trial_type":"ticket-choose","trial_index":109,"time_elapsed":1716449,"internal_node_id":"0.0-109.0"},{"result":159,"points":1,"place":2,"phase":1,"sequence":25,"prices":[180,159,149,175,185,141,163,174,178,207],"times":[682,1282],"next_num":2,"trial_type":"ticket-choose","trial_index":110,"time_elapsed":1720743,"internal_node_id":"0.0-110.0"},{"result":154,"points":2,"place":1,"phase":1,"sequence":26,"prices":[168,154,172,185,195,144,184,211,177,227],"times":[767,1211],"next_num":2,"trial_type":"ticket-choose","trial_index":111,"time_elapsed":1725039,"internal_node_id":"0.0-111.0"},{"result":152,"points":3,"place":0,"phase":1,"sequence":27,"prices":[152,200,158,173,182,207,161,202,204,180],"times":[1183],"next_num":1,"trial_type":"ticket-choose","trial_index":112,"time_elapsed":1728499,"internal_node_id":"0.0-112.0"},{"result":154,"points":3,"place":0,"phase":1,"sequence":28,"prices":[175,187,163,226,180,188,176,165,154,208],"times":[1418,608,622,627,598,637,644,1053,1189],"next_num":9,"trial_type":"ticket-choose","trial_index":113,"time_elapsed":1740304,"internal_node_id":"0.0-113.0"},{"result":153,"points":3,"place":0,"phase":1,"sequence":29,"prices":[174,186,176,225,181,187,163,166,153,209],"times":[1543,880,552,598,578,576,764,738,1201],"next_num":9,"trial_type":"ticket-choose","trial_index":114,"time_elapsed":1751431,"internal_node_id":"0.0-114.0"},{"result":153,"points":3,"place":0,"phase":1,"sequence":30,"prices":[175,187,167,225,179,187,178,169,208,153],"times":[881,492,726,610,610,609,581,816,752,1085],"next_num":10,"trial_type":"ticket-choose","trial_index":115,"time_elapsed":1762569,"internal_node_id":"0.0-115.0"},{"result":153,"points":3,"place":0,"phase":1,"sequence":31,"prices":[175,187,178,225,179,187,167,169,208,153],"times":[990,547,651,535,634,739,1225,723,4416,1195],"next_num":10,"trial_type":"ticket-choose","trial_index":116,"time_elapsed":1779400,"internal_node_id":"0.0-116.0"},{"result":153,"points":3,"place":0,"phase":1,"sequence":32,"prices":[175,186,167,225,179,187,178,169,209,153],"times":[3511,796,735,701,736,1470,3510,889,1057,1950],"next_num":10,"trial_type":"ticket-choose","trial_index":117,"time_elapsed":1800148,"internal_node_id":"0.0-117.0"},{"result":171,"points":1,"place":3,"phase":1,"sequence":33,"prices":[189,167,180,197,165,168,172,213,178,171],"times":[4014,906,837,699,2108,1095,868,793,710,2449],"next_num":10,"trial_type":"ticket-choose","trial_index":118,"time_elapsed":1819200,"internal_node_id":"0.0-118.0"},{"result":153,"points":3,"place":0,"phase":1,"sequence":34,"prices":[175,186,163,224,179,187,176,165,153,210],"times":[1328,750,635,599,589,772,1284,1378,1723],"next_num":9,"trial_type":"ticket-choose","trial_index":119,"time_elapsed":1832922,"internal_node_id":"0.0-119.0"},{"result":170,"points":1,"place":2,"phase":1,"sequence":35,"prices":[212,192,188,184,167,193,189,164,176,170],"times":[1571,904,621,571,594,583,688,633,818,1372],"next_num":10,"trial_type":"ticket-choose","trial_index":120,"time_elapsed":1845540,"internal_node_id":"0.0-120.0"},{"result":152,"points":3,"place":0,"phase":1,"sequence":36,"prices":[200,181,203,152,175,171,160,154,176,191],"times":[2806,577,600,1622],"next_num":4,"trial_type":"ticket-choose","trial_index":121,"time_elapsed":1854161,"internal_node_id":"0.0-121.0"},{"result":185,"points":1,"place":4,"phase":1,"sequence":37,"prices":[169,196,170,184,187,211,171,201,202,185],"times":[1564,796,582,636,839,722,611,659,606,1018],"next_num":11,"trial_type":"ticket-choose","trial_index":122,"time_elapsed":1867090,"internal_node_id":"0.0-122.0"},{"result":153,"points":3,"place":0,"phase":1,"sequence":38,"prices":[176,186,163,226,179,187,176,166,153,208],"times":[1395,613,842,787,1060,824,1351,1621,1569],"next_num":9,"trial_type":"ticket-choose","trial_index":123,"time_elapsed":1881409,"internal_node_id":"0.0-123.0"},{"result":156,"points":3,"place":0,"phase":1,"sequence":39,"prices":[156,201,162,166,185,214,165,202,204,179],"times":[2169],"next_num":1,"trial_type":"ticket-choose","trial_index":124,"time_elapsed":1886156,"internal_node_id":"0.0-124.0"},{"result":156,"points":3,"place":0,"phase":1,"sequence":40,"prices":[174,186,167,225,181,188,178,168,208,156],"times":[1773,619,706,650,566,592,905,930,676,1242],"next_num":10,"trial_type":"ticket-choose","trial_index":125,"time_elapsed":1899142,"internal_node_id":"0.0-125.0"},{"result":148,"points":3,"place":0,"phase":1,"sequence":41,"prices":[148,171,150,163,167,220,162,186,187,165],"times":[1921],"next_num":1,"trial_type":"ticket-choose","trial_index":126,"time_elapsed":1903724,"internal_node_id":"0.0-126.0"},{"result":188,"points":1,"place":4,"phase":1,"sequence":42,"prices":[161,193,167,187,190,224,174,194,195,188],"times":[2719,1187,830,636,600,604,684,609,968,1276],"next_num":10,"trial_type":"ticket-choose","trial_index":127,"time_elapsed":1921525,"internal_node_id":"0.0-127.0"},{"result":143,"points":3,"place":0,"phase":1,"sequence":43,"prices":[222,173,202,197,143,205,198,183,178,186],"times":[1163,638,821,723,1772],"next_num":5,"trial_type":"ticket-choose","trial_index":128,"time_elapsed":1930050,"internal_node_id":"0.0-128.0"},{"result":148,"points":3,"place":0,"phase":1,"sequence":44,"prices":[183,163,185,180,166,148,160,186,176,184],"times":[1458,827,620,612,659,1763],"next_num":6,"trial_type":"ticket-choose","trial_index":129,"time_elapsed":1939235,"internal_node_id":"0.0-129.0"},{"result":153,"points":3,"place":0,"phase":1,"sequence":45,"prices":[175,186,176,224,179,187,163,165,153,210],"times":[1111,584,619,620,583,571,1247,774,1516],"next_num":9,"trial_type":"ticket-choose","trial_index":130,"time_elapsed":1951182,"internal_node_id":"0.0-130.0"},{"result":156,"points":3,"place":0,"phase":1,"sequence":46,"prices":[175,185,167,224,181,186,178,168,208,156],"times":[1671,621,565,648,621,594,606,862,700,1260],"next_num":10,"trial_type":"ticket-choose","trial_index":131,"time_elapsed":1963720,"internal_node_id":"0.0-131.0"},{"result":166,"points":2,"place":1,"phase":1,"sequence":47,"prices":[168,199,196,198,185,195,227,163,177,166],"times":[1232,493,573,545,538,597,619,505,573,595],"next_num":11,"trial_type":"ticket-choose","trial_index":132,"time_elapsed":1974735,"internal_node_id":"0.0-132.0"},{"result":152,"points":3,"place":0,"phase":1,"sequence":48,"prices":[198,193,169,163,202,182,152,164,177,171],"times":[1549,630,534,554,654,610,1633],"next_num":7,"trial_type":"ticket-choose","trial_index":133,"time_elapsed":1984541,"internal_node_id":"0.0-133.0"},{"result":153,"points":3,"place":0,"phase":1,"sequence":49,"prices":[176,186,176,226,179,187,163,166,153,208],"times":[1095,495,560,596,550,557,727,624,1494],"next_num":9,"trial_type":"ticket-choose","trial_index":134,"time_elapsed":1995283,"internal_node_id":"0.0-134.0"},{"responses":[{"value":0,"offby":0,"category":"$106 - $134","category_index":0},{"value":0,"offby":-1,"category":"$135 - $150","category_index":1},{"value":5,"offby":2,"category":"$151 - $165","category_index":2},{"value":5,"offby":-1,"category":"$166 - $180","category_index":3},{"value":5,"offby":-1,"category":"$181 - $195","category_index":4},{"value":5,"offby":2,"category":"$196 - $210","category_index":5},{"value":0,"offby":-1,"category":"$211 - $225","category_index":6}],"phase":1,"number":1,"trial_type":"bar-choose","trial_index":135,"time_elapsed":2021393,"internal_node_id":"0.0-135.0"},{"special_comment":"no","trial_type":"special_sequence","trial_index":136,"time_elapsed":2033326,"internal_node_id":"0.0-136.0"},{"during":"Nothing","bonus":316,"trial_type":"final","trial_index":137,"time_elapsed":2065251,"internal_node_id":"0.0-137.0"}],"bonus":316}