{"start_time":"2017-02-22 11:00:24","end_time":"2017-02-22 11:19:35","points_phase0":100,"points_phase1":94,"phase_order":1,"age":29,"gender":"f","tries":2,"during":"Nothing","worker_id":"A1G452MFAS690B","assignment_id":"3WT783CTPCAEMX8YCW30D7ECHQJCBP","data":[{"rt":11863,"url":"\/tickets\/utils\/consent.html","trial_type":"html","trial_index":0,"time_elapsed":12003,"internal_node_id":"0.0-0.0"},{"age":29,"gender":"f","trial_type":"age","trial_index":1,"time_elapsed":17165,"internal_node_id":"0.0-1.0"},{"worker_id":"A1G452MFAS690B","trial_type":"workerid","trial_index":2,"time_elapsed":23495,"internal_node_id":"0.0-2.0"},{"tries":2,"trial_type":"instructions_check","trial_index":3,"time_elapsed":52227,"internal_node_id":"0.0-3.0"},{"rt":8729,"url":"\/tickets\/utils\/start.html","trial_type":"html","trial_index":4,"time_elapsed":62106,"internal_node_id":"0.0-4.0"},{"trial_type":"number-animation","trial_index":5,"time_elapsed":79199,"internal_node_id":"0.0-5.0"},{"phase":0,"sequence":0,"avg":182,"response":140,"trial_type":"training_avg","trial_index":6,"time_elapsed":88365,"internal_node_id":"0.0-6.0"},{"trial_type":"number-animation","trial_index":7,"time_elapsed":99823,"internal_node_id":"0.0-7.0"},{"phase":0,"sequence":1,"avg":188,"response":170,"trial_type":"training_avg","trial_index":8,"time_elapsed":105626,"internal_node_id":"0.0-8.0"},{"trial_type":"number-animation","trial_index":9,"time_elapsed":114815,"internal_node_id":"0.0-9.0"},{"phase":0,"sequence":2,"avg":176,"response":150,"trial_type":"training_avg","trial_index":10,"time_elapsed":120127,"internal_node_id":"0.0-10.0"},{"trial_type":"number-animation","trial_index":11,"time_elapsed":128889,"internal_node_id":"0.0-11.0"},{"phase":0,"sequence":3,"avg":180,"response":160,"trial_type":"training_avg","trial_index":12,"time_elapsed":134489,"internal_node_id":"0.0-12.0"},{"trial_type":"number-animation","trial_index":13,"time_elapsed":141985,"internal_node_id":"0.0-13.0"},{"phase":0,"sequence":4,"avg":174,"response":150,"trial_type":"training_avg","trial_index":14,"time_elapsed":146273,"internal_node_id":"0.0-14.0"},{"responses":[{"value":0,"offby":-1,"category":"$90 - $120","category_index":0},{"value":5,"offby":2,"category":"$121 - $145","category_index":1},{"value":3,"offby":0,"category":"$146 - $170","category_index":2},{"value":4,"offby":-2,"category":"$171 - $195","category_index":3},{"value":3,"offby":-1,"category":"$196 - $220","category_index":4},{"value":5,"offby":3,"category":"$221 - $245","category_index":5},{"value":0,"offby":-1,"category":"$246 - $270","category_index":6}],"phase":0,"number":0,"trial_type":"bar-choose","trial_index":15,"time_elapsed":190889,"internal_node_id":"0.0-15.0"},{"rt":9132,"url":"\/tickets\/\/utils\/testing.html","trial_type":"html","trial_index":16,"time_elapsed":201135,"internal_node_id":"0.0-16.0"},{"phase":0,"order":[47,39,7,49,32,22,33,26,30,16,40,10,15,0,19,29,18,13,38,3,4,1,37,43,42,2,8,44,12,23,28,41,24,36,11,17,25,31,45,21,9,35,48,14,46,20,34,5,27,6],"trial_type":"store_order","trial_index":17,"time_elapsed":202151,"internal_node_id":"0.0-17.0"},{"result":165,"points":2,"place":1,"phase":0,"sequence":-1,"prices":[184,180,224,165,181,199,185,193,218,126],"times":[3361,1414,1209,1285],"next_num":4,"trial_type":"ticket-choose","trial_index":18,"time_elapsed":212436,"internal_node_id":"0.0-18.0"},{"rt":3243,"url":"\/tickets\/utils\/testing_after.html","trial_type":"html","trial_index":19,"time_elapsed":216801,"internal_node_id":"0.0-19.0"},{"result":136,"points":3,"place":0,"phase":0,"sequence":0,"prices":[240,188,273,207,250,136,217,170,171,236],"times":[1677,1059,831,951,1149,1025],"next_num":6,"trial_type":"ticket-choose","trial_index":20,"time_elapsed":228207,"internal_node_id":"0.0-20.0"},{"result":146,"points":2,"place":1,"phase":0,"sequence":1,"prices":[168,191,146,252,183,193,172,153,126,238],"times":[3237,525,1073],"next_num":3,"trial_type":"ticket-choose","trial_index":21,"time_elapsed":236017,"internal_node_id":"0.0-21.0"},{"result":156,"points":1,"place":2,"phase":0,"sequence":2,"prices":[168,192,154,237,182,196,176,156,235,133],"times":[1595,574,623,515,683,614,654,1022],"next_num":8,"trial_type":"ticket-choose","trial_index":22,"time_elapsed":246106,"internal_node_id":"0.0-22.0"},{"result":146,"points":1,"place":2,"phase":0,"sequence":3,"prices":[186,146,191,179,152,116,140,201,172,187],"times":[1315,1547],"next_num":2,"trial_type":"ticket-choose","trial_index":23,"time_elapsed":251882,"internal_node_id":"0.0-23.0"},{"result":146,"points":3,"place":0,"phase":0,"sequence":4,"prices":[156,218,212,216,191,210,275,146,174,152],"times":[1665,517,466,554,537,554,841,1065],"next_num":8,"trial_type":"ticket-choose","trial_index":24,"time_elapsed":262397,"internal_node_id":"0.0-24.0"},{"result":136,"points":2,"place":1,"phase":0,"sequence":5,"prices":[173,191,174,270,180,193,136,153,239,129],"times":[5176,437,662,486,634,980,887],"next_num":7,"trial_type":"ticket-choose","trial_index":25,"time_elapsed":275446,"internal_node_id":"0.0-25.0"},{"result":158,"points":1,"place":2,"phase":0,"sequence":6,"prices":[169,194,154,271,178,201,176,158,236,127],"times":[1350,482,990,554,450,634,882,821],"next_num":8,"trial_type":"ticket-choose","trial_index":26,"time_elapsed":285590,"internal_node_id":"0.0-26.0"},{"result":136,"points":2,"place":1,"phase":0,"sequence":7,"prices":[171,192,136,243,182,195,174,154,236,128],"times":[832,681,896],"next_num":3,"trial_type":"ticket-choose","trial_index":27,"time_elapsed":290724,"internal_node_id":"0.0-27.0"},{"result":127,"points":3,"place":0,"phase":0,"sequence":8,"prices":[173,194,136,239,182,200,174,150,236,127],"times":[632,539,484,614,519,693,523,613,742,934],"next_num":10,"trial_type":"ticket-choose","trial_index":28,"time_elapsed":301399,"internal_node_id":"0.0-28.0"},{"result":154,"points":2,"place":1,"phase":0,"sequence":9,"prices":[170,193,176,245,178,194,154,159,236,126],"times":[942,515,594,673,712,604,920],"next_num":7,"trial_type":"ticket-choose","trial_index":29,"time_elapsed":309850,"internal_node_id":"0.0-29.0"},{"result":130,"points":2,"place":1,"phase":0,"sequence":10,"prices":[181,130,116,142,157,193,165,218,173,207],"times":[1476,938],"next_num":2,"trial_type":"ticket-choose","trial_index":30,"time_elapsed":314596,"internal_node_id":"0.0-30.0"},{"result":136,"points":2,"place":1,"phase":0,"sequence":11,"prices":[170,192,174,242,181,196,136,153,236,128],"times":[1227,628,559,643,574,585,834],"next_num":7,"trial_type":"ticket-choose","trial_index":31,"time_elapsed":322786,"internal_node_id":"0.0-31.0"},{"result":129,"points":3,"place":0,"phase":0,"sequence":12,"prices":[169,193,146,237,180,196,172,150,129,236],"times":[902,426,445,484,535,534,564,1139,803],"next_num":9,"trial_type":"ticket-choose","trial_index":32,"time_elapsed":332350,"internal_node_id":"0.0-32.0"},{"result":126,"points":3,"place":0,"phase":0,"sequence":13,"prices":[173,191,146,242,178,194,172,152,126,235],"times":[799,552,1088,623,534,525,586,703,797],"next_num":9,"trial_type":"ticket-choose","trial_index":33,"time_elapsed":342323,"internal_node_id":"0.0-33.0"},{"result":127,"points":3,"place":0,"phase":0,"sequence":14,"prices":[171,191,172,268,179,194,146,150,127,239],"times":[958,554,446,689,543,526,572,969,722],"next_num":9,"trial_type":"ticket-choose","trial_index":34,"time_elapsed":351986,"internal_node_id":"0.0-34.0"},{"result":128,"points":3,"place":0,"phase":0,"sequence":15,"prices":[171,195,172,242,179,196,146,150,128,235],"times":[923,468,580,603,554,634,1068,683,1006],"next_num":9,"trial_type":"ticket-choose","trial_index":35,"time_elapsed":362197,"internal_node_id":"0.0-35.0"},{"result":128,"points":3,"place":0,"phase":0,"sequence":16,"prices":[196,221,149,164,216,167,175,128,176,181],"times":[1324,419,524,564,623,505,486,1800],"next_num":8,"trial_type":"ticket-choose","trial_index":36,"time_elapsed":372125,"internal_node_id":"0.0-36.0"},{"result":179,"points":1,"place":4,"phase":0,"sequence":17,"prices":[132,222,144,153,190,248,151,224,228,179],"times":[848,454,495,435,564,585,604,733,752,947],"next_num":10,"trial_type":"ticket-choose","trial_index":37,"time_elapsed":382685,"internal_node_id":"0.0-37.0"},{"result":154,"points":2,"place":1,"phase":0,"sequence":18,"prices":[169,192,176,244,178,194,154,159,237,125],"times":[676,605,539,558,567,544,933],"next_num":7,"trial_type":"ticket-choose","trial_index":38,"time_elapsed":390296,"internal_node_id":"0.0-38.0"},{"result":177,"points":0,"place":5,"phase":0,"sequence":19,"prices":[197,153,181,215,150,155,164,247,177,162],"times":[934,435,475,485,495,970,951,621,704],"next_num":9,"trial_type":"ticket-choose","trial_index":39,"time_elapsed":400033,"internal_node_id":"0.0-39.0"},{"result":131,"points":2,"place":1,"phase":0,"sequence":20,"prices":[221,234,131,136,132,149,154,90,176,173],"times":[1015,508,804],"next_num":3,"trial_type":"ticket-choose","trial_index":40,"time_elapsed":404784,"internal_node_id":"0.0-40.0"},{"result":154,"points":2,"place":1,"phase":0,"sequence":21,"prices":[168,192,176,242,183,197,154,156,237,132],"times":[656,538,525,584,554,564,896],"next_num":7,"trial_type":"ticket-choose","trial_index":41,"time_elapsed":412322,"internal_node_id":"0.0-41.0"},{"result":146,"points":2,"place":1,"phase":0,"sequence":22,"prices":[172,191,176,272,179,194,146,152,126,235],"times":[1559,1792,514,552,664,581,756],"next_num":7,"trial_type":"ticket-choose","trial_index":42,"time_elapsed":421810,"internal_node_id":"0.0-42.0"},{"result":105,"points":3,"place":0,"phase":0,"sequence":23,"prices":[263,165,224,214,105,230,215,185,177,193],"times":[777,564,624,575,996],"next_num":5,"trial_type":"ticket-choose","trial_index":43,"time_elapsed":428142,"internal_node_id":"0.0-43.0"},{"result":136,"points":2,"place":1,"phase":0,"sequence":24,"prices":[172,194,174,243,182,193,136,150,237,126],"times":[734,433,528,635,673,842,798],"next_num":7,"trial_type":"ticket-choose","trial_index":44,"time_elapsed":435895,"internal_node_id":"0.0-44.0"},{"result":149,"points":3,"place":0,"phase":0,"sequence":25,"prices":[244,203,196,189,154,206,197,149,171,159],"times":[648,523,498,488,685,495,524,1272],"next_num":8,"trial_type":"ticket-choose","trial_index":45,"time_elapsed":444553,"internal_node_id":"0.0-45.0"},{"result":119,"points":3,"place":0,"phase":0,"sequence":26,"prices":[198,119,169,141,195,233,136,208,177,217],"times":[905,1262],"next_num":2,"trial_type":"ticket-choose","trial_index":46,"time_elapsed":448838,"internal_node_id":"0.0-46.0"},{"result":196,"points":1,"place":4,"phase":0,"sequence":27,"prices":[143,206,153,194,201,267,168,208,210,196],"times":[2977,416,654,505,564,514,941,663,604,702],"next_num":10,"trial_type":"ticket-choose","trial_index":47,"time_elapsed":461203,"internal_node_id":"0.0-47.0"},{"result":124,"points":3,"place":0,"phase":0,"sequence":28,"prices":[216,206,158,145,224,185,124,149,175,162],"times":[851,553,742,891,784,624,972],"next_num":7,"trial_type":"ticket-choose","trial_index":48,"time_elapsed":469667,"internal_node_id":"0.0-48.0"},{"result":159,"points":2,"place":1,"phase":0,"sequence":29,"prices":[182,249,159,114,184,205,175,189,172,178],"times":[797,604,850],"next_num":3,"trial_type":"ticket-choose","trial_index":49,"time_elapsed":474124,"internal_node_id":"0.0-49.0"},{"result":146,"points":2,"place":1,"phase":0,"sequence":30,"prices":[170,193,146,268,178,195,172,149,126,241],"times":[807,570,847],"next_num":3,"trial_type":"ticket-choose","trial_index":50,"time_elapsed":478576,"internal_node_id":"0.0-50.0"},{"result":172,"points":1,"place":4,"phase":0,"sequence":31,"prices":[135,202,150,169,183,225,160,211,220,172],"times":[834,424,546,801,525,578,774,634,594,695],"next_num":10,"trial_type":"ticket-choose","trial_index":51,"time_elapsed":488836,"internal_node_id":"0.0-51.0"},{"result":136,"points":2,"place":1,"phase":0,"sequence":32,"prices":[171,192,136,265,180,194,174,152,239,127],"times":[1224,623,861],"next_num":3,"trial_type":"ticket-choose","trial_index":52,"time_elapsed":493816,"internal_node_id":"0.0-52.0"},{"result":189,"points":1,"place":4,"phase":0,"sequence":33,"prices":[157,213,159,187,194,242,161,222,225,189],"times":[832,522,715,736,584,536,812,713,575,674],"next_num":10,"trial_type":"ticket-choose","trial_index":53,"time_elapsed":504285,"internal_node_id":"0.0-53.0"},{"result":135,"points":3,"place":0,"phase":0,"sequence":34,"prices":[221,193,135,188,217,179,196,190,175,159],"times":[876,664,831],"next_num":3,"trial_type":"ticket-choose","trial_index":54,"time_elapsed":509007,"internal_node_id":"0.0-54.0"},{"result":158,"points":1,"place":2,"phase":0,"sequence":35,"prices":[169,193,154,255,178,194,176,158,239,126],"times":[688,602,457,517,534,587,603,807],"next_num":8,"trial_type":"ticket-choose","trial_index":55,"time_elapsed":516910,"internal_node_id":"0.0-55.0"},{"result":138,"points":1,"place":2,"phase":0,"sequence":36,"prices":[181,138,118,170,190,101,146,169,175,233],"times":[1234,1283],"next_num":2,"trial_type":"ticket-choose","trial_index":56,"time_elapsed":521435,"internal_node_id":"0.0-56.0"},{"result":188,"points":1,"place":4,"phase":0,"sequence":37,"prices":[142,207,171,182,190,269,180,218,256,188],"times":[16388,544,532,514,534,484,538,741,611,639],"next_num":10,"trial_type":"ticket-choose","trial_index":57,"time_elapsed":546808,"internal_node_id":"0.0-57.0"},{"result":124,"points":3,"place":0,"phase":0,"sequence":38,"prices":[219,183,227,124,176,161,140,129,171,201],"times":[894,546,554,799],"next_num":4,"trial_type":"ticket-choose","trial_index":58,"time_elapsed":552030,"internal_node_id":"0.0-58.0"},{"result":192,"points":1,"place":4,"phase":0,"sequence":39,"prices":[157,205,161,175,197,254,165,210,214,192],"times":[569,417,524,438,509,527,683,797,764,523],"next_num":10,"trial_type":"ticket-choose","trial_index":59,"time_elapsed":561660,"internal_node_id":"0.0-59.0"},{"result":136,"points":2,"place":1,"phase":0,"sequence":40,"prices":[172,190,136,270,179,192,174,152,237,129],"times":[848,551,785],"next_num":3,"trial_type":"ticket-choose","trial_index":60,"time_elapsed":566073,"internal_node_id":"0.0-60.0"},{"result":154,"points":2,"place":1,"phase":0,"sequence":41,"prices":[170,190,176,251,183,192,154,157,236,131],"times":[827,630,535,613,1103,604,856],"next_num":7,"trial_type":"ticket-choose","trial_index":61,"time_elapsed":574283,"internal_node_id":"0.0-61.0"},{"result":165,"points":1,"place":3,"phase":0,"sequence":42,"prices":[124,220,136,165,185,234,143,225,228,179],"times":[550,1141,1855,873],"next_num":4,"trial_type":"ticket-choose","trial_index":62,"time_elapsed":581422,"internal_node_id":"0.0-62.0"},{"result":117,"points":3,"place":0,"phase":0,"sequence":43,"prices":[117,161,120,147,153,259,144,191,195,149],"times":[1544],"next_num":1,"trial_type":"ticket-choose","trial_index":63,"time_elapsed":584921,"internal_node_id":"0.0-63.0"},{"result":160,"points":1,"place":4,"phase":0,"sequence":44,"prices":[137,187,152,156,166,231,155,194,202,160],"times":[2539,548,558,565,626,980,1015,789,669,700],"next_num":10,"trial_type":"ticket-choose","trial_index":64,"time_elapsed":597832,"internal_node_id":"0.0-64.0"},{"result":146,"points":2,"place":1,"phase":0,"sequence":45,"prices":[168,191,172,240,183,193,146,151,125,238],"times":[1267,596,565,748,614,792,880],"next_num":7,"trial_type":"ticket-choose","trial_index":65,"time_elapsed":606311,"internal_node_id":"0.0-65.0"},{"result":121,"points":3,"place":0,"phase":0,"sequence":46,"prices":[121,191,128,141,166,217,129,196,202,157],"times":[1634],"next_num":1,"trial_type":"ticket-choose","trial_index":66,"time_elapsed":610054,"internal_node_id":"0.0-66.0"},{"result":136,"points":2,"place":1,"phase":0,"sequence":47,"prices":[169,192,174,246,180,195,136,152,238,126],"times":[701,570,524,654,683,723,839],"next_num":7,"trial_type":"ticket-choose","trial_index":67,"time_elapsed":617793,"internal_node_id":"0.0-67.0"},{"result":129,"points":2,"place":1,"phase":0,"sequence":48,"prices":[155,129,164,189,210,108,187,241,174,275],"times":[884,1041],"next_num":2,"trial_type":"ticket-choose","trial_index":68,"time_elapsed":621882,"internal_node_id":"0.0-68.0"},{"result":155,"points":1,"place":2,"phase":0,"sequence":49,"prices":[169,191,154,268,183,197,176,155,236,133],"times":[945,529,689,529,531,708,1689,963],"next_num":8,"trial_type":"ticket-choose","trial_index":69,"time_elapsed":631732,"internal_node_id":"0.0-69.0"},{"responses":[{"value":0,"offby":-1,"category":"$90 - $120","category_index":0},{"value":2,"offby":-1,"category":"$121 - $145","category_index":1},{"value":3,"offby":0,"category":"$146 - $170","category_index":2},{"value":5,"offby":-1,"category":"$171 - $195","category_index":3},{"value":3,"offby":-1,"category":"$196 - $220","category_index":4},{"value":7,"offby":5,"category":"$221 - $245","category_index":5},{"value":0,"offby":-1,"category":"$246 - $270","category_index":6}],"phase":0,"number":1,"trial_type":"bar-choose","trial_index":70,"time_elapsed":654664,"internal_node_id":"0.0-70.0"},{"rt":5808,"url":"\/tickets\/utils\/start2.html","trial_type":"html","trial_index":71,"time_elapsed":661581,"internal_node_id":"0.0-71.0"},{"trial_type":"number-animation","trial_index":72,"time_elapsed":678056,"internal_node_id":"0.0-72.0"},{"phase":1,"sequence":0,"avg":181,"response":171,"trial_type":"training_avg","trial_index":73,"time_elapsed":684575,"internal_node_id":"0.0-73.0"},{"trial_type":"number-animation","trial_index":74,"time_elapsed":692505,"internal_node_id":"0.0-74.0"},{"phase":1,"sequence":1,"avg":188,"response":180,"trial_type":"training_avg","trial_index":75,"time_elapsed":698048,"internal_node_id":"0.0-75.0"},{"trial_type":"number-animation","trial_index":76,"time_elapsed":705541,"internal_node_id":"0.0-76.0"},{"phase":1,"sequence":2,"avg":188,"response":180,"trial_type":"training_avg","trial_index":77,"time_elapsed":712127,"internal_node_id":"0.0-77.0"},{"trial_type":"number-animation","trial_index":78,"time_elapsed":720000,"internal_node_id":"0.0-78.0"},{"phase":1,"sequence":3,"avg":177,"response":176,"trial_type":"training_avg","trial_index":79,"time_elapsed":724731,"internal_node_id":"0.0-79.0"},{"trial_type":"number-animation","trial_index":80,"time_elapsed":733217,"internal_node_id":"0.0-80.0"},{"phase":1,"sequence":4,"avg":182,"response":174,"trial_type":"training_avg","trial_index":81,"time_elapsed":737725,"internal_node_id":"0.0-81.0"},{"responses":[{"value":0,"offby":0,"category":"$106 - $134","category_index":0},{"value":5,"offby":4,"category":"$135 - $150","category_index":1},{"value":5,"offby":2,"category":"$151 - $165","category_index":2},{"value":3,"offby":-3,"category":"$166 - $180","category_index":3},{"value":2,"offby":-4,"category":"$181 - $195","category_index":4},{"value":2,"offby":-1,"category":"$196 - $210","category_index":5},{"value":3,"offby":2,"category":"$211 - $225","category_index":6}],"phase":1,"number":0,"trial_type":"bar-choose","trial_index":82,"time_elapsed":756874,"internal_node_id":"0.0-82.0"},{"rt":1657,"url":"\/tickets\/utils\/testing2.html","trial_type":"html","trial_index":83,"time_elapsed":759646,"internal_node_id":"0.0-83.0"},{"phase":1,"order":[46,2,8,49,38,23,11,17,18,15,34,21,1,0,7,5,36,25,14,39,41,12,4,42,22,45,40,32,37,48,3,30,16,28,43,10,44,24,47,27,19,13,26,31,33,6,29,20,35,9],"trial_type":"store_order","trial_index":84,"time_elapsed":760648,"internal_node_id":"0.0-84.0"},{"result":152,"points":3,"place":0,"phase":1,"sequence":0,"prices":[200,181,203,152,175,171,160,154,176,191],"times":[2457,1207,1025,989],"next_num":4,"trial_type":"ticket-choose","trial_index":85,"time_elapsed":769354,"internal_node_id":"0.0-85.0"},{"result":165,"points":3,"place":0,"phase":1,"sequence":1,"prices":[189,167,180,197,165,168,172,213,178,171],"times":[800,389,544,609,917],"next_num":5,"trial_type":"ticket-choose","trial_index":86,"time_elapsed":775301,"internal_node_id":"0.0-86.0"},{"result":179,"points":0,"place":5,"phase":1,"sequence":2,"prices":[175,186,176,224,179,187,163,165,153,210],"times":[821,441,545,554,1146],"next_num":5,"trial_type":"ticket-choose","trial_index":87,"time_elapsed":781765,"internal_node_id":"0.0-87.0"},{"result":148,"points":3,"place":0,"phase":1,"sequence":3,"prices":[183,163,185,180,166,148,160,186,176,184],"times":[755,911,545,554,913,996],"next_num":6,"trial_type":"ticket-choose","trial_index":88,"time_elapsed":789347,"internal_node_id":"0.0-88.0"},{"result":188,"points":1,"place":4,"phase":1,"sequence":4,"prices":[161,193,167,187,190,224,174,194,195,188],"times":[997,578,654,594,590,634,1040,762,614,605],"next_num":10,"trial_type":"ticket-choose","trial_index":89,"time_elapsed":800268,"internal_node_id":"0.0-89.0"},{"result":158,"points":2,"place":1,"phase":1,"sequence":5,"prices":[176,187,177,225,181,187,158,165,208,153],"times":[746,642,881,604,866,723,880],"next_num":7,"trial_type":"ticket-choose","trial_index":90,"time_elapsed":808776,"internal_node_id":"0.0-90.0"},{"result":167,"points":1,"place":2,"phase":1,"sequence":6,"prices":[159,183,166,168,173,205,167,187,191,170],"times":[1021,634,643,614,564,628,1866],"next_num":7,"trial_type":"ticket-choose","trial_index":91,"time_elapsed":817809,"internal_node_id":"0.0-91.0"},{"result":158,"points":2,"place":1,"phase":1,"sequence":7,"prices":[152,200,158,173,182,207,161,202,204,180],"times":[666,531,952],"next_num":3,"trial_type":"ticket-choose","trial_index":92,"time_elapsed":822127,"internal_node_id":"0.0-92.0"},{"result":176,"points":1,"place":4,"phase":1,"sequence":8,"prices":[157,191,165,175,182,203,170,195,200,176],"times":[834,620,586,545,591,594,932,613,591,497],"next_num":10,"trial_type":"ticket-choose","trial_index":93,"time_elapsed":832200,"internal_node_id":"0.0-93.0"},{"result":158,"points":2,"place":1,"phase":1,"sequence":9,"prices":[175,186,158,211,180,187,177,166,209,153],"times":[2186,1240,865],"next_num":3,"trial_type":"ticket-choose","trial_index":94,"time_elapsed":838779,"internal_node_id":"0.0-94.0"},{"result":150,"points":3,"place":0,"phase":1,"sequence":10,"prices":[189,150,175,160,188,207,158,194,178,199],"times":[996,818],"next_num":2,"trial_type":"ticket-choose","trial_index":95,"time_elapsed":842847,"internal_node_id":"0.0-95.0"},{"result":167,"points":2,"place":1,"phase":1,"sequence":11,"prices":[175,186,167,225,179,187,178,169,209,153],"times":[616,621,862],"next_num":3,"trial_type":"ticket-choose","trial_index":96,"time_elapsed":847228,"internal_node_id":"0.0-96.0"},{"result":179,"points":0,"place":5,"phase":1,"sequence":12,"prices":[175,187,178,209,179,187,167,169,208,153],"times":[483,447,553,514,1059],"next_num":5,"trial_type":"ticket-choose","trial_index":97,"time_elapsed":853030,"internal_node_id":"0.0-97.0"},{"result":163,"points":2,"place":1,"phase":1,"sequence":13,"prices":[176,186,163,214,179,187,176,166,153,208],"times":[953,592,910],"next_num":3,"trial_type":"ticket-choose","trial_index":98,"time_elapsed":857665,"internal_node_id":"0.0-98.0"},{"result":158,"points":2,"place":1,"phase":1,"sequence":14,"prices":[176,185,158,217,180,186,177,166,209,154],"times":[1011,762,829],"next_num":3,"trial_type":"ticket-choose","trial_index":99,"time_elapsed":862458,"internal_node_id":"0.0-99.0"},{"result":168,"points":1,"place":4,"phase":1,"sequence":15,"prices":[150,185,154,161,173,199,155,188,191,168],"times":[1038,495,673,571,535,535,1125,544,525,559],"next_num":10,"trial_type":"ticket-choose","trial_index":100,"time_elapsed":872737,"internal_node_id":"0.0-100.0"},{"result":158,"points":2,"place":1,"phase":1,"sequence":16,"prices":[176,187,158,210,181,187,177,165,208,153],"times":[590,510,752],"next_num":3,"trial_type":"ticket-choose","trial_index":101,"time_elapsed":876694,"internal_node_id":"0.0-101.0"},{"result":167,"points":2,"place":1,"phase":1,"sequence":17,"prices":[175,185,178,215,181,186,167,168,208,156],"times":[671,495,544,566,577,604,870],"next_num":7,"trial_type":"ticket-choose","trial_index":102,"time_elapsed":884016,"internal_node_id":"0.0-102.0"},{"result":163,"points":3,"place":0,"phase":1,"sequence":18,"prices":[168,199,196,198,185,195,227,163,177,166],"times":[677,525,555,555,585,586,584,775],"next_num":8,"trial_type":"ticket-choose","trial_index":103,"time_elapsed":892012,"internal_node_id":"0.0-103.0"},{"result":165,"points":1,"place":2,"phase":1,"sequence":19,"prices":[175,186,163,211,179,187,176,165,153,210],"times":[735,765,564,574,664,615,920,876],"next_num":8,"trial_type":"ticket-choose","trial_index":104,"time_elapsed":900965,"internal_node_id":"0.0-104.0"},{"result":163,"points":2,"place":1,"phase":1,"sequence":20,"prices":[176,186,176,210,179,187,163,166,153,208],"times":[946,535,545,544,555,563,1019],"next_num":7,"trial_type":"ticket-choose","trial_index":105,"time_elapsed":908755,"internal_node_id":"0.0-105.0"},{"result":163,"points":2,"place":1,"phase":1,"sequence":21,"prices":[175,187,163,209,180,188,176,165,154,208],"times":[837,485,840],"next_num":3,"trial_type":"ticket-choose","trial_index":106,"time_elapsed":913037,"internal_node_id":"0.0-106.0"},{"result":152,"points":3,"place":0,"phase":1,"sequence":22,"prices":[198,193,169,163,202,182,152,164,177,171],"times":[1145,1388,533,554,613,549,871],"next_num":7,"trial_type":"ticket-choose","trial_index":107,"time_elapsed":921715,"internal_node_id":"0.0-107.0"},{"result":157,"points":3,"place":0,"phase":1,"sequence":23,"prices":[201,187,157,184,198,179,188,185,178,170],"times":[911,554,916],"next_num":3,"trial_type":"ticket-choose","trial_index":108,"time_elapsed":926312,"internal_node_id":"0.0-108.0"},{"result":143,"points":3,"place":0,"phase":1,"sequence":24,"prices":[222,173,202,197,143,205,198,183,178,186],"times":[669,630,534,604,855],"next_num":5,"trial_type":"ticket-choose","trial_index":109,"time_elapsed":932174,"internal_node_id":"0.0-109.0"},{"result":163,"points":2,"place":1,"phase":1,"sequence":25,"prices":[174,186,163,212,181,187,176,166,153,209],"times":[593,623,818],"next_num":3,"trial_type":"ticket-choose","trial_index":110,"time_elapsed":936369,"internal_node_id":"0.0-110.0"},{"result":167,"points":2,"place":1,"phase":1,"sequence":26,"prices":[174,186,167,211,181,188,178,168,208,156],"times":[587,498,807],"next_num":3,"trial_type":"ticket-choose","trial_index":111,"time_elapsed":940405,"internal_node_id":"0.0-111.0"},{"result":159,"points":1,"place":2,"phase":1,"sequence":27,"prices":[180,159,149,175,185,141,163,174,178,207],"times":[702,744],"next_num":2,"trial_type":"ticket-choose","trial_index":112,"time_elapsed":943982,"internal_node_id":"0.0-112.0"},{"result":167,"points":2,"place":1,"phase":1,"sequence":28,"prices":[174,186,178,217,181,188,167,168,208,156],"times":[10947,553,480,681,563,654,986],"next_num":7,"trial_type":"ticket-choose","trial_index":113,"time_elapsed":961859,"internal_node_id":"0.0-113.0"},{"result":158,"points":2,"place":1,"phase":1,"sequence":29,"prices":[176,185,177,218,180,186,158,166,209,154],"times":[837,530,567,633,574,713,822],"next_num":7,"trial_type":"ticket-choose","trial_index":114,"time_elapsed":969439,"internal_node_id":"0.0-114.0"},{"result":185,"points":1,"place":4,"phase":1,"sequence":30,"prices":[169,196,170,184,187,211,171,201,202,185],"times":[2949,464,526,584,515,653,515,643,643,662],"next_num":10,"trial_type":"ticket-choose","trial_index":115,"time_elapsed":981324,"internal_node_id":"0.0-115.0"},{"result":155,"points":2,"place":1,"phase":1,"sequence":31,"prices":[201,207,155,158,156,165,167,135,178,177],"times":[649,542,982],"next_num":3,"trial_type":"ticket-choose","trial_index":116,"time_elapsed":985653,"internal_node_id":"0.0-116.0"},{"result":184,"points":1,"place":4,"phase":1,"sequence":32,"prices":[161,193,175,181,185,224,180,199,218,184],"times":[584,556,538,564,491,528,574,778,586,599],"next_num":10,"trial_type":"ticket-choose","trial_index":117,"time_elapsed":995204,"internal_node_id":"0.0-117.0"},{"result":165,"points":2,"place":1,"phase":1,"sequence":33,"prices":[188,200,165,172,198,174,177,154,177,180],"times":[597,492,771],"next_num":3,"trial_type":"ticket-choose","trial_index":118,"time_elapsed":999155,"internal_node_id":"0.0-118.0"},{"result":167,"points":2,"place":1,"phase":1,"sequence":34,"prices":[175,187,167,212,179,187,178,169,208,153],"times":[691,486,765],"next_num":3,"trial_type":"ticket-choose","trial_index":119,"time_elapsed":1003200,"internal_node_id":"0.0-119.0"},{"result":158,"points":2,"place":1,"phase":1,"sequence":35,"prices":[175,186,158,209,181,188,177,167,208,154],"times":[938,514,710],"next_num":3,"trial_type":"ticket-choose","trial_index":120,"time_elapsed":1007467,"internal_node_id":"0.0-120.0"},{"result":156,"points":3,"place":0,"phase":1,"sequence":36,"prices":[156,201,162,166,185,214,165,202,204,179],"times":[1232],"next_num":1,"trial_type":"ticket-choose","trial_index":121,"time_elapsed":1010557,"internal_node_id":"0.0-121.0"},{"result":148,"points":3,"place":0,"phase":1,"sequence":37,"prices":[148,171,150,163,167,220,162,186,187,165],"times":[775],"next_num":1,"trial_type":"ticket-choose","trial_index":122,"time_elapsed":1013116,"internal_node_id":"0.0-122.0"},{"result":167,"points":2,"place":1,"phase":1,"sequence":38,"prices":[212,192,188,184,167,193,189,164,176,170],"times":[992,770,998,593,915],"next_num":5,"trial_type":"ticket-choose","trial_index":123,"time_elapsed":1020347,"internal_node_id":"0.0-123.0"},{"result":158,"points":2,"place":1,"phase":1,"sequence":39,"prices":[175,186,177,209,181,188,158,167,208,154],"times":[8226,525,605,593,712,485,837],"next_num":7,"trial_type":"ticket-choose","trial_index":124,"time_elapsed":1035245,"internal_node_id":"0.0-124.0"},{"result":167,"points":2,"place":1,"phase":1,"sequence":40,"prices":[175,185,167,224,181,186,178,168,208,156],"times":[1357,571,912],"next_num":3,"trial_type":"ticket-choose","trial_index":125,"time_elapsed":1040218,"internal_node_id":"0.0-125.0"},{"result":168,"points":1,"place":2,"phase":1,"sequence":41,"prices":[168,154,172,185,195,144,184,211,177,227],"times":[3633],"next_num":1,"trial_type":"ticket-choose","trial_index":126,"time_elapsed":1045565,"internal_node_id":"0.0-126.0"},{"result":169,"points":2,"place":1,"phase":1,"sequence":42,"prices":[181,215,169,147,182,193,177,184,176,179],"times":[615,811,829],"next_num":3,"trial_type":"ticket-choose","trial_index":127,"time_elapsed":1049996,"internal_node_id":"0.0-127.0"},{"result":167,"points":2,"place":1,"phase":1,"sequence":43,"prices":[175,186,178,212,179,187,167,169,209,153],"times":[1428,484,484,535,613,612,1630],"next_num":7,"trial_type":"ticket-choose","trial_index":128,"time_elapsed":1058725,"internal_node_id":"0.0-128.0"},{"result":208,"points":0,"place":6,"phase":1,"sequence":44,"prices":[210,184,226,193,215,158,199,175,176,208],"times":[1867,615,536,593,534,653,1447,554,583,1111],"next_num":10,"trial_type":"ticket-choose","trial_index":129,"time_elapsed":1071459,"internal_node_id":"0.0-129.0"},{"result":158,"points":2,"place":1,"phase":1,"sequence":45,"prices":[175,186,177,221,180,187,158,166,209,153],"times":[674,506,535,682,616,554,791],"next_num":7,"trial_type":"ticket-choose","trial_index":130,"time_elapsed":1078752,"internal_node_id":"0.0-130.0"},{"result":155,"points":2,"place":1,"phase":1,"sequence":46,"prices":[181,155,148,161,168,187,172,199,176,194],"times":[965,839],"next_num":2,"trial_type":"ticket-choose","trial_index":131,"time_elapsed":1082456,"internal_node_id":"0.0-131.0"},{"result":163,"points":2,"place":1,"phase":1,"sequence":47,"prices":[175,187,176,209,180,188,163,165,154,208],"times":[954,509,595,524,603,536,779],"next_num":7,"trial_type":"ticket-choose","trial_index":132,"time_elapsed":1089929,"internal_node_id":"0.0-132.0"},{"result":186,"points":1,"place":4,"phase":1,"sequence":48,"prices":[168,192,171,178,188,217,172,195,197,186],"times":[850,474,513,435,505,594,544,782,544,714],"next_num":10,"trial_type":"ticket-choose","trial_index":133,"time_elapsed":1099577,"internal_node_id":"0.0-133.0"},{"result":163,"points":2,"place":1,"phase":1,"sequence":49,"prices":[174,186,176,217,181,187,163,166,153,209],"times":[1322,575,732,554,555,494,786],"next_num":7,"trial_type":"ticket-choose","trial_index":134,"time_elapsed":1107611,"internal_node_id":"0.0-134.0"},{"responses":[{"value":0,"offby":0,"category":"$106 - $134","category_index":0},{"value":4,"offby":3,"category":"$135 - $150","category_index":1},{"value":3,"offby":0,"category":"$151 - $165","category_index":2},{"value":0,"offby":-6,"category":"$166 - $180","category_index":3},{"value":5,"offby":-1,"category":"$181 - $195","category_index":4},{"value":5,"offby":2,"category":"$196 - $210","category_index":5},{"value":3,"offby":2,"category":"$211 - $225","category_index":6}],"phase":1,"number":1,"trial_type":"bar-choose","trial_index":135,"time_elapsed":1127653,"internal_node_id":"0.0-135.0"},{"special_comment":"no","trial_type":"special_sequence","trial_index":136,"time_elapsed":1131865,"internal_node_id":"0.0-136.0"},{"during":"Nothing","bonus":260,"trial_type":"final","trial_index":137,"time_elapsed":1148785,"internal_node_id":"0.0-137.0"}],"bonus":260}