{"start_time":"2017-01-26 10:46:58","end_time":"2017-01-26 11:14:11","points_phase0":101,"points_phase1":117,"phase_order":0,"age":39,"gender":"m","tries":1,"during":"Nothing","worker_id":"A1GXFMAC759VRM","assignment_id":"3P1L2B7AD2IR8VRDTE1LMA4YFTTOLL","data":[{"rt":14196,"url":"\/tickets\/utils\/consent.html","trial_type":"html","trial_index":0,"time_elapsed":14332,"internal_node_id":"0.0-0.0"},{"age":39,"gender":"m","trial_type":"age","trial_index":1,"time_elapsed":19393,"internal_node_id":"0.0-1.0"},{"worker_id":"A1GXFMAC759VRM","trial_type":"workerid","trial_index":2,"time_elapsed":26653,"internal_node_id":"0.0-2.0"},{"tries":1,"trial_type":"instructions_check","trial_index":3,"time_elapsed":72346,"internal_node_id":"0.0-3.0"},{"rt":12418,"url":"\/tickets\/utils\/start.html","trial_type":"html","trial_index":4,"time_elapsed":85898,"internal_node_id":"0.0-4.0"},{"trial_type":"number-animation","trial_index":5,"time_elapsed":114009,"internal_node_id":"0.0-5.0"},{"phase":0,"sequence":0,"avg":181,"response":170,"trial_type":"training_avg","trial_index":6,"time_elapsed":123724,"internal_node_id":"0.0-6.0"},{"trial_type":"number-animation","trial_index":7,"time_elapsed":143267,"internal_node_id":"0.0-7.0"},{"phase":0,"sequence":1,"avg":188,"response":190,"trial_type":"training_avg","trial_index":8,"time_elapsed":153438,"internal_node_id":"0.0-8.0"},{"trial_type":"number-animation","trial_index":9,"time_elapsed":167823,"internal_node_id":"0.0-9.0"},{"phase":0,"sequence":2,"avg":188,"response":187,"trial_type":"training_avg","trial_index":10,"time_elapsed":177234,"internal_node_id":"0.0-10.0"},{"trial_type":"number-animation","trial_index":11,"time_elapsed":193285,"internal_node_id":"0.0-11.0"},{"phase":0,"sequence":3,"avg":177,"response":170,"trial_type":"training_avg","trial_index":12,"time_elapsed":200738,"internal_node_id":"0.0-12.0"},{"trial_type":"number-animation","trial_index":13,"time_elapsed":214687,"internal_node_id":"0.0-13.0"},{"phase":0,"sequence":4,"avg":182,"response":173,"trial_type":"training_avg","trial_index":14,"time_elapsed":222891,"internal_node_id":"0.0-14.0"},{"responses":[{"value":0,"offby":0,"category":"$106 - $134","category_index":0},{"value":1,"offby":0,"category":"$135 - $150","category_index":1},{"value":2,"offby":-1,"category":"$151 - $165","category_index":2},{"value":9,"offby":3,"category":"$166 - $180","category_index":3},{"value":5,"offby":-1,"category":"$181 - $195","category_index":4},{"value":2,"offby":-1,"category":"$196 - $210","category_index":5},{"value":1,"offby":0,"category":"$211 - $225","category_index":6}],"phase":0,"number":0,"trial_type":"bar-choose","trial_index":15,"time_elapsed":305837,"internal_node_id":"0.0-15.0"},{"rt":14454,"url":"\/tickets\/\/utils\/testing.html","trial_type":"html","trial_index":16,"time_elapsed":321425,"internal_node_id":"0.0-16.0"},{"phase":0,"order":[29,45,3,13,21,1,26,22,48,7,35,44,24,17,41,2,25,5,10,49,37,39,4,19,42,40,31,47,0,23,36,28,18,34,9,8,14,12,30,38,11,16,6,15,32,20,27,43,33,46],"trial_type":"store_order","trial_index":17,"time_elapsed":322427,"internal_node_id":"0.0-17.0"},{"result":165,"points":2,"place":1,"phase":0,"sequence":-1,"times":[3776,4493,825,1873],"next_num":4,"trial_type":"ticket-choose","trial_index":18,"time_elapsed":336711,"internal_node_id":"0.0-18.0"},{"rt":135466,"url":"\/tickets\/utils\/testing_after.html","trial_type":"html","trial_index":19,"time_elapsed":473322,"internal_node_id":"0.0-19.0"},{"result":159,"points":3,"place":0,"phase":0,"sequence":0,"times":[6586],"next_num":1,"trial_type":"ticket-choose","trial_index":20,"time_elapsed":486489,"internal_node_id":"0.0-20.0"},{"result":167,"points":2,"place":1,"phase":0,"sequence":1,"times":[1158,507,676,1284,1142],"next_num":5,"trial_type":"ticket-choose","trial_index":21,"time_elapsed":495395,"internal_node_id":"0.0-21.0"},{"result":154,"points":2,"place":1,"phase":0,"sequence":2,"times":[970,476,1870],"next_num":3,"trial_type":"ticket-choose","trial_index":22,"time_elapsed":501585,"internal_node_id":"0.0-22.0"},{"result":154,"points":2,"place":1,"phase":0,"sequence":3,"times":[1293,689,850,476,539,552,1725],"next_num":7,"trial_type":"ticket-choose","trial_index":23,"time_elapsed":511444,"internal_node_id":"0.0-23.0"},{"result":179,"points":1,"place":4,"phase":0,"sequence":4,"times":[2988,403,452,573,514,853,485,667,524,2135],"next_num":11,"trial_type":"ticket-choose","trial_index":24,"time_elapsed":528140,"internal_node_id":"0.0-24.0"},{"result":165,"points":1,"place":2,"phase":0,"sequence":5,"times":[1688,494,517,500,469,530,1270],"next_num":7,"trial_type":"ticket-choose","trial_index":25,"time_elapsed":537255,"internal_node_id":"0.0-25.0"},{"result":157,"points":3,"place":0,"phase":0,"sequence":6,"times":[1447],"next_num":1,"trial_type":"ticket-choose","trial_index":26,"time_elapsed":541911,"internal_node_id":"0.0-26.0"},{"result":152,"points":3,"place":0,"phase":0,"sequence":7,"times":[1348],"next_num":1,"trial_type":"ticket-choose","trial_index":27,"time_elapsed":545436,"internal_node_id":"0.0-27.0"},{"result":181,"points":0,"place":5,"phase":0,"sequence":8,"times":[965],"next_num":1,"trial_type":"ticket-choose","trial_index":28,"time_elapsed":549141,"internal_node_id":"0.0-28.0"},{"result":173,"points":1,"place":3,"phase":0,"sequence":9,"times":[1353,474,1230,476,965,482,574,1614],"next_num":8,"trial_type":"ticket-choose","trial_index":29,"time_elapsed":559838,"internal_node_id":"0.0-29.0"},{"result":154,"points":2,"place":1,"phase":0,"sequence":10,"times":[1638,1185],"next_num":2,"trial_type":"ticket-choose","trial_index":30,"time_elapsed":565650,"internal_node_id":"0.0-30.0"},{"result":159,"points":1,"place":2,"phase":0,"sequence":11,"times":[751,1331],"next_num":2,"trial_type":"ticket-choose","trial_index":31,"time_elapsed":570458,"internal_node_id":"0.0-31.0"},{"result":202,"points":0,"place":8,"phase":0,"sequence":12,"times":[713,1307,474,581,533,582,563,780,1254],"next_num":9,"trial_type":"ticket-choose","trial_index":32,"time_elapsed":580938,"internal_node_id":"0.0-32.0"},{"result":150,"points":2,"place":1,"phase":0,"sequence":13,"times":[2260,3797,910,493,557,539,1623],"next_num":7,"trial_type":"ticket-choose","trial_index":33,"time_elapsed":594572,"internal_node_id":"0.0-33.0"},{"result":155,"points":2,"place":1,"phase":0,"sequence":14,"times":[514,430,1722],"next_num":3,"trial_type":"ticket-choose","trial_index":34,"time_elapsed":600182,"internal_node_id":"0.0-34.0"},{"result":153,"points":3,"place":0,"phase":0,"sequence":15,"times":[441,458,504,523,742,545,932,517,788,1035],"next_num":10,"trial_type":"ticket-choose","trial_index":35,"time_elapsed":611205,"internal_node_id":"0.0-35.0"},{"result":150,"points":3,"place":0,"phase":0,"sequence":16,"times":[1448],"next_num":1,"trial_type":"ticket-choose","trial_index":36,"time_elapsed":614690,"internal_node_id":"0.0-36.0"},{"result":150,"points":2,"place":1,"phase":0,"sequence":17,"times":[689,465,926],"next_num":3,"trial_type":"ticket-choose","trial_index":37,"time_elapsed":619130,"internal_node_id":"0.0-37.0"},{"result":161,"points":1,"place":3,"phase":0,"sequence":18,"times":[326,428,1296],"next_num":3,"trial_type":"ticket-choose","trial_index":38,"time_elapsed":623728,"internal_node_id":"0.0-38.0"},{"result":148,"points":3,"place":0,"phase":0,"sequence":19,"times":[608,436,494,451,1253,972],"next_num":6,"trial_type":"ticket-choose","trial_index":39,"time_elapsed":631101,"internal_node_id":"0.0-39.0"},{"result":169,"points":1,"place":3,"phase":0,"sequence":20,"times":[636,638,1316],"next_num":3,"trial_type":"ticket-choose","trial_index":40,"time_elapsed":636012,"internal_node_id":"0.0-40.0"},{"result":165,"points":3,"place":0,"phase":0,"sequence":21,"times":[1124,1474,501,567,1473],"next_num":5,"trial_type":"ticket-choose","trial_index":41,"time_elapsed":644146,"internal_node_id":"0.0-41.0"},{"result":140,"points":3,"place":0,"phase":0,"sequence":22,"times":[583,790,988,536,562,733,1612,782,571,1179],"next_num":10,"trial_type":"ticket-choose","trial_index":42,"time_elapsed":657339,"internal_node_id":"0.0-42.0"},{"result":217,"points":0,"place":8,"phase":0,"sequence":23,"times":[899,908,485,494,515,484,486,900,524,1583],"next_num":10,"trial_type":"ticket-choose","trial_index":43,"time_elapsed":670667,"internal_node_id":"0.0-43.0"},{"result":143,"points":3,"place":0,"phase":0,"sequence":24,"times":[853,582,468,500,1699],"next_num":5,"trial_type":"ticket-choose","trial_index":44,"time_elapsed":677759,"internal_node_id":"0.0-44.0"},{"result":150,"points":3,"place":0,"phase":0,"sequence":25,"times":[617,1021],"next_num":2,"trial_type":"ticket-choose","trial_index":45,"time_elapsed":681503,"internal_node_id":"0.0-45.0"},{"result":160,"points":2,"place":1,"phase":0,"sequence":26,"times":[1178,517,476,590,613,1068],"next_num":6,"trial_type":"ticket-choose","trial_index":46,"time_elapsed":688778,"internal_node_id":"0.0-46.0"},{"result":152,"points":3,"place":0,"phase":0,"sequence":27,"times":[619,581,534,1117],"next_num":4,"trial_type":"ticket-choose","trial_index":47,"time_elapsed":694109,"internal_node_id":"0.0-47.0"},{"result":158,"points":2,"place":1,"phase":0,"sequence":28,"times":[628,477,1923],"next_num":3,"trial_type":"ticket-choose","trial_index":48,"time_elapsed":699474,"internal_node_id":"0.0-48.0"},{"result":186,"points":1,"place":4,"phase":0,"sequence":29,"times":[733,429,603,453,555,478,612,557,739,888],"next_num":10,"trial_type":"ticket-choose","trial_index":49,"time_elapsed":709490,"internal_node_id":"0.0-49.0"},{"result":154,"points":3,"place":0,"phase":0,"sequence":30,"times":[719,852,1047,477,621,523,923,1645],"next_num":8,"trial_type":"ticket-choose","trial_index":50,"time_elapsed":719878,"internal_node_id":"0.0-50.0"},{"result":188,"points":1,"place":4,"phase":0,"sequence":31,"times":[935,951,1179,541,595,564,772,774,812,1200],"next_num":10,"trial_type":"ticket-choose","trial_index":51,"time_elapsed":732368,"internal_node_id":"0.0-51.0"},{"result":165,"points":2,"place":1,"phase":0,"sequence":32,"times":[808,524,468,491,605,836,1282],"next_num":7,"trial_type":"ticket-choose","trial_index":52,"time_elapsed":740720,"internal_node_id":"0.0-52.0"},{"result":155,"points":2,"place":1,"phase":0,"sequence":33,"times":[708,1303],"next_num":2,"trial_type":"ticket-choose","trial_index":53,"time_elapsed":745245,"internal_node_id":"0.0-53.0"},{"result":166,"points":2,"place":1,"phase":0,"sequence":34,"times":[829,629,2243],"next_num":3,"trial_type":"ticket-choose","trial_index":54,"time_elapsed":751652,"internal_node_id":"0.0-54.0"},{"result":167,"points":2,"place":1,"phase":0,"sequence":35,"times":[876,573,1265],"next_num":3,"trial_type":"ticket-choose","trial_index":55,"time_elapsed":756906,"internal_node_id":"0.0-55.0"},{"result":180,"points":1,"place":3,"phase":0,"sequence":36,"times":[1868,477,2472],"next_num":3,"trial_type":"ticket-choose","trial_index":56,"time_elapsed":764357,"internal_node_id":"0.0-56.0"},{"result":170,"points":2,"place":1,"phase":0,"sequence":37,"times":[616,570,766,547,566,598,1290],"next_num":7,"trial_type":"ticket-choose","trial_index":57,"time_elapsed":772637,"internal_node_id":"0.0-57.0"},{"result":174,"points":1,"place":3,"phase":0,"sequence":38,"times":[547,482,1679],"next_num":3,"trial_type":"ticket-choose","trial_index":58,"time_elapsed":777893,"internal_node_id":"0.0-58.0"},{"result":163,"points":3,"place":0,"phase":0,"sequence":39,"times":[1258,454,539,533,606,509,549,1423],"next_num":8,"trial_type":"ticket-choose","trial_index":59,"time_elapsed":787496,"internal_node_id":"0.0-59.0"},{"result":167,"points":2,"place":1,"phase":0,"sequence":40,"times":[540,574,580,547,814,814,1274],"next_num":7,"trial_type":"ticket-choose","trial_index":60,"time_elapsed":796071,"internal_node_id":"0.0-60.0"},{"result":162,"points":2,"place":1,"phase":0,"sequence":41,"times":[2627,501,1529,463,468,670,1455],"next_num":7,"trial_type":"ticket-choose","trial_index":61,"time_elapsed":806945,"internal_node_id":"0.0-61.0"},{"result":165,"points":2,"place":1,"phase":0,"sequence":42,"times":[577,653,1429],"next_num":3,"trial_type":"ticket-choose","trial_index":62,"time_elapsed":812501,"internal_node_id":"0.0-62.0"},{"result":166,"points":2,"place":1,"phase":0,"sequence":43,"times":[3634,2492,2373,443,667,2010,1844],"next_num":7,"trial_type":"ticket-choose","trial_index":63,"time_elapsed":829182,"internal_node_id":"0.0-63.0"},{"result":146,"points":3,"place":0,"phase":0,"sequence":44,"times":[6075,514,2324],"next_num":3,"trial_type":"ticket-choose","trial_index":64,"time_elapsed":840992,"internal_node_id":"0.0-64.0"},{"result":184,"points":1,"place":4,"phase":0,"sequence":45,"times":[655,405,572,587,494,525,558,821,476,1273],"next_num":10,"trial_type":"ticket-choose","trial_index":65,"time_elapsed":851349,"internal_node_id":"0.0-65.0"},{"result":148,"points":3,"place":0,"phase":0,"sequence":46,"times":[2359],"next_num":1,"trial_type":"ticket-choose","trial_index":66,"time_elapsed":855629,"internal_node_id":"0.0-66.0"},{"result":157,"points":3,"place":0,"phase":0,"sequence":47,"times":[595,1091,1326],"next_num":3,"trial_type":"ticket-choose","trial_index":67,"time_elapsed":860837,"internal_node_id":"0.0-67.0"},{"result":155,"points":3,"place":0,"phase":0,"sequence":48,"times":[1018,1383],"next_num":2,"trial_type":"ticket-choose","trial_index":68,"time_elapsed":865812,"internal_node_id":"0.0-68.0"},{"result":158,"points":3,"place":0,"phase":0,"sequence":49,"times":[1819,571,460,629,668,1050],"next_num":6,"trial_type":"ticket-choose","trial_index":69,"time_elapsed":874163,"internal_node_id":"0.0-69.0"},{"responses":[{"value":0,"offby":0,"category":"$106 - $134","category_index":0},{"value":2,"offby":1,"category":"$135 - $150","category_index":1},{"value":3,"offby":0,"category":"$151 - $165","category_index":2},{"value":3,"offby":-3,"category":"$166 - $180","category_index":3},{"value":4,"offby":-2,"category":"$181 - $195","category_index":4},{"value":4,"offby":1,"category":"$196 - $210","category_index":5},{"value":4,"offby":3,"category":"$211 - $225","category_index":6}],"phase":0,"number":1,"trial_type":"bar-choose","trial_index":70,"time_elapsed":933071,"internal_node_id":"0.0-70.0"},{"rt":52413,"url":"\/tickets\/utils\/start2.html","trial_type":"html","trial_index":71,"time_elapsed":986616,"internal_node_id":"0.0-71.0"},{"trial_type":"number-animation","trial_index":72,"time_elapsed":1004758,"internal_node_id":"0.0-72.0"},{"phase":1,"sequence":0,"avg":184,"response":175,"trial_type":"training_avg","trial_index":73,"time_elapsed":1013141,"internal_node_id":"0.0-73.0"},{"trial_type":"number-animation","trial_index":74,"time_elapsed":1023486,"internal_node_id":"0.0-74.0"},{"phase":1,"sequence":1,"avg":199,"response":180,"trial_type":"training_avg","trial_index":75,"time_elapsed":1031093,"internal_node_id":"0.0-75.0"},{"trial_type":"number-animation","trial_index":76,"time_elapsed":1040686,"internal_node_id":"0.0-76.0"},{"phase":1,"sequence":2,"avg":199,"response":191,"trial_type":"training_avg","trial_index":77,"time_elapsed":1049643,"internal_node_id":"0.0-77.0"},{"trial_type":"number-animation","trial_index":78,"time_elapsed":1060031,"internal_node_id":"0.0-78.0"},{"phase":1,"sequence":3,"avg":210,"response":230,"trial_type":"training_avg","trial_index":79,"time_elapsed":1069318,"internal_node_id":"0.0-79.0"},{"trial_type":"number-animation","trial_index":80,"time_elapsed":1080799,"internal_node_id":"0.0-80.0"},{"phase":1,"sequence":4,"avg":202,"response":230,"trial_type":"training_avg","trial_index":81,"time_elapsed":1089161,"internal_node_id":"0.0-81.0"},{"responses":[{"value":0,"offby":-1,"category":"$105 - $130","category_index":0},{"value":0,"offby":-2,"category":"$131 - $155","category_index":1},{"value":3,"offby":1,"category":"$156 - $180","category_index":2},{"value":5,"offby":0,"category":"$181 - $205","category_index":3},{"value":6,"offby":1,"category":"$206 - $230","category_index":4},{"value":4,"offby":1,"category":"$231 - $255","category_index":5},{"value":2,"offby":0,"category":"$256 - $280","category_index":6}],"phase":1,"number":0,"trial_type":"bar-choose","trial_index":82,"time_elapsed":1117884,"internal_node_id":"0.0-82.0"},{"rt":33077,"url":"\/tickets\/utils\/testing2.html","trial_type":"html","trial_index":83,"time_elapsed":1152144,"internal_node_id":"0.0-83.0"},{"phase":1,"order":[31,46,29,2,32,37,19,38,30,3,44,7,25,45,12,23,10,20,42,8,4,41,36,16,34,5,11,13,40,17,21,27,22,6,49,43,1,28,24,18,39,48,35,33,47,26,14,9,0,15],"trial_type":"store_order","trial_index":84,"time_elapsed":1153148,"internal_node_id":"0.0-84.0"},{"result":165,"points":1,"place":2,"phase":1,"sequence":0,"times":[1900],"next_num":1,"trial_type":"ticket-choose","trial_index":85,"time_elapsed":1157572,"internal_node_id":"0.0-85.0"},{"result":156,"points":3,"place":0,"phase":1,"sequence":1,"times":[1172,600,500,893,477,1540],"next_num":6,"trial_type":"ticket-choose","trial_index":86,"time_elapsed":1166542,"internal_node_id":"0.0-86.0"},{"result":158,"points":3,"place":0,"phase":1,"sequence":2,"times":[1320],"next_num":1,"trial_type":"ticket-choose","trial_index":87,"time_elapsed":1169884,"internal_node_id":"0.0-87.0"},{"result":201,"points":1,"place":2,"phase":1,"sequence":3,"times":[545,447,1100,446,518,475,1495],"next_num":7,"trial_type":"ticket-choose","trial_index":88,"time_elapsed":1178165,"internal_node_id":"0.0-88.0"},{"result":133,"points":3,"place":0,"phase":1,"sequence":4,"times":[967,1012,1391],"next_num":3,"trial_type":"ticket-choose","trial_index":89,"time_elapsed":1183777,"internal_node_id":"0.0-89.0"},{"result":167,"points":2,"place":1,"phase":1,"sequence":5,"times":[498,930,798,1489],"next_num":4,"trial_type":"ticket-choose","trial_index":90,"time_elapsed":1190550,"internal_node_id":"0.0-90.0"},{"result":191,"points":2,"place":1,"phase":1,"sequence":6,"times":[2321,972,499,455,481,485,1749],"next_num":7,"trial_type":"ticket-choose","trial_index":91,"time_elapsed":1200669,"internal_node_id":"0.0-91.0"},{"result":167,"points":3,"place":0,"phase":1,"sequence":7,"times":[1082,435,421,467,466,439,449,1470],"next_num":8,"trial_type":"ticket-choose","trial_index":92,"time_elapsed":1209176,"internal_node_id":"0.0-92.0"},{"result":116,"points":3,"place":0,"phase":1,"sequence":8,"times":[518,429,1590,409,404,1381],"next_num":6,"trial_type":"ticket-choose","trial_index":93,"time_elapsed":1217663,"internal_node_id":"0.0-93.0"},{"result":148,"points":2,"place":1,"phase":1,"sequence":9,"times":[791,435,1271],"next_num":3,"trial_type":"ticket-choose","trial_index":94,"time_elapsed":1222678,"internal_node_id":"0.0-94.0"},{"result":158,"points":1,"place":2,"phase":1,"sequence":10,"times":[531,1552],"next_num":2,"trial_type":"ticket-choose","trial_index":95,"time_elapsed":1226808,"internal_node_id":"0.0-95.0"},{"result":150,"points":3,"place":0,"phase":1,"sequence":11,"times":[571,393,709,422,443,412,653,524,564,1069],"next_num":10,"trial_type":"ticket-choose","trial_index":96,"time_elapsed":1236339,"internal_node_id":"0.0-96.0"},{"result":141,"points":3,"place":0,"phase":1,"sequence":12,"times":[1642],"next_num":1,"trial_type":"ticket-choose","trial_index":97,"time_elapsed":1239944,"internal_node_id":"0.0-97.0"},{"result":169,"points":3,"place":0,"phase":1,"sequence":13,"times":[493,405,452,404,797,437,417,1273],"next_num":8,"trial_type":"ticket-choose","trial_index":98,"time_elapsed":1247923,"internal_node_id":"0.0-98.0"},{"result":136,"points":3,"place":0,"phase":1,"sequence":14,"times":[444,426,917,389,420,453,1011,1148,1418],"next_num":9,"trial_type":"ticket-choose","trial_index":99,"time_elapsed":1258604,"internal_node_id":"0.0-99.0"},{"result":212,"points":1,"place":4,"phase":1,"sequence":15,"times":[393,442,421,595,445,452,643,454,509,1303],"next_num":10,"trial_type":"ticket-choose","trial_index":100,"time_elapsed":1268217,"internal_node_id":"0.0-100.0"},{"result":157,"points":2,"place":1,"phase":1,"sequence":16,"times":[663,472,1152,341,479,581,1258],"next_num":7,"trial_type":"ticket-choose","trial_index":101,"time_elapsed":1276281,"internal_node_id":"0.0-101.0"},{"result":208,"points":1,"place":4,"phase":1,"sequence":17,"times":[1186,438,589,445,462,450,638,431,530,977],"next_num":10,"trial_type":"ticket-choose","trial_index":102,"time_elapsed":1286203,"internal_node_id":"0.0-102.0"},{"result":126,"points":3,"place":0,"phase":1,"sequence":18,"times":[408,494,466,454,1251],"next_num":5,"trial_type":"ticket-choose","trial_index":103,"time_elapsed":1293077,"internal_node_id":"0.0-103.0"},{"result":134,"points":3,"place":0,"phase":1,"sequence":19,"times":[608,410,453,437,461,479,820,796,615,1176],"next_num":10,"trial_type":"ticket-choose","trial_index":104,"time_elapsed":1303018,"internal_node_id":"0.0-104.0"},{"result":142,"points":3,"place":0,"phase":1,"sequence":20,"times":[515,446,588,460,542,458,982,732,461,1027],"next_num":10,"trial_type":"ticket-choose","trial_index":105,"time_elapsed":1313791,"internal_node_id":"0.0-105.0"},{"result":151,"points":2,"place":1,"phase":1,"sequence":21,"times":[389,390,1250],"next_num":3,"trial_type":"ticket-choose","trial_index":106,"time_elapsed":1318051,"internal_node_id":"0.0-106.0"},{"result":148,"points":3,"place":0,"phase":1,"sequence":22,"times":[516,445,780,860,443,815,562,1223],"next_num":8,"trial_type":"ticket-choose","trial_index":107,"time_elapsed":1326929,"internal_node_id":"0.0-107.0"},{"result":165,"points":2,"place":1,"phase":1,"sequence":23,"times":[586,492,597,435,587,454,1752],"next_num":7,"trial_type":"ticket-choose","trial_index":108,"time_elapsed":1335510,"internal_node_id":"0.0-108.0"},{"result":150,"points":2,"place":1,"phase":1,"sequence":24,"times":[477,1459],"next_num":2,"trial_type":"ticket-choose","trial_index":109,"time_elapsed":1339496,"internal_node_id":"0.0-109.0"},{"result":165,"points":1,"place":2,"phase":1,"sequence":25,"times":[579,1028,398,1100,493,494,957],"next_num":7,"trial_type":"ticket-choose","trial_index":110,"time_elapsed":1347803,"internal_node_id":"0.0-110.0"},{"result":139,"points":3,"place":0,"phase":1,"sequence":26,"times":[680,656,765,491,559,514,567,989,1429],"next_num":9,"trial_type":"ticket-choose","trial_index":111,"time_elapsed":1358083,"internal_node_id":"0.0-111.0"},{"result":167,"points":1,"place":3,"phase":1,"sequence":27,"times":[1500,483,1421],"next_num":3,"trial_type":"ticket-choose","trial_index":112,"time_elapsed":1363754,"internal_node_id":"0.0-112.0"},{"result":140,"points":3,"place":0,"phase":1,"sequence":28,"times":[747,1228],"next_num":2,"trial_type":"ticket-choose","trial_index":113,"time_elapsed":1368483,"internal_node_id":"0.0-113.0"},{"result":140,"points":2,"place":1,"phase":1,"sequence":29,"times":[1770,531,795,485,653,443,1219],"next_num":7,"trial_type":"ticket-choose","trial_index":114,"time_elapsed":1377705,"internal_node_id":"0.0-114.0"},{"result":153,"points":3,"place":0,"phase":1,"sequence":30,"times":[1840],"next_num":1,"trial_type":"ticket-choose","trial_index":115,"time_elapsed":1381487,"internal_node_id":"0.0-115.0"},{"result":137,"points":3,"place":0,"phase":1,"sequence":31,"times":[1305],"next_num":1,"trial_type":"ticket-choose","trial_index":116,"time_elapsed":1384711,"internal_node_id":"0.0-116.0"},{"result":145,"points":3,"place":0,"phase":1,"sequence":32,"times":[1453],"next_num":1,"trial_type":"ticket-choose","trial_index":117,"time_elapsed":1387907,"internal_node_id":"0.0-117.0"},{"result":150,"points":3,"place":0,"phase":1,"sequence":33,"times":[616,542,828,670,557,765,754,510,725,1047],"next_num":10,"trial_type":"ticket-choose","trial_index":118,"time_elapsed":1398772,"internal_node_id":"0.0-118.0"},{"result":166,"points":1,"place":2,"phase":1,"sequence":34,"times":[499,1644],"next_num":2,"trial_type":"ticket-choose","trial_index":119,"time_elapsed":1403100,"internal_node_id":"0.0-119.0"},{"result":155,"points":3,"place":0,"phase":1,"sequence":35,"times":[774,435,1434],"next_num":3,"trial_type":"ticket-choose","trial_index":120,"time_elapsed":1407927,"internal_node_id":"0.0-120.0"},{"result":148,"points":3,"place":0,"phase":1,"sequence":36,"times":[690,485,1732,470,435,476,693,988,479,933],"next_num":10,"trial_type":"ticket-choose","trial_index":121,"time_elapsed":1419075,"internal_node_id":"0.0-121.0"},{"result":163,"points":3,"place":0,"phase":1,"sequence":37,"times":[2242],"next_num":1,"trial_type":"ticket-choose","trial_index":122,"time_elapsed":1423271,"internal_node_id":"0.0-122.0"},{"result":210,"points":1,"place":4,"phase":1,"sequence":38,"times":[834,485,580,556,534,517,749,597,476,1227],"next_num":10,"trial_type":"ticket-choose","trial_index":123,"time_elapsed":1433630,"internal_node_id":"0.0-123.0"},{"result":170,"points":2,"place":1,"phase":1,"sequence":39,"times":[823,430,484,476,470,511,1369],"next_num":7,"trial_type":"ticket-choose","trial_index":124,"time_elapsed":1441671,"internal_node_id":"0.0-124.0"},{"result":183,"points":1,"place":3,"phase":1,"sequence":40,"times":[489,916,470,573,1571,531,504,539,480,1124],"next_num":10,"trial_type":"ticket-choose","trial_index":125,"time_elapsed":1452983,"internal_node_id":"0.0-125.0"},{"result":135,"points":3,"place":0,"phase":1,"sequence":41,"times":[954,629,1169,1883],"next_num":4,"trial_type":"ticket-choose","trial_index":126,"time_elapsed":1460513,"internal_node_id":"0.0-126.0"},{"result":149,"points":2,"place":1,"phase":1,"sequence":42,"times":[912,1053],"next_num":2,"trial_type":"ticket-choose","trial_index":127,"time_elapsed":1464649,"internal_node_id":"0.0-127.0"},{"result":151,"points":3,"place":0,"phase":1,"sequence":43,"times":[501,1048],"next_num":2,"trial_type":"ticket-choose","trial_index":128,"time_elapsed":1468374,"internal_node_id":"0.0-128.0"},{"result":144,"points":3,"place":0,"phase":1,"sequence":44,"times":[511,485,446,1067],"next_num":4,"trial_type":"ticket-choose","trial_index":129,"time_elapsed":1473410,"internal_node_id":"0.0-129.0"},{"result":154,"points":3,"place":0,"phase":1,"sequence":45,"times":[1609],"next_num":1,"trial_type":"ticket-choose","trial_index":130,"time_elapsed":1476945,"internal_node_id":"0.0-130.0"},{"result":182,"points":2,"place":1,"phase":1,"sequence":46,"times":[538,469,520,523,662,460,1419],"next_num":7,"trial_type":"ticket-choose","trial_index":131,"time_elapsed":1484791,"internal_node_id":"0.0-131.0"},{"result":170,"points":3,"place":0,"phase":1,"sequence":47,"times":[1045,443,1054,453,512,498,1420,907,484,2081],"next_num":10,"trial_type":"ticket-choose","trial_index":132,"time_elapsed":1497697,"internal_node_id":"0.0-132.0"},{"result":157,"points":2,"place":1,"phase":1,"sequence":48,"times":[896,487,1225],"next_num":3,"trial_type":"ticket-choose","trial_index":133,"time_elapsed":1502524,"internal_node_id":"0.0-133.0"},{"result":173,"points":2,"place":1,"phase":1,"sequence":49,"times":[838,436,749,452,931,478,1322],"next_num":7,"trial_type":"ticket-choose","trial_index":134,"time_elapsed":1510823,"internal_node_id":"0.0-134.0"},{"responses":[{"value":0,"offby":-1,"category":"$105 - $130","category_index":0},{"value":1,"offby":-1,"category":"$131 - $155","category_index":1},{"value":3,"offby":1,"category":"$156 - $180","category_index":2},{"value":4,"offby":-1,"category":"$181 - $205","category_index":3},{"value":6,"offby":1,"category":"$206 - $230","category_index":4},{"value":5,"offby":2,"category":"$231 - $255","category_index":5},{"value":1,"offby":-1,"category":"$256 - $280","category_index":6}],"phase":1,"number":1,"trial_type":"bar-choose","trial_index":135,"time_elapsed":1571988,"internal_node_id":"0.0-135.0"},{"during":"Nothing","bonus":292,"trial_type":"final","trial_index":136,"time_elapsed":1630203,"internal_node_id":"0.0-136.0"}],"bonus":292}