{"start_time":"2017-02-22 09:58:40","end_time":"2017-02-22 10:33:40","points_phase0":115,"points_phase1":124,"phase_order":1,"age":41,"gender":"m","tries":1,"during":"Nothing","worker_id":"A1HBU82366WX00","assignment_id":"3QAPZX2QN5604SDMHNH5HD97EV920K","data":[{"rt":53922,"url":"\/tickets\/utils\/consent.html","trial_type":"html","trial_index":0,"time_elapsed":54492,"internal_node_id":"0.0-0.0"},{"age":41,"gender":"m","trial_type":"age","trial_index":1,"time_elapsed":62808,"internal_node_id":"0.0-1.0"},{"worker_id":"A1HBU82366WX00","trial_type":"workerid","trial_index":2,"time_elapsed":79567,"internal_node_id":"0.0-2.0"},{"tries":1,"trial_type":"instructions_check","trial_index":3,"time_elapsed":124356,"internal_node_id":"0.0-3.0"},{"rt":31329,"url":"\/tickets\/utils\/start.html","trial_type":"html","trial_index":4,"time_elapsed":157287,"internal_node_id":"0.0-4.0"},{"trial_type":"number-animation","trial_index":5,"time_elapsed":202793,"internal_node_id":"0.0-5.0"},{"phase":0,"sequence":0,"avg":182,"response":170,"trial_type":"training_avg","trial_index":6,"time_elapsed":238094,"internal_node_id":"0.0-6.0"},{"trial_type":"number-animation","trial_index":7,"time_elapsed":259328,"internal_node_id":"0.0-7.0"},{"phase":0,"sequence":1,"avg":188,"response":185,"trial_type":"training_avg","trial_index":8,"time_elapsed":285630,"internal_node_id":"0.0-8.0"},{"trial_type":"number-animation","trial_index":9,"time_elapsed":300576,"internal_node_id":"0.0-9.0"},{"phase":0,"sequence":2,"avg":176,"response":152,"trial_type":"training_avg","trial_index":10,"time_elapsed":310210,"internal_node_id":"0.0-10.0"},{"trial_type":"number-animation","trial_index":11,"time_elapsed":326713,"internal_node_id":"0.0-11.0"},{"phase":0,"sequence":3,"avg":180,"response":173,"trial_type":"training_avg","trial_index":12,"time_elapsed":347671,"internal_node_id":"0.0-12.0"},{"trial_type":"number-animation","trial_index":13,"time_elapsed":364457,"internal_node_id":"0.0-13.0"},{"phase":0,"sequence":4,"avg":174,"response":171,"trial_type":"training_avg","trial_index":14,"time_elapsed":372945,"internal_node_id":"0.0-14.0"},{"responses":[{"value":0,"offby":-1,"category":"$90 - $120","category_index":0},{"value":2,"offby":-1,"category":"$121 - $145","category_index":1},{"value":4,"offby":1,"category":"$146 - $170","category_index":2},{"value":9,"offby":3,"category":"$171 - $195","category_index":3},{"value":3,"offby":-1,"category":"$196 - $220","category_index":4},{"value":2,"offby":0,"category":"$221 - $245","category_index":5},{"value":0,"offby":-1,"category":"$246 - $270","category_index":6}],"phase":0,"number":0,"trial_type":"bar-choose","trial_index":15,"time_elapsed":508473,"internal_node_id":"0.0-15.0"},{"rt":28059,"url":"\/tickets\/\/utils\/testing.html","trial_type":"html","trial_index":16,"time_elapsed":538119,"internal_node_id":"0.0-16.0"},{"phase":0,"order":[35,6,25,12,23,22,21,48,2,11,8,44,0,41,27,19,3,20,45,37,36,31,5,16,26,49,42,46,34,43,10,17,32,30,38,7,24,15,29,14,33,28,13,1,40,39,9,18,4,47],"trial_type":"store_order","trial_index":17,"time_elapsed":539133,"internal_node_id":"0.0-17.0"},{"result":126,"points":3,"place":0,"phase":0,"sequence":-1,"prices":[184,180,224,165,181,199,185,193,218,126],"times":[4304,1762,1402,3887,1253,1208,1310,1184,1152,3012],"next_num":10,"trial_type":"ticket-choose","trial_index":18,"time_elapsed":566420,"internal_node_id":"0.0-18.0"},{"rt":34901,"url":"\/tickets\/utils\/testing_after.html","trial_type":"html","trial_index":19,"time_elapsed":602929,"internal_node_id":"0.0-19.0"},{"result":189,"points":1,"place":4,"phase":0,"sequence":0,"prices":[157,213,159,187,194,242,161,222,225,189],"times":[5666,3629,2508,1332,888,1099,2313,856,834,3474],"next_num":10,"trial_type":"ticket-choose","trial_index":20,"time_elapsed":631649,"internal_node_id":"0.0-20.0"},{"result":192,"points":1,"place":4,"phase":0,"sequence":1,"prices":[157,205,161,175,197,254,165,210,214,192],"times":[4512,912,1761,789,810,843,2983,810,632,1221],"next_num":10,"trial_type":"ticket-choose","trial_index":21,"time_elapsed":657943,"internal_node_id":"0.0-21.0"},{"result":146,"points":2,"place":1,"phase":0,"sequence":2,"prices":[171,191,172,268,179,194,146,150,127,239],"times":[1544,1635,851,724,842,761,1862],"next_num":7,"trial_type":"ticket-choose","trial_index":22,"time_elapsed":670509,"internal_node_id":"0.0-22.0"},{"result":154,"points":2,"place":1,"phase":0,"sequence":3,"prices":[170,190,176,251,183,192,154,157,236,131],"times":[1552,732,780,769,911,950,1301],"next_num":7,"trial_type":"ticket-choose","trial_index":23,"time_elapsed":682060,"internal_node_id":"0.0-23.0"},{"result":136,"points":2,"place":1,"phase":0,"sequence":4,"prices":[170,192,174,242,181,196,136,153,236,128],"times":[1469,717,775,965,794,802,1347],"next_num":7,"trial_type":"ticket-choose","trial_index":24,"time_elapsed":694761,"internal_node_id":"0.0-24.0"},{"result":146,"points":2,"place":1,"phase":0,"sequence":5,"prices":[169,193,146,237,180,196,172,150,129,236],"times":[1991,726,1501],"next_num":3,"trial_type":"ticket-choose","trial_index":25,"time_elapsed":702867,"internal_node_id":"0.0-25.0"},{"result":131,"points":2,"place":1,"phase":0,"sequence":6,"prices":[221,234,131,136,132,149,154,90,176,173],"times":[1495,779,1378],"next_num":3,"trial_type":"ticket-choose","trial_index":26,"time_elapsed":712593,"internal_node_id":"0.0-26.0"},{"result":136,"points":2,"place":1,"phase":0,"sequence":7,"prices":[173,194,136,239,182,200,174,150,236,127],"times":[1264,695,1356],"next_num":3,"trial_type":"ticket-choose","trial_index":27,"time_elapsed":719762,"internal_node_id":"0.0-27.0"},{"result":146,"points":2,"place":1,"phase":0,"sequence":8,"prices":[171,195,172,242,179,196,146,150,128,235],"times":[1401,654,685,832,1060,794,1831],"next_num":7,"trial_type":"ticket-choose","trial_index":28,"time_elapsed":731584,"internal_node_id":"0.0-28.0"},{"result":114,"points":3,"place":0,"phase":0,"sequence":9,"prices":[182,249,159,114,184,205,175,189,172,178],"times":[1362,819,935,1292],"next_num":4,"trial_type":"ticket-choose","trial_index":29,"time_elapsed":740398,"internal_node_id":"0.0-29.0"},{"result":136,"points":2,"place":1,"phase":0,"sequence":10,"prices":[171,192,136,243,182,195,174,154,236,128],"times":[1918,641,1166],"next_num":3,"trial_type":"ticket-choose","trial_index":30,"time_elapsed":748302,"internal_node_id":"0.0-30.0"},{"result":133,"points":3,"place":0,"phase":0,"sequence":11,"prices":[168,192,154,237,182,196,176,156,235,133],"times":[1141,647,763,819,780,783,781,1075,801,1091],"next_num":10,"trial_type":"ticket-choose","trial_index":31,"time_elapsed":762281,"internal_node_id":"0.0-31.0"},{"result":126,"points":3,"place":0,"phase":0,"sequence":12,"prices":[172,191,176,272,179,194,146,152,126,235],"times":[1499,669,755,850,1127,693,1755,1021,1238],"next_num":9,"trial_type":"ticket-choose","trial_index":32,"time_elapsed":777414,"internal_node_id":"0.0-32.0"},{"result":124,"points":3,"place":0,"phase":0,"sequence":13,"prices":[124,220,136,165,185,234,143,225,228,179],"times":[2488],"next_num":1,"trial_type":"ticket-choose","trial_index":33,"time_elapsed":782554,"internal_node_id":"0.0-33.0"},{"result":118,"points":2,"place":1,"phase":0,"sequence":14,"prices":[181,138,118,170,190,101,146,169,175,233],"times":[1454,751,1242],"next_num":3,"trial_type":"ticket-choose","trial_index":34,"time_elapsed":789150,"internal_node_id":"0.0-34.0"},{"result":124,"points":3,"place":0,"phase":0,"sequence":15,"prices":[216,206,158,145,224,185,124,149,175,162],"times":[1257,755,847,1013,917,849,1208],"next_num":7,"trial_type":"ticket-choose","trial_index":35,"time_elapsed":800690,"internal_node_id":"0.0-35.0"},{"result":126,"points":3,"place":0,"phase":0,"sequence":16,"prices":[173,191,146,242,178,194,172,152,126,235],"times":[2262,872,1286,818,1083,773,740,974,1233],"next_num":9,"trial_type":"ticket-choose","trial_index":36,"time_elapsed":816602,"internal_node_id":"0.0-36.0"},{"result":121,"points":3,"place":0,"phase":0,"sequence":17,"prices":[121,191,128,141,166,217,129,196,202,157],"times":[1495],"next_num":1,"trial_type":"ticket-choose","trial_index":37,"time_elapsed":821024,"internal_node_id":"0.0-37.0"},{"result":196,"points":1,"place":4,"phase":0,"sequence":18,"prices":[143,206,153,194,201,267,168,208,210,196],"times":[1857,741,889,661,702,633,894,812,794,2257],"next_num":10,"trial_type":"ticket-choose","trial_index":38,"time_elapsed":836204,"internal_node_id":"0.0-38.0"},{"result":125,"points":3,"place":0,"phase":0,"sequence":19,"prices":[168,191,172,240,183,193,146,151,125,238],"times":[1514,755,1090,755,883,794,2414,755,1160],"next_num":9,"trial_type":"ticket-choose","trial_index":39,"time_elapsed":850689,"internal_node_id":"0.0-39.0"},{"result":117,"points":3,"place":0,"phase":0,"sequence":20,"prices":[117,161,120,147,153,259,144,191,195,149],"times":[1678],"next_num":1,"trial_type":"ticket-choose","trial_index":40,"time_elapsed":854770,"internal_node_id":"0.0-40.0"},{"result":159,"points":1,"place":2,"phase":0,"sequence":21,"prices":[244,203,196,189,154,206,197,149,171,159],"times":[3956,894,707,669,1014,810,832,1393,748,1199],"next_num":10,"trial_type":"ticket-choose","trial_index":41,"time_elapsed":872083,"internal_node_id":"0.0-41.0"},{"result":125,"points":3,"place":0,"phase":0,"sequence":22,"prices":[169,192,176,244,178,194,154,159,237,125],"times":[1449,747,653,895,747,1122,1145,1029,793,1183],"next_num":10,"trial_type":"ticket-choose","trial_index":42,"time_elapsed":886515,"internal_node_id":"0.0-42.0"},{"result":105,"points":3,"place":0,"phase":0,"sequence":23,"prices":[263,165,224,214,105,230,215,185,177,193],"times":[2310,1641,727,585,1340],"next_num":5,"trial_type":"ticket-choose","trial_index":43,"time_elapsed":896657,"internal_node_id":"0.0-43.0"},{"result":135,"points":3,"place":0,"phase":0,"sequence":24,"prices":[221,193,135,188,217,179,196,190,175,159],"times":[1448,662,1408],"next_num":3,"trial_type":"ticket-choose","trial_index":44,"time_elapsed":903495,"internal_node_id":"0.0-44.0"},{"result":128,"points":3,"place":0,"phase":0,"sequence":25,"prices":[196,221,149,164,216,167,175,128,176,181],"times":[1473,686,936,679,670,692,773,1155],"next_num":8,"trial_type":"ticket-choose","trial_index":45,"time_elapsed":914827,"internal_node_id":"0.0-45.0"},{"result":126,"points":3,"place":0,"phase":0,"sequence":26,"prices":[170,193,146,268,178,195,172,149,126,241],"times":[1404,600,760,703,790,705,733,1104,1067],"next_num":9,"trial_type":"ticket-choose","trial_index":46,"time_elapsed":926798,"internal_node_id":"0.0-46.0"},{"result":132,"points":3,"place":0,"phase":0,"sequence":27,"prices":[168,192,176,242,183,197,154,156,237,132],"times":[2666,625,560,600,630,640,831,733,903,1041],"next_num":10,"trial_type":"ticket-choose","trial_index":47,"time_elapsed":940826,"internal_node_id":"0.0-47.0"},{"result":124,"points":3,"place":0,"phase":0,"sequence":28,"prices":[219,183,227,124,176,161,140,129,171,201],"times":[3685,608,749,1310],"next_num":4,"trial_type":"ticket-choose","trial_index":48,"time_elapsed":950108,"internal_node_id":"0.0-48.0"},{"result":119,"points":3,"place":0,"phase":0,"sequence":29,"prices":[198,119,169,141,195,233,136,208,177,217],"times":[1452,1192],"next_num":2,"trial_type":"ticket-choose","trial_index":49,"time_elapsed":955254,"internal_node_id":"0.0-49.0"},{"result":136,"points":2,"place":1,"phase":0,"sequence":30,"prices":[172,190,136,270,179,192,174,152,237,129],"times":[1211,925,1840],"next_num":3,"trial_type":"ticket-choose","trial_index":50,"time_elapsed":961928,"internal_node_id":"0.0-50.0"},{"result":160,"points":1,"place":4,"phase":0,"sequence":31,"prices":[137,187,152,156,166,231,155,194,202,160],"times":[1584,662,622,731,702,669,739,646,755,1098],"next_num":10,"trial_type":"ticket-choose","trial_index":51,"time_elapsed":974668,"internal_node_id":"0.0-51.0"},{"result":136,"points":3,"place":0,"phase":0,"sequence":32,"prices":[240,188,273,207,250,136,217,170,171,236],"times":[1217,638,679,734,1183,1247],"next_num":6,"trial_type":"ticket-choose","trial_index":52,"time_elapsed":983608,"internal_node_id":"0.0-52.0"},{"result":162,"points":1,"place":3,"phase":0,"sequence":33,"prices":[197,153,181,215,150,155,164,247,177,162],"times":[1603,779,701,850,1307,725,781,694,608,989],"next_num":10,"trial_type":"ticket-choose","trial_index":53,"time_elapsed":997150,"internal_node_id":"0.0-53.0"},{"result":136,"points":2,"place":1,"phase":0,"sequence":34,"prices":[169,192,174,246,180,195,136,152,238,126],"times":[1126,889,787,699,688,858,1128],"next_num":7,"trial_type":"ticket-choose","trial_index":54,"time_elapsed":1007042,"internal_node_id":"0.0-54.0"},{"result":127,"points":3,"place":0,"phase":0,"sequence":35,"prices":[169,194,154,271,178,201,176,158,236,127],"times":[1558,576,965,771,621,646,678,1051,600,941],"next_num":10,"trial_type":"ticket-choose","trial_index":55,"time_elapsed":1019665,"internal_node_id":"0.0-55.0"},{"result":136,"points":2,"place":1,"phase":0,"sequence":36,"prices":[173,191,174,270,180,193,136,153,239,129],"times":[1250,608,593,623,624,723,1061],"next_num":7,"trial_type":"ticket-choose","trial_index":56,"time_elapsed":1028863,"internal_node_id":"0.0-56.0"},{"result":126,"points":3,"place":0,"phase":0,"sequence":37,"prices":[170,193,176,245,178,194,154,159,236,126],"times":[1042,632,560,622,592,702,748,772,817,1043],"next_num":10,"trial_type":"ticket-choose","trial_index":57,"time_elapsed":1040765,"internal_node_id":"0.0-57.0"},{"result":136,"points":2,"place":1,"phase":0,"sequence":38,"prices":[172,194,174,243,182,193,136,150,237,126],"times":[1443,586,600,615,614,607,1314],"next_num":7,"trial_type":"ticket-choose","trial_index":58,"time_elapsed":1050070,"internal_node_id":"0.0-58.0"},{"result":130,"points":2,"place":1,"phase":0,"sequence":39,"prices":[181,130,116,142,157,193,165,218,173,207],"times":[1007,1168],"next_num":2,"trial_type":"ticket-choose","trial_index":59,"time_elapsed":1054805,"internal_node_id":"0.0-59.0"},{"result":132,"points":3,"place":0,"phase":0,"sequence":40,"prices":[132,222,144,153,190,248,151,224,228,179],"times":[1896],"next_num":1,"trial_type":"ticket-choose","trial_index":60,"time_elapsed":1059259,"internal_node_id":"0.0-60.0"},{"result":152,"points":2,"place":1,"phase":0,"sequence":41,"prices":[156,218,212,216,191,210,275,146,174,152],"times":[1518,2024,586,529,725,584,749,967,881,919],"next_num":10,"trial_type":"ticket-choose","trial_index":61,"time_elapsed":1073449,"internal_node_id":"0.0-61.0"},{"result":126,"points":3,"place":0,"phase":0,"sequence":42,"prices":[168,191,146,252,183,193,172,153,126,238],"times":[1303,593,1418,539,709,624,632,1020,1053],"next_num":9,"trial_type":"ticket-choose","trial_index":62,"time_elapsed":1085296,"internal_node_id":"0.0-62.0"},{"result":136,"points":2,"place":1,"phase":0,"sequence":43,"prices":[171,192,136,265,180,194,174,152,239,127],"times":[1429,655,1178],"next_num":3,"trial_type":"ticket-choose","trial_index":63,"time_elapsed":1091074,"internal_node_id":"0.0-63.0"},{"result":126,"points":3,"place":0,"phase":0,"sequence":44,"prices":[169,193,154,255,178,194,176,158,239,126],"times":[1079,599,747,624,724,880,669,669,671,905],"next_num":10,"trial_type":"ticket-choose","trial_index":64,"time_elapsed":1103106,"internal_node_id":"0.0-64.0"},{"result":188,"points":1,"place":4,"phase":0,"sequence":45,"prices":[142,207,171,182,190,269,180,218,256,188],"times":[1501,592,653,629,676,663,654,772,687,1166],"next_num":10,"trial_type":"ticket-choose","trial_index":65,"time_elapsed":1115450,"internal_node_id":"0.0-65.0"},{"result":146,"points":1,"place":2,"phase":0,"sequence":46,"prices":[186,146,191,179,152,116,140,201,172,187],"times":[1356,1121],"next_num":2,"trial_type":"ticket-choose","trial_index":66,"time_elapsed":1120536,"internal_node_id":"0.0-66.0"},{"result":129,"points":2,"place":1,"phase":0,"sequence":47,"prices":[155,129,164,189,210,108,187,241,174,275],"times":[1086,1067],"next_num":2,"trial_type":"ticket-choose","trial_index":67,"time_elapsed":1125426,"internal_node_id":"0.0-67.0"},{"result":133,"points":3,"place":0,"phase":0,"sequence":48,"prices":[169,191,154,268,183,197,176,155,236,133],"times":[1131,586,624,560,608,584,600,684,874,888],"next_num":10,"trial_type":"ticket-choose","trial_index":68,"time_elapsed":1137000,"internal_node_id":"0.0-68.0"},{"result":172,"points":1,"place":4,"phase":0,"sequence":49,"prices":[135,202,150,169,183,225,160,211,220,172],"times":[5744,569,562,661,638,858,731,693,654,801],"next_num":10,"trial_type":"ticket-choose","trial_index":69,"time_elapsed":1154094,"internal_node_id":"0.0-69.0"},{"responses":[{"value":1,"offby":0,"category":"$90 - $120","category_index":0},{"value":2,"offby":-1,"category":"$121 - $145","category_index":1},{"value":5,"offby":2,"category":"$146 - $170","category_index":2},{"value":4,"offby":-2,"category":"$171 - $195","category_index":3},{"value":4,"offby":0,"category":"$196 - $220","category_index":4},{"value":3,"offby":1,"category":"$221 - $245","category_index":5},{"value":1,"offby":0,"category":"$246 - $270","category_index":6}],"phase":0,"number":1,"trial_type":"bar-choose","trial_index":70,"time_elapsed":1241012,"internal_node_id":"0.0-70.0"},{"rt":25540,"url":"\/tickets\/utils\/start2.html","trial_type":"html","trial_index":71,"time_elapsed":1268162,"internal_node_id":"0.0-71.0"},{"trial_type":"number-animation","trial_index":72,"time_elapsed":1282692,"internal_node_id":"0.0-72.0"},{"phase":1,"sequence":0,"avg":181,"response":176,"trial_type":"training_avg","trial_index":73,"time_elapsed":1295360,"internal_node_id":"0.0-73.0"},{"trial_type":"number-animation","trial_index":74,"time_elapsed":1308248,"internal_node_id":"0.0-74.0"},{"phase":1,"sequence":1,"avg":188,"response":180,"trial_type":"training_avg","trial_index":75,"time_elapsed":1316860,"internal_node_id":"0.0-75.0"},{"trial_type":"number-animation","trial_index":76,"time_elapsed":1328682,"internal_node_id":"0.0-76.0"},{"phase":1,"sequence":2,"avg":188,"response":182,"trial_type":"training_avg","trial_index":77,"time_elapsed":1337762,"internal_node_id":"0.0-77.0"},{"trial_type":"number-animation","trial_index":78,"time_elapsed":1348524,"internal_node_id":"0.0-78.0"},{"phase":1,"sequence":3,"avg":177,"response":169,"trial_type":"training_avg","trial_index":79,"time_elapsed":1356234,"internal_node_id":"0.0-79.0"},{"trial_type":"number-animation","trial_index":80,"time_elapsed":1367184,"internal_node_id":"0.0-80.0"},{"phase":1,"sequence":4,"avg":182,"response":175,"trial_type":"training_avg","trial_index":81,"time_elapsed":1374722,"internal_node_id":"0.0-81.0"},{"responses":[{"value":0,"offby":0,"category":"$106 - $134","category_index":0},{"value":1,"offby":0,"category":"$135 - $150","category_index":1},{"value":3,"offby":0,"category":"$151 - $165","category_index":2},{"value":7,"offby":1,"category":"$166 - $180","category_index":3},{"value":5,"offby":-1,"category":"$181 - $195","category_index":4},{"value":3,"offby":0,"category":"$196 - $210","category_index":5},{"value":1,"offby":0,"category":"$211 - $225","category_index":6}],"phase":1,"number":0,"trial_type":"bar-choose","trial_index":82,"time_elapsed":1446358,"internal_node_id":"0.0-82.0"},{"rt":33333,"url":"\/tickets\/utils\/testing2.html","trial_type":"html","trial_index":83,"time_elapsed":1481292,"internal_node_id":"0.0-83.0"},{"phase":1,"order":[28,27,7,13,21,1,41,18,5,48,17,8,4,26,44,37,0,29,32,6,31,45,14,42,43,36,3,12,47,40,19,33,46,39,20,11,23,15,22,34,25,38,2,16,10,24,49,35,9,30],"trial_type":"store_order","trial_index":84,"time_elapsed":1482295,"internal_node_id":"0.0-84.0"},{"result":144,"points":3,"place":0,"phase":1,"sequence":0,"prices":[168,154,172,185,195,144,184,211,177,227],"times":[4763,788,670,949,639,1401],"next_num":6,"trial_type":"ticket-choose","trial_index":85,"time_elapsed":1496120,"internal_node_id":"0.0-85.0"},{"result":153,"points":3,"place":0,"phase":1,"sequence":1,"prices":[174,186,176,217,181,187,163,166,153,209],"times":[1165,794,637,648,764,662,983,902,1240],"next_num":9,"trial_type":"ticket-choose","trial_index":86,"time_elapsed":1508254,"internal_node_id":"0.0-86.0"},{"result":179,"points":1,"place":4,"phase":1,"sequence":2,"prices":[156,201,162,166,185,214,165,202,204,179],"times":[3682,586,538,587,631,624,950,655,601,1230],"next_num":10,"trial_type":"ticket-choose","trial_index":87,"time_elapsed":1522632,"internal_node_id":"0.0-87.0"},{"result":156,"points":3,"place":0,"phase":1,"sequence":3,"prices":[174,186,178,217,181,188,167,168,208,156],"times":[1075,692,594,647,733,763,1012,825,718,1052],"next_num":10,"trial_type":"ticket-choose","trial_index":88,"time_elapsed":1535093,"internal_node_id":"0.0-88.0"},{"result":158,"points":2,"place":1,"phase":1,"sequence":4,"prices":[176,185,177,218,180,186,158,166,209,154],"times":[1398,678,623,677,715,743,1031],"next_num":7,"trial_type":"ticket-choose","trial_index":89,"time_elapsed":1544642,"internal_node_id":"0.0-89.0"},{"result":158,"points":2,"place":1,"phase":1,"sequence":5,"prices":[176,187,177,225,181,187,158,165,208,153],"times":[2045,554,529,724,561,685,1112],"next_num":7,"trial_type":"ticket-choose","trial_index":90,"time_elapsed":1554362,"internal_node_id":"0.0-90.0"},{"result":154,"points":3,"place":0,"phase":1,"sequence":6,"prices":[175,186,177,209,181,188,158,167,208,154],"times":[1026,692,710,622,665,678,996,710,670,1004],"next_num":10,"trial_type":"ticket-choose","trial_index":91,"time_elapsed":1566953,"internal_node_id":"0.0-91.0"},{"result":147,"points":3,"place":0,"phase":1,"sequence":7,"prices":[181,215,169,147,182,193,177,184,176,179],"times":[1251,638,637,1222],"next_num":4,"trial_type":"ticket-choose","trial_index":92,"time_elapsed":1573509,"internal_node_id":"0.0-92.0"},{"result":153,"points":3,"place":0,"phase":1,"sequence":8,"prices":[174,186,163,212,181,187,176,166,153,209],"times":[1394,710,857,649,747,741,678,1135,1122],"next_num":9,"trial_type":"ticket-choose","trial_index":93,"time_elapsed":1585759,"internal_node_id":"0.0-93.0"},{"result":153,"points":3,"place":0,"phase":1,"sequence":9,"prices":[175,187,167,212,179,187,178,169,208,153],"times":[1291,670,623,702,630,665,677,754,672,887],"next_num":10,"trial_type":"ticket-choose","trial_index":94,"time_elapsed":1597581,"internal_node_id":"0.0-94.0"},{"result":156,"points":3,"place":0,"phase":1,"sequence":10,"prices":[174,186,167,211,181,188,178,168,208,156],"times":[1256,623,592,638,703,645,615,645,605,921],"next_num":10,"trial_type":"ticket-choose","trial_index":95,"time_elapsed":1608953,"internal_node_id":"0.0-95.0"},{"result":141,"points":3,"place":0,"phase":1,"sequence":11,"prices":[180,159,149,175,185,141,163,174,178,207],"times":[1134,539,538,1729,594,1049],"next_num":6,"trial_type":"ticket-choose","trial_index":96,"time_elapsed":1618353,"internal_node_id":"0.0-96.0"},{"result":153,"points":3,"place":0,"phase":1,"sequence":12,"prices":[176,186,163,214,179,187,176,166,153,208],"times":[1308,715,656,668,749,683,731,1137,1644],"next_num":9,"trial_type":"ticket-choose","trial_index":97,"time_elapsed":1630602,"internal_node_id":"0.0-97.0"},{"result":155,"points":2,"place":1,"phase":1,"sequence":13,"prices":[201,207,155,158,156,165,167,135,178,177],"times":[1465,568,1425],"next_num":3,"trial_type":"ticket-choose","trial_index":98,"time_elapsed":1636614,"internal_node_id":"0.0-98.0"},{"result":186,"points":1,"place":4,"phase":1,"sequence":14,"prices":[168,192,171,178,188,217,172,195,197,186],"times":[1077,623,597,567,600,687,765,770,972,966],"next_num":10,"trial_type":"ticket-choose","trial_index":99,"time_elapsed":1648170,"internal_node_id":"0.0-99.0"},{"result":158,"points":2,"place":1,"phase":1,"sequence":15,"prices":[176,185,158,217,180,186,177,166,209,154],"times":[1003,661,1074],"next_num":3,"trial_type":"ticket-choose","trial_index":100,"time_elapsed":1653528,"internal_node_id":"0.0-100.0"},{"result":153,"points":3,"place":0,"phase":1,"sequence":16,"prices":[175,186,163,211,179,187,176,165,153,210],"times":[1042,625,856,672,868,842,677,965,1058],"next_num":9,"trial_type":"ticket-choose","trial_index":101,"time_elapsed":1664924,"internal_node_id":"0.0-101.0"},{"result":153,"points":3,"place":0,"phase":1,"sequence":17,"prices":[175,186,177,221,180,187,158,166,209,153],"times":[1435,593,583,569,708,627,1837,678,578,848],"next_num":10,"trial_type":"ticket-choose","trial_index":102,"time_elapsed":1677704,"internal_node_id":"0.0-102.0"},{"result":170,"points":1,"place":2,"phase":1,"sequence":18,"prices":[212,192,188,184,167,193,189,164,176,170],"times":[1472,716,649,599,762,657,615,1146,802,1022],"next_num":10,"trial_type":"ticket-choose","trial_index":103,"time_elapsed":1690390,"internal_node_id":"0.0-103.0"},{"result":152,"points":3,"place":0,"phase":1,"sequence":19,"prices":[198,193,169,163,202,182,152,164,177,171],"times":[1656,617,507,570,723,609,1090],"next_num":7,"trial_type":"ticket-choose","trial_index":104,"time_elapsed":1699688,"internal_node_id":"0.0-104.0"},{"result":154,"points":3,"place":0,"phase":1,"sequence":20,"prices":[188,200,165,172,198,174,177,154,177,180],"times":[1886,685,423,569,576,719,670,1106],"next_num":8,"trial_type":"ticket-choose","trial_index":105,"time_elapsed":1709943,"internal_node_id":"0.0-105.0"},{"result":148,"points":3,"place":0,"phase":1,"sequence":21,"prices":[148,171,150,163,167,220,162,186,187,165],"times":[1768],"next_num":1,"trial_type":"ticket-choose","trial_index":106,"time_elapsed":1713861,"internal_node_id":"0.0-106.0"},{"result":154,"points":3,"place":0,"phase":1,"sequence":22,"prices":[175,187,176,209,180,188,163,165,154,208],"times":[1034,576,663,606,712,1029,920,693,1184],"next_num":9,"trial_type":"ticket-choose","trial_index":107,"time_elapsed":1724983,"internal_node_id":"0.0-107.0"},{"result":153,"points":3,"place":0,"phase":1,"sequence":23,"prices":[175,186,158,211,180,187,177,166,209,153],"times":[991,599,927,701,576,656,629,812,949,1042],"next_num":10,"trial_type":"ticket-choose","trial_index":108,"time_elapsed":1737048,"internal_node_id":"0.0-108.0"},{"result":152,"points":3,"place":0,"phase":1,"sequence":24,"prices":[152,200,158,173,182,207,161,202,204,180],"times":[1152],"next_num":1,"trial_type":"ticket-choose","trial_index":109,"time_elapsed":1740357,"internal_node_id":"0.0-109.0"},{"result":148,"points":3,"place":0,"phase":1,"sequence":25,"prices":[183,163,185,180,166,148,160,186,176,184],"times":[1375,641,651,546,630,1097],"next_num":6,"trial_type":"ticket-choose","trial_index":110,"time_elapsed":1748331,"internal_node_id":"0.0-110.0"},{"result":143,"points":3,"place":0,"phase":1,"sequence":26,"prices":[222,173,202,197,143,205,198,183,178,186],"times":[963,570,630,576,1106],"next_num":5,"trial_type":"ticket-choose","trial_index":111,"time_elapsed":1756345,"internal_node_id":"0.0-111.0"},{"result":208,"points":0,"place":6,"phase":1,"sequence":27,"prices":[210,184,226,193,215,158,199,175,176,208],"times":[1499,586,638,570,662,1020,608,671,638,1317],"next_num":10,"trial_type":"ticket-choose","trial_index":112,"time_elapsed":1769139,"internal_node_id":"0.0-112.0"},{"result":155,"points":2,"place":1,"phase":1,"sequence":28,"prices":[181,155,148,161,168,187,172,199,176,194],"times":[1042,965],"next_num":2,"trial_type":"ticket-choose","trial_index":113,"time_elapsed":1773361,"internal_node_id":"0.0-113.0"},{"result":157,"points":3,"place":0,"phase":1,"sequence":29,"prices":[201,187,157,184,198,179,188,185,178,170],"times":[898,583,1031],"next_num":3,"trial_type":"ticket-choose","trial_index":114,"time_elapsed":1778469,"internal_node_id":"0.0-114.0"},{"result":153,"points":3,"place":0,"phase":1,"sequence":30,"prices":[175,186,167,225,179,187,178,169,209,153],"times":[859,671,593,617,732,679,631,834,615,991],"next_num":10,"trial_type":"ticket-choose","trial_index":115,"time_elapsed":1790945,"internal_node_id":"0.0-115.0"},{"result":154,"points":3,"place":0,"phase":1,"sequence":31,"prices":[175,186,158,209,181,188,177,167,208,154],"times":[1219,521,1091,545,795,660,617,770,641,833],"next_num":10,"trial_type":"ticket-choose","trial_index":116,"time_elapsed":1802649,"internal_node_id":"0.0-116.0"},{"result":188,"points":1,"place":4,"phase":1,"sequence":32,"prices":[161,193,167,187,190,224,174,194,195,188],"times":[1175,638,755,592,621,708,670,678,641,902],"next_num":10,"trial_type":"ticket-choose","trial_index":117,"time_elapsed":1814051,"internal_node_id":"0.0-117.0"},{"result":157,"points":3,"place":0,"phase":1,"sequence":33,"prices":[157,191,165,175,182,203,170,195,200,176],"times":[1453],"next_num":1,"trial_type":"ticket-choose","trial_index":118,"time_elapsed":1817584,"internal_node_id":"0.0-118.0"},{"result":166,"points":2,"place":1,"phase":1,"sequence":34,"prices":[168,199,196,198,185,195,227,163,177,166],"times":[1081,583,646,582,724,664,677,1519,599,935],"next_num":10,"trial_type":"ticket-choose","trial_index":119,"time_elapsed":1829694,"internal_node_id":"0.0-119.0"},{"result":163,"points":2,"place":1,"phase":1,"sequence":35,"prices":[175,186,176,224,179,187,163,165,153,210],"times":[1140,661,592,724,639,733,1106],"next_num":7,"trial_type":"ticket-choose","trial_index":120,"time_elapsed":1838674,"internal_node_id":"0.0-120.0"},{"result":161,"points":3,"place":0,"phase":1,"sequence":36,"prices":[161,193,175,181,185,224,180,199,218,184],"times":[1960],"next_num":1,"trial_type":"ticket-choose","trial_index":121,"time_elapsed":1842950,"internal_node_id":"0.0-121.0"},{"result":153,"points":3,"place":0,"phase":1,"sequence":37,"prices":[175,187,178,209,179,187,167,169,208,153],"times":[1229,547,592,630,1418,678,756,991,1782,827],"next_num":10,"trial_type":"ticket-choose","trial_index":122,"time_elapsed":1857902,"internal_node_id":"0.0-122.0"},{"result":150,"points":3,"place":0,"phase":1,"sequence":38,"prices":[150,185,154,161,173,199,155,188,191,168],"times":[1517],"next_num":1,"trial_type":"ticket-choose","trial_index":123,"time_elapsed":1861452,"internal_node_id":"0.0-123.0"},{"result":153,"points":3,"place":0,"phase":1,"sequence":39,"prices":[175,186,178,212,179,187,167,169,209,153],"times":[1230,562,478,561,646,591,624,825,637,974],"next_num":10,"trial_type":"ticket-choose","trial_index":124,"time_elapsed":1874028,"internal_node_id":"0.0-124.0"},{"result":159,"points":3,"place":0,"phase":1,"sequence":40,"prices":[159,183,166,168,173,205,167,187,191,170],"times":[2580],"next_num":1,"trial_type":"ticket-choose","trial_index":125,"time_elapsed":1878662,"internal_node_id":"0.0-125.0"},{"result":185,"points":1,"place":4,"phase":1,"sequence":41,"prices":[169,196,170,184,187,211,171,201,202,185],"times":[878,568,531,544,640,608,872,616,591,1091],"next_num":10,"trial_type":"ticket-choose","trial_index":126,"time_elapsed":1889518,"internal_node_id":"0.0-126.0"},{"result":167,"points":2,"place":1,"phase":1,"sequence":42,"prices":[175,185,178,215,181,186,167,168,208,156],"times":[845,545,546,645,662,622,1043],"next_num":7,"trial_type":"ticket-choose","trial_index":127,"time_elapsed":1897780,"internal_node_id":"0.0-127.0"},{"result":163,"points":2,"place":1,"phase":1,"sequence":43,"prices":[175,187,163,209,180,188,176,165,154,208],"times":[830,592,1739],"next_num":3,"trial_type":"ticket-choose","trial_index":128,"time_elapsed":1903339,"internal_node_id":"0.0-128.0"},{"result":150,"points":3,"place":0,"phase":1,"sequence":44,"prices":[189,150,175,160,188,207,158,194,178,199],"times":[877,928],"next_num":2,"trial_type":"ticket-choose","trial_index":129,"time_elapsed":1907449,"internal_node_id":"0.0-129.0"},{"result":171,"points":1,"place":3,"phase":1,"sequence":45,"prices":[189,167,180,197,165,168,172,213,178,171],"times":[1059,537,569,547,630,552,709,687,584,925],"next_num":10,"trial_type":"ticket-choose","trial_index":130,"time_elapsed":1918272,"internal_node_id":"0.0-130.0"},{"result":156,"points":3,"place":0,"phase":1,"sequence":46,"prices":[175,185,167,224,181,186,178,168,208,156],"times":[1190,546,754,582,586,654,638,724,648,847],"next_num":10,"trial_type":"ticket-choose","trial_index":131,"time_elapsed":1930691,"internal_node_id":"0.0-131.0"},{"result":158,"points":2,"place":1,"phase":1,"sequence":47,"prices":[176,187,158,210,181,187,177,165,208,153],"times":[1864,544,1014],"next_num":3,"trial_type":"ticket-choose","trial_index":132,"time_elapsed":1936607,"internal_node_id":"0.0-132.0"},{"result":163,"points":2,"place":1,"phase":1,"sequence":48,"prices":[176,186,176,210,179,187,163,166,153,208],"times":[767,522,546,569,530,544,1121],"next_num":7,"trial_type":"ticket-choose","trial_index":133,"time_elapsed":1944423,"internal_node_id":"0.0-133.0"},{"result":152,"points":3,"place":0,"phase":1,"sequence":49,"prices":[200,181,203,152,175,171,160,154,176,191],"times":[1004,536,570,1020],"next_num":4,"trial_type":"ticket-choose","trial_index":134,"time_elapsed":1951065,"internal_node_id":"0.0-134.0"},{"responses":[{"value":0,"offby":0,"category":"$106 - $134","category_index":0},{"value":1,"offby":0,"category":"$135 - $150","category_index":1},{"value":3,"offby":0,"category":"$151 - $165","category_index":2},{"value":5,"offby":-1,"category":"$166 - $180","category_index":3},{"value":5,"offby":-1,"category":"$181 - $195","category_index":4},{"value":4,"offby":1,"category":"$196 - $210","category_index":5},{"value":2,"offby":1,"category":"$211 - $225","category_index":6}],"phase":1,"number":1,"trial_type":"bar-choose","trial_index":135,"time_elapsed":1996177,"internal_node_id":"0.0-135.0"},{"special_comment":"notreally","trial_type":"special_sequence","trial_index":136,"time_elapsed":2048031,"internal_node_id":"0.0-136.0"},{"during":"Nothing","bonus":320,"trial_type":"final","trial_index":137,"time_elapsed":2094083,"internal_node_id":"0.0-137.0"}],"bonus":320}