{"start_time":"2017-02-22 10:07:17","end_time":"2017-02-22 10:28:43","points_phase0":102,"points_phase1":105,"phase_order":0,"age":36,"gender":"f","tries":1,"during":"Nothing","worker_id":"A1HWB810RJBV2K","assignment_id":"3Z7VU45IPZAQHS1G2DUJIT2O4WE1ZU","data":[{"rt":8378,"url":"\/tickets\/utils\/consent.html","trial_type":"html","trial_index":0,"time_elapsed":8793,"internal_node_id":"0.0-0.0"},{"age":36,"gender":"f","trial_type":"age","trial_index":1,"time_elapsed":14512,"internal_node_id":"0.0-1.0"},{"worker_id":"A1HWB810RJBV2K","trial_type":"workerid","trial_index":2,"time_elapsed":20525,"internal_node_id":"0.0-2.0"},{"tries":1,"trial_type":"instructions_check","trial_index":3,"time_elapsed":45736,"internal_node_id":"0.0-3.0"},{"rt":6542,"url":"\/tickets\/utils\/start.html","trial_type":"html","trial_index":4,"time_elapsed":53430,"internal_node_id":"0.0-4.0"},{"trial_type":"number-animation","trial_index":5,"time_elapsed":76978,"internal_node_id":"0.0-5.0"},{"phase":0,"sequence":0,"avg":181,"response":168,"trial_type":"training_avg","trial_index":6,"time_elapsed":91531,"internal_node_id":"0.0-6.0"},{"trial_type":"number-animation","trial_index":7,"time_elapsed":105461,"internal_node_id":"0.0-7.0"},{"phase":0,"sequence":1,"avg":188,"response":185,"trial_type":"training_avg","trial_index":8,"time_elapsed":113941,"internal_node_id":"0.0-8.0"},{"trial_type":"number-animation","trial_index":9,"time_elapsed":126759,"internal_node_id":"0.0-9.0"},{"phase":0,"sequence":2,"avg":188,"response":190,"trial_type":"training_avg","trial_index":10,"time_elapsed":134424,"internal_node_id":"0.0-10.0"},{"trial_type":"number-animation","trial_index":11,"time_elapsed":146345,"internal_node_id":"0.0-11.0"},{"phase":0,"sequence":3,"avg":177,"response":175,"trial_type":"training_avg","trial_index":12,"time_elapsed":153954,"internal_node_id":"0.0-12.0"},{"trial_type":"number-animation","trial_index":13,"time_elapsed":163972,"internal_node_id":"0.0-13.0"},{"phase":0,"sequence":4,"avg":182,"response":185,"trial_type":"training_avg","trial_index":14,"time_elapsed":171710,"internal_node_id":"0.0-14.0"},{"responses":[{"value":2,"offby":2,"category":"$106 - $134","category_index":0},{"value":5,"offby":4,"category":"$135 - $150","category_index":1},{"value":8,"offby":5,"category":"$151 - $165","category_index":2},{"value":5,"offby":-1,"category":"$166 - $180","category_index":3},{"value":0,"offby":-6,"category":"$181 - $195","category_index":4},{"value":0,"offby":-3,"category":"$196 - $210","category_index":5},{"value":0,"offby":-1,"category":"$211 - $225","category_index":6}],"phase":0,"number":0,"trial_type":"bar-choose","trial_index":15,"time_elapsed":232529,"internal_node_id":"0.0-15.0"},{"rt":12579,"url":"\/tickets\/\/utils\/testing.html","trial_type":"html","trial_index":16,"time_elapsed":246264,"internal_node_id":"0.0-16.0"},{"phase":0,"order":[48,30,17,45,43,32,8,14,13,47,31,39,9,34,21,15,42,37,5,23,6,19,24,46,28,1,44,4,27,2,3,0,20,25,10,36,33,38,41,12,40,11,26,35,18,49,29,7,16,22],"trial_type":"store_order","trial_index":17,"time_elapsed":247264,"internal_node_id":"0.0-17.0"},{"result":165,"points":2,"place":1,"phase":0,"sequence":-1,"prices":[184,180,224,165,181,199,185,193,218,126],"times":[5989,1382,1414,1508],"next_num":4,"trial_type":"ticket-choose","trial_index":18,"time_elapsed":261266,"internal_node_id":"0.0-18.0"},{"rt":1954,"url":"\/tickets\/utils\/testing_after.html","trial_type":"html","trial_index":19,"time_elapsed":264379,"internal_node_id":"0.0-19.0"},{"result":147,"points":3,"place":0,"phase":0,"sequence":0,"prices":[181,215,169,147,182,193,177,184,176,179],"times":[2250,711,886,1045],"next_num":4,"trial_type":"ticket-choose","trial_index":20,"time_elapsed":274796,"internal_node_id":"0.0-20.0"},{"result":176,"points":1,"place":4,"phase":0,"sequence":1,"prices":[157,191,165,175,182,203,170,195,200,176],"times":[3822,584,567,592,583,639,783,1312,927,861],"next_num":10,"trial_type":"ticket-choose","trial_index":21,"time_elapsed":290438,"internal_node_id":"0.0-21.0"},{"result":158,"points":2,"place":1,"phase":0,"sequence":2,"prices":[175,186,158,209,181,188,177,167,208,154],"times":[1046,704,988],"next_num":3,"trial_type":"ticket-choose","trial_index":22,"time_elapsed":296374,"internal_node_id":"0.0-22.0"},{"result":164,"points":3,"place":0,"phase":0,"sequence":3,"prices":[212,192,188,184,167,193,189,164,176,170],"times":[2423,577,575,640,759,680,679,1776],"next_num":8,"trial_type":"ticket-choose","trial_index":23,"time_elapsed":309185,"internal_node_id":"0.0-23.0"},{"result":157,"points":3,"place":0,"phase":0,"sequence":4,"prices":[201,187,157,184,198,179,188,185,178,170],"times":[1845,903,944],"next_num":3,"trial_type":"ticket-choose","trial_index":24,"time_elapsed":316074,"internal_node_id":"0.0-24.0"},{"result":188,"points":1,"place":4,"phase":0,"sequence":5,"prices":[161,193,167,187,190,224,174,194,195,188],"times":[818,577,719,615,656,621,1056,688,655,718],"next_num":10,"trial_type":"ticket-choose","trial_index":25,"time_elapsed":327234,"internal_node_id":"0.0-25.0"},{"result":167,"points":2,"place":1,"phase":0,"sequence":6,"prices":[174,186,167,211,181,188,178,168,208,156],"times":[1316,582,944],"next_num":3,"trial_type":"ticket-choose","trial_index":26,"time_elapsed":332804,"internal_node_id":"0.0-26.0"},{"result":167,"points":2,"place":1,"phase":0,"sequence":7,"prices":[175,186,178,212,179,187,167,169,209,153],"times":[3150,584,544,607,823,617,975],"next_num":7,"trial_type":"ticket-choose","trial_index":27,"time_elapsed":343605,"internal_node_id":"0.0-27.0"},{"result":167,"points":2,"place":1,"phase":0,"sequence":8,"prices":[175,185,178,215,181,186,167,168,208,156],"times":[5021,536,534,543,640,655,965],"next_num":7,"trial_type":"ticket-choose","trial_index":28,"time_elapsed":356038,"internal_node_id":"0.0-28.0"},{"result":152,"points":3,"place":0,"phase":0,"sequence":9,"prices":[200,181,203,152,175,171,160,154,176,191],"times":[1793,552,558,1015],"next_num":4,"trial_type":"ticket-choose","trial_index":29,"time_elapsed":362679,"internal_node_id":"0.0-29.0"},{"result":148,"points":3,"place":0,"phase":0,"sequence":10,"prices":[148,171,150,163,167,220,162,186,187,165],"times":[1242],"next_num":1,"trial_type":"ticket-choose","trial_index":30,"time_elapsed":366432,"internal_node_id":"0.0-30.0"},{"result":165,"points":3,"place":0,"phase":0,"sequence":11,"prices":[189,167,180,197,165,168,172,213,178,171],"times":[881,536,535,623,881],"next_num":5,"trial_type":"ticket-choose","trial_index":31,"time_elapsed":372873,"internal_node_id":"0.0-31.0"},{"result":167,"points":2,"place":1,"phase":0,"sequence":12,"prices":[175,185,167,224,181,186,178,168,208,156],"times":[672,544,990],"next_num":3,"trial_type":"ticket-choose","trial_index":32,"time_elapsed":377545,"internal_node_id":"0.0-32.0"},{"result":155,"points":2,"place":1,"phase":0,"sequence":13,"prices":[181,155,148,161,168,187,172,199,176,194],"times":[762,903],"next_num":2,"trial_type":"ticket-choose","trial_index":33,"time_elapsed":381377,"internal_node_id":"0.0-33.0"},{"result":158,"points":2,"place":1,"phase":0,"sequence":14,"prices":[175,186,177,209,181,188,158,167,208,154],"times":[649,632,534,567,568,519,952],"next_num":7,"trial_type":"ticket-choose","trial_index":34,"time_elapsed":389051,"internal_node_id":"0.0-34.0"},{"result":167,"points":2,"place":1,"phase":0,"sequence":15,"prices":[175,187,178,209,179,187,167,169,208,153],"times":[2469,527,487,607,551,576,982],"next_num":7,"trial_type":"ticket-choose","trial_index":35,"time_elapsed":401948,"internal_node_id":"0.0-35.0"},{"result":143,"points":3,"place":0,"phase":0,"sequence":16,"prices":[222,173,202,197,143,205,198,183,178,186],"times":[949,519,552,567,943],"next_num":5,"trial_type":"ticket-choose","trial_index":36,"time_elapsed":408309,"internal_node_id":"0.0-36.0"},{"result":169,"points":1,"place":3,"phase":0,"sequence":17,"prices":[198,193,169,163,202,182,152,164,177,171],"times":[629,551,1152],"next_num":3,"trial_type":"ticket-choose","trial_index":37,"time_elapsed":413053,"internal_node_id":"0.0-37.0"},{"result":163,"points":2,"place":1,"phase":0,"sequence":18,"prices":[175,187,176,209,180,188,163,165,154,208],"times":[998,512,478,615,526,544,1351],"next_num":7,"trial_type":"ticket-choose","trial_index":38,"time_elapsed":421303,"internal_node_id":"0.0-38.0"},{"result":158,"points":2,"place":1,"phase":0,"sequence":19,"prices":[176,185,177,218,180,186,158,166,209,154],"times":[565,534,471,558,679,584,1128],"next_num":7,"trial_type":"ticket-choose","trial_index":39,"time_elapsed":428929,"internal_node_id":"0.0-39.0"},{"result":163,"points":2,"place":1,"phase":0,"sequence":20,"prices":[174,186,176,217,181,187,163,166,153,209],"times":[792,849,612,551,536,517,1159],"next_num":7,"trial_type":"ticket-choose","trial_index":40,"time_elapsed":437048,"internal_node_id":"0.0-40.0"},{"result":158,"points":2,"place":1,"phase":0,"sequence":21,"prices":[176,185,158,217,180,186,177,166,209,154],"times":[588,791,1166],"next_num":3,"trial_type":"ticket-choose","trial_index":41,"time_elapsed":441946,"internal_node_id":"0.0-41.0"},{"result":184,"points":1,"place":4,"phase":0,"sequence":22,"prices":[161,193,175,181,185,224,180,199,218,184],"times":[548,520,864,519,496,926,567,736,645,614],"next_num":11,"trial_type":"ticket-choose","trial_index":42,"time_elapsed":453835,"internal_node_id":"0.0-42.0"},{"result":158,"points":3,"place":0,"phase":0,"sequence":23,"prices":[210,184,226,193,215,158,199,175,176,208],"times":[1215,544,855,519,550,1031],"next_num":6,"trial_type":"ticket-choose","trial_index":43,"time_elapsed":461660,"internal_node_id":"0.0-43.0"},{"result":185,"points":1,"place":4,"phase":0,"sequence":24,"prices":[169,196,170,184,187,211,171,201,202,185],"times":[701,903,480,503,566,535,551,575,783,889],"next_num":10,"trial_type":"ticket-choose","trial_index":44,"time_elapsed":473252,"internal_node_id":"0.0-44.0"},{"result":163,"points":2,"place":1,"phase":0,"sequence":25,"prices":[175,187,163,209,180,188,176,165,154,208],"times":[720,463,1031],"next_num":3,"trial_type":"ticket-choose","trial_index":45,"time_elapsed":477942,"internal_node_id":"0.0-45.0"},{"result":149,"points":2,"place":1,"phase":0,"sequence":26,"prices":[180,159,149,175,185,141,163,174,178,207],"times":[685,479,951],"next_num":3,"trial_type":"ticket-choose","trial_index":46,"time_elapsed":482493,"internal_node_id":"0.0-46.0"},{"result":163,"points":2,"place":1,"phase":0,"sequence":27,"prices":[176,186,176,210,179,187,163,166,153,208],"times":[701,519,783,535,559,517,895],"next_num":7,"trial_type":"ticket-choose","trial_index":47,"time_elapsed":490431,"internal_node_id":"0.0-47.0"},{"result":186,"points":1,"place":4,"phase":0,"sequence":28,"prices":[168,192,171,178,188,217,172,195,197,186],"times":[910,1512,494,582,560,563,593,896,613,1080],"next_num":10,"trial_type":"ticket-choose","trial_index":48,"time_elapsed":501952,"internal_node_id":"0.0-48.0"},{"result":163,"points":2,"place":1,"phase":0,"sequence":29,"prices":[174,186,163,212,181,187,176,166,153,209],"times":[793,663,884],"next_num":3,"trial_type":"ticket-choose","trial_index":49,"time_elapsed":506472,"internal_node_id":"0.0-49.0"},{"result":163,"points":2,"place":1,"phase":0,"sequence":30,"prices":[175,186,163,211,179,187,176,165,153,210],"times":[471,645,847],"next_num":3,"trial_type":"ticket-choose","trial_index":50,"time_elapsed":510641,"internal_node_id":"0.0-50.0"},{"result":163,"points":2,"place":1,"phase":0,"sequence":31,"prices":[176,186,163,214,179,187,176,166,153,208],"times":[558,591,888],"next_num":3,"trial_type":"ticket-choose","trial_index":51,"time_elapsed":514977,"internal_node_id":"0.0-51.0"},{"result":158,"points":2,"place":1,"phase":0,"sequence":32,"prices":[175,186,177,221,180,187,158,166,209,153],"times":[679,471,479,583,600,542,1000],"next_num":7,"trial_type":"ticket-choose","trial_index":52,"time_elapsed":522514,"internal_node_id":"0.0-52.0"},{"result":179,"points":1,"place":4,"phase":0,"sequence":33,"prices":[156,201,162,166,185,214,165,202,204,179],"times":[438,935,448,527,591,593,567,576,527,616],"next_num":11,"trial_type":"ticket-choose","trial_index":53,"time_elapsed":532972,"internal_node_id":"0.0-53.0"},{"result":169,"points":1,"place":2,"phase":0,"sequence":34,"prices":[175,186,167,225,179,187,178,169,209,153],"times":[716,520,526,598,533,583,616,880],"next_num":8,"trial_type":"ticket-choose","trial_index":54,"time_elapsed":541180,"internal_node_id":"0.0-54.0"},{"result":165,"points":2,"place":1,"phase":0,"sequence":35,"prices":[188,200,165,172,198,174,177,154,177,180],"times":[532,591,1040],"next_num":3,"trial_type":"ticket-choose","trial_index":55,"time_elapsed":545492,"internal_node_id":"0.0-55.0"},{"result":166,"points":2,"place":1,"phase":0,"sequence":36,"prices":[159,183,166,168,173,205,167,187,191,170],"times":[486,1040,992],"next_num":3,"trial_type":"ticket-choose","trial_index":56,"time_elapsed":550397,"internal_node_id":"0.0-56.0"},{"result":163,"points":3,"place":0,"phase":0,"sequence":37,"prices":[168,199,196,198,185,195,227,163,177,166],"times":[1023,600,589,543,583,566,623,951],"next_num":8,"trial_type":"ticket-choose","trial_index":57,"time_elapsed":559214,"internal_node_id":"0.0-57.0"},{"result":155,"points":2,"place":1,"phase":0,"sequence":38,"prices":[201,207,155,158,156,165,167,135,178,177],"times":[493,463,960],"next_num":3,"trial_type":"ticket-choose","trial_index":58,"time_elapsed":563359,"internal_node_id":"0.0-58.0"},{"result":167,"points":2,"place":1,"phase":0,"sequence":39,"prices":[174,186,178,217,181,188,167,168,208,156],"times":[1085,551,509,566,536,502,887],"next_num":7,"trial_type":"ticket-choose","trial_index":59,"time_elapsed":571009,"internal_node_id":"0.0-59.0"},{"result":150,"points":3,"place":0,"phase":0,"sequence":40,"prices":[189,150,175,160,188,207,158,194,178,199],"times":[1128,976],"next_num":2,"trial_type":"ticket-choose","trial_index":60,"time_elapsed":575176,"internal_node_id":"0.0-60.0"},{"result":169,"points":1,"place":2,"phase":0,"sequence":41,"prices":[175,187,167,212,179,187,178,169,208,153],"times":[732,504,519,618,518,527,519,952],"next_num":8,"trial_type":"ticket-choose","trial_index":61,"time_elapsed":583353,"internal_node_id":"0.0-61.0"},{"result":158,"points":2,"place":1,"phase":0,"sequence":42,"prices":[152,200,158,173,182,207,161,202,204,180],"times":[484,800,967],"next_num":3,"trial_type":"ticket-choose","trial_index":62,"time_elapsed":587793,"internal_node_id":"0.0-62.0"},{"result":154,"points":2,"place":1,"phase":0,"sequence":43,"prices":[168,154,172,185,195,144,184,211,177,227],"times":[1499,1039],"next_num":2,"trial_type":"ticket-choose","trial_index":63,"time_elapsed":592314,"internal_node_id":"0.0-63.0"},{"result":158,"points":2,"place":1,"phase":0,"sequence":44,"prices":[176,187,158,210,181,187,177,165,208,153],"times":[585,529,863],"next_num":3,"trial_type":"ticket-choose","trial_index":64,"time_elapsed":596460,"internal_node_id":"0.0-64.0"},{"result":163,"points":1,"place":2,"phase":0,"sequence":45,"prices":[183,163,185,180,166,148,160,186,176,184],"times":[671,967],"next_num":2,"trial_type":"ticket-choose","trial_index":65,"time_elapsed":600069,"internal_node_id":"0.0-65.0"},{"result":150,"points":3,"place":0,"phase":0,"sequence":46,"prices":[150,185,154,161,173,199,155,188,191,168],"times":[1475],"next_num":1,"trial_type":"ticket-choose","trial_index":66,"time_elapsed":603324,"internal_node_id":"0.0-66.0"},{"result":153,"points":3,"place":0,"phase":0,"sequence":47,"prices":[175,186,176,224,179,187,163,165,153,210],"times":[699,544,552,568,568,585,1438,1008,855],"next_num":9,"trial_type":"ticket-choose","trial_index":67,"time_elapsed":614200,"internal_node_id":"0.0-67.0"},{"result":158,"points":2,"place":1,"phase":0,"sequence":48,"prices":[175,186,158,211,180,187,177,166,209,153],"times":[2637,633,1103],"next_num":3,"trial_type":"ticket-choose","trial_index":68,"time_elapsed":621225,"internal_node_id":"0.0-68.0"},{"result":158,"points":2,"place":1,"phase":0,"sequence":49,"prices":[176,187,177,225,181,187,158,165,208,153],"times":[1213,495,479,750,513,504,895],"next_num":7,"trial_type":"ticket-choose","trial_index":69,"time_elapsed":629226,"internal_node_id":"0.0-69.0"},{"responses":[{"value":0,"offby":0,"category":"$106 - $134","category_index":0},{"value":2,"offby":1,"category":"$135 - $150","category_index":1},{"value":5,"offby":2,"category":"$151 - $165","category_index":2},{"value":3,"offby":-3,"category":"$166 - $180","category_index":3},{"value":10,"offby":4,"category":"$181 - $195","category_index":4},{"value":0,"offby":-3,"category":"$196 - $210","category_index":5},{"value":0,"offby":-1,"category":"$211 - $225","category_index":6}],"phase":0,"number":1,"trial_type":"bar-choose","trial_index":70,"time_elapsed":696896,"internal_node_id":"0.0-70.0"},{"rt":5533,"url":"\/tickets\/utils\/start2.html","trial_type":"html","trial_index":71,"time_elapsed":703592,"internal_node_id":"0.0-71.0"},{"trial_type":"number-animation","trial_index":72,"time_elapsed":713937,"internal_node_id":"0.0-72.0"},{"phase":1,"sequence":0,"avg":182,"response":170,"trial_type":"training_avg","trial_index":73,"time_elapsed":722227,"internal_node_id":"0.0-73.0"},{"trial_type":"number-animation","trial_index":74,"time_elapsed":733018,"internal_node_id":"0.0-74.0"},{"phase":1,"sequence":1,"avg":188,"response":181,"trial_type":"training_avg","trial_index":75,"time_elapsed":740908,"internal_node_id":"0.0-75.0"},{"trial_type":"number-animation","trial_index":76,"time_elapsed":751390,"internal_node_id":"0.0-76.0"},{"phase":1,"sequence":2,"avg":176,"response":189,"trial_type":"training_avg","trial_index":77,"time_elapsed":757838,"internal_node_id":"0.0-77.0"},{"trial_type":"number-animation","trial_index":78,"time_elapsed":767392,"internal_node_id":"0.0-78.0"},{"phase":1,"sequence":3,"avg":180,"response":179,"trial_type":"training_avg","trial_index":79,"time_elapsed":772999,"internal_node_id":"0.0-79.0"},{"trial_type":"number-animation","trial_index":80,"time_elapsed":783041,"internal_node_id":"0.0-80.0"},{"phase":1,"sequence":4,"avg":174,"response":172,"trial_type":"training_avg","trial_index":81,"time_elapsed":789146,"internal_node_id":"0.0-81.0"},{"responses":[{"value":0,"offby":-1,"category":"$90 - $120","category_index":0},{"value":1,"offby":-2,"category":"$121 - $145","category_index":1},{"value":2,"offby":-1,"category":"$146 - $170","category_index":2},{"value":5,"offby":-1,"category":"$171 - $195","category_index":3},{"value":5,"offby":1,"category":"$196 - $220","category_index":4},{"value":2,"offby":0,"category":"$221 - $245","category_index":5},{"value":0,"offby":-1,"category":"$246 - $270","category_index":6}],"phase":1,"number":0,"trial_type":"bar-choose","trial_index":82,"time_elapsed":824679,"internal_node_id":"0.0-82.0"},{"rt":29993,"url":"\/tickets\/utils\/testing2.html","trial_type":"html","trial_index":83,"time_elapsed":855836,"internal_node_id":"0.0-83.0"},{"phase":1,"order":[26,7,32,49,13,34,10,41,36,48,12,31,4,20,17,15,25,21,33,2,9,5,6,43,28,38,29,40,22,18,39,35,37,11,0,24,46,47,45,3,23,30,8,16,27,1,14,44,42,19],"trial_type":"store_order","trial_index":84,"time_elapsed":856838,"internal_node_id":"0.0-84.0"},{"result":124,"points":3,"place":0,"phase":1,"sequence":0,"prices":[124,220,136,165,185,234,143,225,228,179],"times":[11015],"next_num":1,"trial_type":"ticket-choose","trial_index":85,"time_elapsed":870119,"internal_node_id":"0.0-85.0"},{"result":146,"points":2,"place":1,"phase":1,"sequence":1,"prices":[171,191,172,268,179,194,146,150,127,239],"times":[1169,503,512,630,1168,591,1278],"next_num":7,"trial_type":"ticket-choose","trial_index":86,"time_elapsed":879343,"internal_node_id":"0.0-86.0"},{"result":143,"points":3,"place":0,"phase":1,"sequence":2,"prices":[143,206,153,194,201,267,168,208,210,196],"times":[1082],"next_num":1,"trial_type":"ticket-choose","trial_index":87,"time_elapsed":882480,"internal_node_id":"0.0-87.0"},{"result":146,"points":1,"place":2,"phase":1,"sequence":3,"prices":[186,146,191,179,152,116,140,201,172,187],"times":[1069,880],"next_num":2,"trial_type":"ticket-choose","trial_index":88,"time_elapsed":886640,"internal_node_id":"0.0-88.0"},{"result":154,"points":2,"place":1,"phase":1,"sequence":4,"prices":[170,190,176,251,183,192,154,157,236,131],"times":[741,504,623,598,518,583,1144],"next_num":7,"trial_type":"ticket-choose","trial_index":89,"time_elapsed":894410,"internal_node_id":"0.0-89.0"},{"result":116,"points":3,"place":0,"phase":1,"sequence":5,"prices":[181,130,116,142,157,193,165,218,173,207],"times":[679,536,1005],"next_num":3,"trial_type":"ticket-choose","trial_index":90,"time_elapsed":899068,"internal_node_id":"0.0-90.0"},{"result":154,"points":2,"place":1,"phase":1,"sequence":6,"prices":[169,193,154,255,178,194,176,158,239,126],"times":[1458,549,944],"next_num":3,"trial_type":"ticket-choose","trial_index":91,"time_elapsed":904506,"internal_node_id":"0.0-91.0"},{"result":132,"points":1,"place":2,"phase":1,"sequence":7,"prices":[221,234,131,136,132,149,154,90,176,173],"times":[754,727,592,870,1095],"next_num":5,"trial_type":"ticket-choose","trial_index":92,"time_elapsed":911370,"internal_node_id":"0.0-92.0"},{"result":128,"points":3,"place":0,"phase":1,"sequence":8,"prices":[196,221,149,164,216,167,175,128,176,181],"times":[735,551,462,591,535,519,574,952],"next_num":8,"trial_type":"ticket-choose","trial_index":93,"time_elapsed":919692,"internal_node_id":"0.0-93.0"},{"result":114,"points":3,"place":0,"phase":1,"sequence":9,"prices":[182,249,159,114,184,205,175,189,172,178],"times":[728,527,984,912],"next_num":4,"trial_type":"ticket-choose","trial_index":94,"time_elapsed":925860,"internal_node_id":"0.0-94.0"},{"result":154,"points":2,"place":1,"phase":1,"sequence":10,"prices":[168,192,176,242,183,197,154,156,237,132],"times":[937,528,607,625,622,791,861],"next_num":7,"trial_type":"ticket-choose","trial_index":95,"time_elapsed":933854,"internal_node_id":"0.0-95.0"},{"result":117,"points":3,"place":0,"phase":1,"sequence":11,"prices":[117,161,120,147,153,259,144,191,195,149],"times":[999],"next_num":1,"trial_type":"ticket-choose","trial_index":96,"time_elapsed":936798,"internal_node_id":"0.0-96.0"},{"result":146,"points":2,"place":1,"phase":1,"sequence":12,"prices":[172,191,176,272,179,194,146,152,126,235],"times":[891,512,552,566,551,548,1136],"next_num":7,"trial_type":"ticket-choose","trial_index":97,"time_elapsed":944688,"internal_node_id":"0.0-97.0"},{"result":126,"points":3,"place":0,"phase":1,"sequence":13,"prices":[169,192,174,246,180,195,136,152,238,126],"times":[451,535,472,478,551,574,505,631,770,1181],"next_num":10,"trial_type":"ticket-choose","trial_index":98,"time_elapsed":954544,"internal_node_id":"0.0-98.0"},{"result":136,"points":2,"place":1,"phase":1,"sequence":14,"prices":[171,192,136,243,182,195,174,154,236,128],"times":[719,463,1254],"next_num":3,"trial_type":"ticket-choose","trial_index":99,"time_elapsed":959096,"internal_node_id":"0.0-99.0"},{"result":126,"points":3,"place":0,"phase":1,"sequence":15,"prices":[170,193,176,245,178,194,154,159,236,126],"times":[462,492,500,1144,599,527,536,727,752,998],"next_num":10,"trial_type":"ticket-choose","trial_index":100,"time_elapsed":969469,"internal_node_id":"0.0-100.0"},{"result":228,"points":0,"place":8,"phase":1,"sequence":16,"prices":[132,222,144,153,190,248,151,224,228,179],"times":[902,484,462,543,583,544,607,563,990],"next_num":9,"trial_type":"ticket-choose","trial_index":101,"time_elapsed":979204,"internal_node_id":"0.0-101.0"},{"result":136,"points":2,"place":1,"phase":1,"sequence":17,"prices":[170,192,174,242,181,196,136,153,236,128],"times":[3034,880,559,679,623,662,1279],"next_num":7,"trial_type":"ticket-choose","trial_index":102,"time_elapsed":990117,"internal_node_id":"0.0-102.0"},{"result":160,"points":1,"place":4,"phase":1,"sequence":18,"prices":[137,187,152,156,166,231,155,194,202,160],"times":[1085,551,535,513,494,542,551,544,791,719],"next_num":11,"trial_type":"ticket-choose","trial_index":103,"time_elapsed":1000735,"internal_node_id":"0.0-103.0"},{"result":146,"points":2,"place":1,"phase":1,"sequence":19,"prices":[168,191,146,252,183,193,172,153,126,238],"times":[1345,481,1064],"next_num":3,"trial_type":"ticket-choose","trial_index":104,"time_elapsed":1005774,"internal_node_id":"0.0-104.0"},{"result":155,"points":1,"place":2,"phase":1,"sequence":20,"prices":[169,191,154,268,183,197,176,155,236,133],"times":[509,519,487,520,597,551,550,849],"next_num":8,"trial_type":"ticket-choose","trial_index":105,"time_elapsed":1013496,"internal_node_id":"0.0-105.0"},{"result":146,"points":2,"place":1,"phase":1,"sequence":21,"prices":[171,195,172,242,179,196,146,150,128,235],"times":[659,509,519,535,533,527,976],"next_num":7,"trial_type":"ticket-choose","trial_index":106,"time_elapsed":1020763,"internal_node_id":"0.0-106.0"},{"result":146,"points":2,"place":1,"phase":1,"sequence":22,"prices":[168,191,172,240,183,193,146,151,125,238],"times":[456,639,607,599,576,607,1053],"next_num":7,"trial_type":"ticket-choose","trial_index":107,"time_elapsed":1028313,"internal_node_id":"0.0-107.0"},{"result":135,"points":3,"place":0,"phase":1,"sequence":23,"prices":[221,193,135,188,217,179,196,190,175,159],"times":[1997,494,937],"next_num":3,"trial_type":"ticket-choose","trial_index":108,"time_elapsed":1034010,"internal_node_id":"0.0-108.0"},{"result":189,"points":1,"place":4,"phase":1,"sequence":24,"prices":[157,213,159,187,194,242,161,222,225,189],"times":[407,669,552,511,558,599,630,559,791,791],"next_num":11,"trial_type":"ticket-choose","trial_index":109,"time_elapsed":1044084,"internal_node_id":"0.0-109.0"},{"result":146,"points":3,"place":0,"phase":1,"sequence":25,"prices":[156,218,212,216,191,210,275,146,174,152],"times":[1078,512,526,545,560,560,591,971],"next_num":8,"trial_type":"ticket-choose","trial_index":110,"time_elapsed":1052700,"internal_node_id":"0.0-110.0"},{"result":128,"points":2,"place":1,"phase":1,"sequence":26,"prices":[121,191,128,141,166,217,129,196,202,157],"times":[681,1200,1000],"next_num":3,"trial_type":"ticket-choose","trial_index":111,"time_elapsed":1057790,"internal_node_id":"0.0-111.0"},{"result":119,"points":3,"place":0,"phase":1,"sequence":27,"prices":[198,119,169,141,195,233,136,208,177,217],"times":[670,1056],"next_num":2,"trial_type":"ticket-choose","trial_index":112,"time_elapsed":1061567,"internal_node_id":"0.0-112.0"},{"result":136,"points":2,"place":1,"phase":1,"sequence":28,"prices":[172,194,174,243,182,193,136,150,237,126],"times":[667,504,536,672,589,560,989],"next_num":7,"trial_type":"ticket-choose","trial_index":113,"time_elapsed":1069128,"internal_node_id":"0.0-113.0"},{"result":127,"points":3,"place":0,"phase":1,"sequence":29,"prices":[173,194,136,239,182,200,174,150,236,127],"times":[1821,535,522,506,592,742,551,871,575,927],"next_num":10,"trial_type":"ticket-choose","trial_index":114,"time_elapsed":1080472,"internal_node_id":"0.0-114.0"},{"result":162,"points":1,"place":3,"phase":1,"sequence":30,"prices":[197,153,181,215,150,155,164,247,177,162],"times":[524,488,559,568,517,528,662,566,598,840],"next_num":11,"trial_type":"ticket-choose","trial_index":115,"time_elapsed":1090217,"internal_node_id":"0.0-115.0"},{"result":129,"points":2,"place":1,"phase":1,"sequence":31,"prices":[155,129,164,189,210,108,187,241,174,275],"times":[1309,998],"next_num":2,"trial_type":"ticket-choose","trial_index":116,"time_elapsed":1094650,"internal_node_id":"0.0-116.0"},{"result":124,"points":3,"place":0,"phase":1,"sequence":32,"prices":[216,206,158,145,224,185,124,149,175,162],"times":[606,542,608,685,597,615,1007],"next_num":7,"trial_type":"ticket-choose","trial_index":117,"time_elapsed":1102427,"internal_node_id":"0.0-117.0"},{"result":158,"points":1,"place":2,"phase":1,"sequence":33,"prices":[169,194,154,271,178,201,176,158,236,127],"times":[653,599,911,548,479,639,575,2072],"next_num":8,"trial_type":"ticket-choose","trial_index":118,"time_elapsed":1112052,"internal_node_id":"0.0-118.0"},{"result":146,"points":2,"place":1,"phase":1,"sequence":34,"prices":[173,191,146,242,178,194,172,152,126,235],"times":[621,559,1031],"next_num":3,"trial_type":"ticket-choose","trial_index":119,"time_elapsed":1116508,"internal_node_id":"0.0-119.0"},{"result":188,"points":1,"place":4,"phase":1,"sequence":35,"prices":[142,207,171,182,190,269,180,218,256,188],"times":[453,583,448,527,517,646,623,569,534,737],"next_num":11,"trial_type":"ticket-choose","trial_index":120,"time_elapsed":1126302,"internal_node_id":"0.0-120.0"},{"result":136,"points":3,"place":0,"phase":1,"sequence":36,"prices":[240,188,273,207,250,136,217,170,171,236],"times":[1010,680,544,773,567,984],"next_num":6,"trial_type":"ticket-choose","trial_index":121,"time_elapsed":1133655,"internal_node_id":"0.0-121.0"},{"result":124,"points":3,"place":0,"phase":1,"sequence":37,"prices":[219,183,227,124,176,161,140,129,171,201],"times":[444,678,534,936],"next_num":4,"trial_type":"ticket-choose","trial_index":122,"time_elapsed":1138606,"internal_node_id":"0.0-122.0"},{"result":149,"points":3,"place":0,"phase":1,"sequence":38,"prices":[244,203,196,189,154,206,197,149,171,159],"times":[661,592,640,583,560,678,543,1039],"next_num":8,"trial_type":"ticket-choose","trial_index":123,"time_elapsed":1147103,"internal_node_id":"0.0-123.0"},{"result":146,"points":2,"place":1,"phase":1,"sequence":39,"prices":[170,193,146,268,178,195,172,149,126,241],"times":[769,511,902],"next_num":3,"trial_type":"ticket-choose","trial_index":124,"time_elapsed":1151368,"internal_node_id":"0.0-124.0"},{"result":136,"points":2,"place":1,"phase":1,"sequence":40,"prices":[173,191,174,270,180,193,136,153,239,129],"times":[455,534,560,510,577,550,969],"next_num":7,"trial_type":"ticket-choose","trial_index":125,"time_elapsed":1158635,"internal_node_id":"0.0-125.0"},{"result":172,"points":1,"place":4,"phase":1,"sequence":41,"prices":[135,202,150,169,183,225,160,211,220,172],"times":[826,1025,573,488,695,549,551,624,710,617],"next_num":11,"trial_type":"ticket-choose","trial_index":126,"time_elapsed":1169460,"internal_node_id":"0.0-126.0"},{"result":133,"points":3,"place":0,"phase":1,"sequence":42,"prices":[168,192,154,237,182,196,176,156,235,133],"times":[685,535,912,558,670,576,581,981,680,1095],"next_num":10,"trial_type":"ticket-choose","trial_index":127,"time_elapsed":1180594,"internal_node_id":"0.0-127.0"},{"result":136,"points":2,"place":1,"phase":1,"sequence":43,"prices":[171,192,136,265,180,194,174,152,239,127],"times":[915,767,912],"next_num":3,"trial_type":"ticket-choose","trial_index":128,"time_elapsed":1185668,"internal_node_id":"0.0-128.0"},{"result":192,"points":1,"place":4,"phase":1,"sequence":44,"prices":[157,205,161,175,197,254,165,210,214,192],"times":[822,695,1813,554,546,864,743,591,631,2144],"next_num":10,"trial_type":"ticket-choose","trial_index":129,"time_elapsed":1198902,"internal_node_id":"0.0-129.0"},{"result":146,"points":2,"place":1,"phase":1,"sequence":45,"prices":[169,193,146,237,180,196,172,150,129,236],"times":[948,592,957],"next_num":3,"trial_type":"ticket-choose","trial_index":130,"time_elapsed":1203583,"internal_node_id":"0.0-130.0"},{"result":154,"points":2,"place":1,"phase":1,"sequence":46,"prices":[169,192,176,244,178,194,154,159,237,125],"times":[451,624,550,552,534,551,1032],"next_num":7,"trial_type":"ticket-choose","trial_index":131,"time_elapsed":1211033,"internal_node_id":"0.0-131.0"},{"result":138,"points":1,"place":2,"phase":1,"sequence":47,"prices":[181,138,118,170,190,101,146,169,175,233],"times":[459,935],"next_num":2,"trial_type":"ticket-choose","trial_index":132,"time_elapsed":1214433,"internal_node_id":"0.0-132.0"},{"result":105,"points":3,"place":0,"phase":1,"sequence":48,"prices":[263,165,224,214,105,230,215,185,177,193],"times":[869,708,546,593,967],"next_num":5,"trial_type":"ticket-choose","trial_index":133,"time_elapsed":1220871,"internal_node_id":"0.0-133.0"},{"result":136,"points":2,"place":1,"phase":1,"sequence":49,"prices":[172,190,136,270,179,192,174,152,237,129],"times":[685,644,1784],"next_num":3,"trial_type":"ticket-choose","trial_index":134,"time_elapsed":1226343,"internal_node_id":"0.0-134.0"},{"responses":[{"value":0,"offby":-1,"category":"$90 - $120","category_index":0},{"value":0,"offby":-3,"category":"$121 - $145","category_index":1},{"value":2,"offby":-1,"category":"$146 - $170","category_index":2},{"value":4,"offby":-2,"category":"$171 - $195","category_index":3},{"value":3,"offby":-1,"category":"$196 - $220","category_index":4},{"value":1,"offby":-1,"category":"$221 - $245","category_index":5},{"value":0,"offby":-1,"category":"$246 - $270","category_index":6}],"phase":1,"number":1,"trial_type":"bar-choose","trial_index":135,"time_elapsed":1250975,"internal_node_id":"0.0-135.0"},{"special_comment":"","trial_type":"special_sequence","trial_index":136,"time_elapsed":1256808,"internal_node_id":"0.0-136.0"},{"during":"Nothing","bonus":276,"trial_type":"final","trial_index":137,"time_elapsed":1283158,"internal_node_id":"0.0-137.0"}],"bonus":276}