{"start_time":"2017-03-01 09:57:26","end_time":"2017-03-01 10:16:48","points_phase0":99,"points_phase1":111,"phase_order":0,"age":24,"gender":"f","tries":1,"during":"Nothing","worker_id":"A1J8TVICSRC70W","assignment_id":"3YZ8UPK3VUFTIWH4CNKVIX6073UUCD","data":[{"rt":2648,"url":"\/tickets\/utils\/consent.html","trial_type":"html","trial_index":0,"time_elapsed":2744,"internal_node_id":"0.0-0.0"},{"age":24,"gender":"f","trial_type":"age","trial_index":1,"time_elapsed":6695,"internal_node_id":"0.0-1.0"},{"worker_id":"A1J8TVICSRC70W","trial_type":"workerid","trial_index":2,"time_elapsed":23003,"internal_node_id":"0.0-2.0"},{"tries":1,"trial_type":"instructions_check","trial_index":3,"time_elapsed":28467,"internal_node_id":"0.0-3.0"},{"rt":1441,"url":"\/tickets\/utils\/start.html","trial_type":"html","trial_index":4,"time_elapsed":31025,"internal_node_id":"0.0-4.0"},{"trial_type":"number-animation","trial_index":5,"time_elapsed":40986,"internal_node_id":"0.0-5.0"},{"phase":0,"sequence":0,"avg":162,"response":149,"trial_type":"training_avg","trial_index":6,"time_elapsed":47262,"internal_node_id":"0.0-6.0"},{"trial_type":"number-animation","trial_index":7,"time_elapsed":56244,"internal_node_id":"0.0-7.0"},{"phase":0,"sequence":1,"avg":158,"response":160,"trial_type":"training_avg","trial_index":8,"time_elapsed":63089,"internal_node_id":"0.0-8.0"},{"trial_type":"number-animation","trial_index":9,"time_elapsed":80242,"internal_node_id":"0.0-9.0"},{"phase":0,"sequence":2,"avg":166,"response":176,"trial_type":"training_avg","trial_index":10,"time_elapsed":85144,"internal_node_id":"0.0-10.0"},{"trial_type":"number-animation","trial_index":11,"time_elapsed":101382,"internal_node_id":"0.0-11.0"},{"phase":0,"sequence":3,"avg":153,"response":162,"trial_type":"training_avg","trial_index":12,"time_elapsed":108197,"internal_node_id":"0.0-12.0"},{"trial_type":"number-animation","trial_index":13,"time_elapsed":124422,"internal_node_id":"0.0-13.0"},{"phase":0,"sequence":4,"avg":164,"response":155,"trial_type":"training_avg","trial_index":14,"time_elapsed":130233,"internal_node_id":"0.0-14.0"},{"responses":[{"value":1,"offby":1,"category":"$105 - $120","category_index":0},{"value":2,"offby":1,"category":"$121 - $135","category_index":1},{"value":5,"offby":2,"category":"$136 - $150","category_index":2},{"value":6,"offby":-1,"category":"$151 - $165","category_index":3},{"value":5,"offby":-1,"category":"$166 - $180","category_index":4},{"value":1,"offby":-2,"category":"$181 - $195","category_index":5},{"value":0,"offby":0,"category":"$196 - $210","category_index":6}],"phase":0,"number":0,"trial_type":"bar-choose","trial_index":15,"time_elapsed":178718,"internal_node_id":"0.0-15.0"},{"rt":9835,"url":"\/tickets\/\/utils\/testing.html","trial_type":"html","trial_index":16,"time_elapsed":189672,"internal_node_id":"0.0-16.0"},{"phase":0,"order":[33,26,40,8,18,1,13,47,45,17,12,21,23,48,10,19,34,11,2,43,6,37,25,36,35,20,27,22,44,5,7,9,29,39,30,42,32,0,24,14,28,38,46,41,4,49,16,31,15,3],"trial_type":"store_order","trial_index":17,"time_elapsed":190682,"internal_node_id":"0.0-17.0"},{"result":165,"points":2,"place":1,"phase":0,"sequence":-1,"prices":[184,180,224,165,181,199,185,193,218,126],"times":[1651,549,607,992],"next_num":4,"trial_type":"ticket-choose","trial_index":18,"time_elapsed":197281,"internal_node_id":"0.0-18.0"},{"rt":13230,"url":"\/tickets\/utils\/testing_after.html","trial_type":"html","trial_index":19,"time_elapsed":211627,"internal_node_id":"0.0-19.0"},{"result":139,"points":3,"place":0,"phase":0,"sequence":0,"prices":[139,163,146,148,153,185,147,167,171,150],"times":[2514],"next_num":1,"trial_type":"ticket-choose","trial_index":20,"time_elapsed":216727,"internal_node_id":"0.0-20.0"},{"result":132,"points":3,"place":0,"phase":0,"sequence":1,"prices":[132,180,138,153,162,187,141,182,184,160],"times":[1034],"next_num":1,"trial_type":"ticket-choose","trial_index":21,"time_elapsed":219935,"internal_node_id":"0.0-21.0"},{"result":130,"points":3,"place":0,"phase":0,"sequence":2,"prices":[169,130,155,140,168,187,138,174,158,179],"times":[840,861],"next_num":2,"trial_type":"ticket-choose","trial_index":22,"time_elapsed":224142,"internal_node_id":"0.0-22.0"},{"result":147,"points":2,"place":1,"phase":0,"sequence":3,"prices":[154,166,147,205,161,168,158,148,188,136],"times":[1447,765,839],"next_num":3,"trial_type":"ticket-choose","trial_index":23,"time_elapsed":230268,"internal_node_id":"0.0-23.0"},{"result":138,"points":2,"place":1,"phase":0,"sequence":4,"prices":[156,167,138,205,161,167,157,145,188,133],"times":[12077,566,769],"next_num":3,"trial_type":"ticket-choose","trial_index":24,"time_elapsed":246025,"internal_node_id":"0.0-24.0"},{"result":145,"points":1,"place":2,"phase":0,"sequence":5,"prices":[155,167,143,206,160,168,156,145,134,188],"times":[959,533,1397,537,572,618,1196,722],"next_num":8,"trial_type":"ticket-choose","trial_index":25,"time_elapsed":256085,"internal_node_id":"0.0-25.0"},{"result":147,"points":2,"place":1,"phase":0,"sequence":6,"prices":[155,165,158,204,161,166,147,148,188,136],"times":[6335,562,614,525,593,693,852],"next_num":7,"trial_type":"ticket-choose","trial_index":26,"time_elapsed":269367,"internal_node_id":"0.0-26.0"},{"result":140,"points":1,"place":2,"phase":0,"sequence":7,"prices":[180,161,183,132,155,151,140,134,156,171],"times":[1333,447,458,476,1122,533,733],"next_num":7,"trial_type":"ticket-choose","trial_index":27,"time_elapsed":277606,"internal_node_id":"0.0-27.0"},{"result":144,"points":3,"place":0,"phase":0,"sequence":8,"prices":[192,172,168,164,147,173,169,144,156,150],"times":[15153,649,1143,846,946,708,802,980],"next_num":8,"trial_type":"ticket-choose","trial_index":28,"time_elapsed":302239,"internal_node_id":"0.0-28.0"},{"result":138,"points":2,"place":1,"phase":0,"sequence":9,"prices":[155,166,138,203,161,168,157,147,188,134],"times":[8136,430,1258],"next_num":3,"trial_type":"ticket-choose","trial_index":29,"time_elapsed":314351,"internal_node_id":"0.0-29.0"},{"result":147,"points":2,"place":1,"phase":0,"sequence":10,"prices":[154,166,158,205,161,168,147,148,188,136],"times":[767,429,578,514,465,533,980],"next_num":7,"trial_type":"ticket-choose","trial_index":30,"time_elapsed":321654,"internal_node_id":"0.0-30.0"},{"result":138,"points":2,"place":1,"phase":0,"sequence":11,"prices":[155,166,157,203,161,168,138,147,188,134],"times":[18412,708,532,488,745,538,1074],"next_num":7,"trial_type":"ticket-choose","trial_index":31,"time_elapsed":347259,"internal_node_id":"0.0-31.0"},{"result":138,"points":2,"place":1,"phase":0,"sequence":12,"prices":[156,165,157,205,160,166,138,146,189,134],"times":[860,462,375,451,629,478,893],"next_num":7,"trial_type":"ticket-choose","trial_index":32,"time_elapsed":354420,"internal_node_id":"0.0-32.0"},{"result":149,"points":2,"place":1,"phase":0,"sequence":13,"prices":[161,195,149,127,162,173,157,164,156,159],"times":[4368,463,979],"next_num":3,"trial_type":"ticket-choose","trial_index":33,"time_elapsed":362523,"internal_node_id":"0.0-33.0"},{"result":149,"points":1,"place":2,"phase":0,"sequence":14,"prices":[155,166,147,205,159,167,158,149,189,133],"times":[734,428,916,500,598,490,588,1124],"next_num":8,"trial_type":"ticket-choose","trial_index":34,"time_elapsed":371331,"internal_node_id":"0.0-34.0"},{"result":138,"points":2,"place":1,"phase":0,"sequence":15,"prices":[156,165,138,205,160,166,157,146,189,134],"times":[2191,738,779],"next_num":3,"trial_type":"ticket-choose","trial_index":35,"time_elapsed":377187,"internal_node_id":"0.0-35.0"},{"result":135,"points":2,"place":1,"phase":0,"sequence":16,"prices":[161,135,128,141,148,167,152,179,156,174],"times":[747,711],"next_num":2,"trial_type":"ticket-choose","trial_index":36,"time_elapsed":380612,"internal_node_id":"0.0-36.0"},{"result":133,"points":3,"place":0,"phase":0,"sequence":17,"prices":[155,167,147,205,159,167,158,149,188,133],"times":[749,524,571,692,608,457,644,1290,530,529],"next_num":10,"trial_type":"ticket-choose","trial_index":37,"time_elapsed":391021,"internal_node_id":"0.0-37.0"},{"result":143,"points":2,"place":1,"phase":0,"sequence":18,"prices":[154,166,143,205,161,167,156,146,133,189],"times":[8043,451,1078],"next_num":3,"trial_type":"ticket-choose","trial_index":38,"time_elapsed":402829,"internal_node_id":"0.0-38.0"},{"result":137,"points":3,"place":0,"phase":0,"sequence":19,"prices":[181,167,137,164,178,159,168,165,158,150],"times":[676,529,643],"next_num":3,"trial_type":"ticket-choose","trial_index":39,"time_elapsed":406774,"internal_node_id":"0.0-39.0"},{"result":143,"points":2,"place":1,"phase":0,"sequence":20,"prices":[154,166,156,205,161,167,143,146,133,189],"times":[826,454,499,501,523,445,777],"next_num":7,"trial_type":"ticket-choose","trial_index":40,"time_elapsed":413806,"internal_node_id":"0.0-40.0"},{"result":149,"points":1,"place":3,"phase":0,"sequence":21,"prices":[178,173,149,143,182,162,132,144,157,151],"times":[4433,593,939],"next_num":3,"trial_type":"ticket-choose","trial_index":41,"time_elapsed":421989,"internal_node_id":"0.0-41.0"},{"result":159,"points":1,"place":4,"phase":0,"sequence":22,"prices":[136,181,142,146,165,194,145,182,184,159],"times":[867,449,427,484,445,488,502,615,576,610],"next_num":10,"trial_type":"ticket-choose","trial_index":42,"time_elapsed":431677,"internal_node_id":"0.0-42.0"},{"result":145,"points":2,"place":1,"phase":0,"sequence":23,"prices":[168,180,145,152,178,154,157,134,157,160],"times":[14221,565,1055],"next_num":3,"trial_type":"ticket-choose","trial_index":43,"time_elapsed":449681,"internal_node_id":"0.0-43.0"},{"result":134,"points":2,"place":1,"phase":0,"sequence":24,"prices":[148,134,152,165,175,124,164,191,157,207],"times":[625,1086],"next_num":2,"trial_type":"ticket-choose","trial_index":44,"time_elapsed":453352,"internal_node_id":"0.0-44.0"},{"result":138,"points":2,"place":1,"phase":0,"sequence":25,"prices":[155,166,157,203,160,167,138,146,189,133],"times":[638,448,381,514,424,418,821],"next_num":7,"trial_type":"ticket-choose","trial_index":45,"time_elapsed":459985,"internal_node_id":"0.0-45.0"},{"result":148,"points":3,"place":0,"phase":0,"sequence":26,"prices":[148,172,151,158,168,197,152,175,177,166],"times":[4761],"next_num":1,"trial_type":"ticket-choose","trial_index":46,"time_elapsed":466625,"internal_node_id":"0.0-46.0"},{"result":138,"points":2,"place":1,"phase":0,"sequence":27,"prices":[156,167,157,205,161,167,138,145,188,133],"times":[812,447,564,640,466,581,1149],"next_num":7,"trial_type":"ticket-choose","trial_index":47,"time_elapsed":474848,"internal_node_id":"0.0-47.0"},{"result":139,"points":1,"place":2,"phase":0,"sequence":28,"prices":[160,139,129,155,165,121,143,154,158,187],"times":[951,856],"next_num":2,"trial_type":"ticket-choose","trial_index":48,"time_elapsed":478616,"internal_node_id":"0.0-48.0"},{"result":143,"points":2,"place":1,"phase":0,"sequence":29,"prices":[155,167,156,206,160,168,143,145,134,188],"times":[1092,520,528,552,625,551,834],"next_num":7,"trial_type":"ticket-choose","trial_index":49,"time_elapsed":486312,"internal_node_id":"0.0-49.0"},{"result":143,"points":2,"place":1,"phase":0,"sequence":30,"prices":[155,166,156,204,159,167,143,145,133,190],"times":[816,653,654,490,551,535,967],"next_num":7,"trial_type":"ticket-choose","trial_index":50,"time_elapsed":494064,"internal_node_id":"0.0-50.0"},{"result":148,"points":1,"place":2,"phase":0,"sequence":31,"prices":[155,165,147,204,161,166,158,148,188,136],"times":[781,555,727,555,406,452,1203,813],"next_num":8,"trial_type":"ticket-choose","trial_index":51,"time_elapsed":502689,"internal_node_id":"0.0-51.0"},{"result":130,"points":3,"place":0,"phase":0,"sequence":32,"prices":[130,165,134,141,153,179,135,168,171,148],"times":[914],"next_num":1,"trial_type":"ticket-choose","trial_index":52,"time_elapsed":505584,"internal_node_id":"0.0-52.0"},{"result":147,"points":2,"place":1,"phase":0,"sequence":33,"prices":[169,147,160,177,145,148,152,193,158,151],"times":[1248,1081],"next_num":2,"trial_type":"ticket-choose","trial_index":53,"time_elapsed":509965,"internal_node_id":"0.0-53.0"},{"result":137,"points":3,"place":0,"phase":0,"sequence":34,"prices":[137,171,145,155,162,183,150,175,180,156],"times":[2202],"next_num":1,"trial_type":"ticket-choose","trial_index":54,"time_elapsed":514300,"internal_node_id":"0.0-54.0"},{"result":123,"points":3,"place":0,"phase":0,"sequence":35,"prices":[202,153,182,177,123,185,178,163,158,166],"times":[954,717,606,533,1276],"next_num":5,"trial_type":"ticket-choose","trial_index":55,"time_elapsed":521508,"internal_node_id":"0.0-55.0"},{"result":154,"points":1,"place":2,"phase":0,"sequence":36,"prices":[141,173,147,167,170,204,154,174,175,168],"times":[1175,548,581,643,584,489,940],"next_num":7,"trial_type":"ticket-choose","trial_index":56,"time_elapsed":529685,"internal_node_id":"0.0-56.0"},{"result":143,"points":2,"place":1,"phase":0,"sequence":37,"prices":[156,166,143,206,159,167,156,146,133,188],"times":[853,871,949],"next_num":3,"trial_type":"ticket-choose","trial_index":57,"time_elapsed":534620,"internal_node_id":"0.0-57.0"},{"result":164,"points":1,"place":4,"phase":0,"sequence":38,"prices":[141,173,155,161,165,204,160,179,198,164],"times":[852,694,959,869,536,554,609,648,557,851],"next_num":10,"trial_type":"ticket-choose","trial_index":58,"time_elapsed":545581,"internal_node_id":"0.0-58.0"},{"result":147,"points":2,"place":1,"phase":0,"sequence":39,"prices":[155,166,158,205,159,167,147,149,189,133],"times":[1378,727,856,549,986,529,792],"next_num":7,"trial_type":"ticket-choose","trial_index":59,"time_elapsed":554452,"internal_node_id":"0.0-59.0"},{"result":165,"points":1,"place":4,"phase":0,"sequence":40,"prices":[149,176,150,164,167,191,151,181,182,165],"times":[1026,496,494,458,480,544,988,626,592,845],"next_num":10,"trial_type":"ticket-choose","trial_index":60,"time_elapsed":564773,"internal_node_id":"0.0-60.0"},{"result":148,"points":1,"place":2,"phase":0,"sequence":41,"prices":[148,179,176,178,165,175,207,143,157,146],"times":[1033],"next_num":1,"trial_type":"ticket-choose","trial_index":61,"time_elapsed":567556,"internal_node_id":"0.0-61.0"},{"result":138,"points":3,"place":0,"phase":0,"sequence":42,"prices":[190,164,206,173,195,138,179,155,156,188],"times":[765,588,535,570,567,1061],"next_num":6,"trial_type":"ticket-choose","trial_index":62,"time_elapsed":574553,"internal_node_id":"0.0-62.0"},{"result":138,"points":1,"place":3,"phase":0,"sequence":43,"prices":[181,187,135,138,136,145,147,115,158,157],"times":[803,566,461,1354],"next_num":4,"trial_type":"ticket-choose","trial_index":63,"time_elapsed":580251,"internal_node_id":"0.0-63.0"},{"result":143,"points":2,"place":1,"phase":0,"sequence":44,"prices":[156,166,156,206,159,167,143,146,133,188],"times":[631,391,303,469,587,479,946],"next_num":7,"trial_type":"ticket-choose","trial_index":64,"time_elapsed":587114,"internal_node_id":"0.0-64.0"},{"result":143,"points":1,"place":2,"phase":0,"sequence":45,"prices":[163,143,165,160,146,128,140,166,156,164],"times":[614,767],"next_num":2,"trial_type":"ticket-choose","trial_index":65,"time_elapsed":590466,"internal_node_id":"0.0-65.0"},{"result":138,"points":2,"place":1,"phase":0,"sequence":46,"prices":[155,166,138,203,160,167,157,146,189,133],"times":[713,524,805],"next_num":3,"trial_type":"ticket-choose","trial_index":66,"time_elapsed":594722,"internal_node_id":"0.0-66.0"},{"result":128,"points":3,"place":0,"phase":0,"sequence":47,"prices":[128,151,130,143,147,200,142,166,167,145],"times":[935],"next_num":1,"trial_type":"ticket-choose","trial_index":67,"time_elapsed":597667,"internal_node_id":"0.0-67.0"},{"result":147,"points":2,"place":1,"phase":0,"sequence":48,"prices":[155,167,158,205,159,167,147,149,188,133],"times":[1110,554,580,542,634,555,1809],"next_num":7,"trial_type":"ticket-choose","trial_index":68,"time_elapsed":606571,"internal_node_id":"0.0-68.0"},{"result":143,"points":2,"place":1,"phase":0,"sequence":49,"prices":[155,166,143,204,159,167,156,145,133,190],"times":[789,952,1162],"next_num":3,"trial_type":"ticket-choose","trial_index":69,"time_elapsed":611738,"internal_node_id":"0.0-69.0"},{"responses":[{"value":0,"offby":0,"category":"$105 - $120","category_index":0},{"value":1,"offby":0,"category":"$121 - $135","category_index":1},{"value":4,"offby":1,"category":"$136 - $150","category_index":2},{"value":6,"offby":-1,"category":"$151 - $165","category_index":3},{"value":5,"offby":-1,"category":"$166 - $180","category_index":4},{"value":3,"offby":0,"category":"$181 - $195","category_index":5},{"value":1,"offby":1,"category":"$196 - $210","category_index":6}],"phase":0,"number":1,"trial_type":"bar-choose","trial_index":70,"time_elapsed":649866,"internal_node_id":"0.0-70.0"},{"rt":3417,"url":"\/tickets\/utils\/start2.html","trial_type":"html","trial_index":71,"time_elapsed":654394,"internal_node_id":"0.0-71.0"},{"trial_type":"number-animation","trial_index":72,"time_elapsed":661108,"internal_node_id":"0.0-72.0"},{"phase":1,"sequence":0,"avg":188,"response":190,"trial_type":"training_avg","trial_index":73,"time_elapsed":666035,"internal_node_id":"0.0-73.0"},{"trial_type":"number-animation","trial_index":74,"time_elapsed":673485,"internal_node_id":"0.0-74.0"},{"phase":1,"sequence":1,"avg":202,"response":203,"trial_type":"training_avg","trial_index":75,"time_elapsed":683357,"internal_node_id":"0.0-75.0"},{"trial_type":"number-animation","trial_index":76,"time_elapsed":690150,"internal_node_id":"0.0-76.0"},{"phase":1,"sequence":2,"avg":200,"response":201,"trial_type":"training_avg","trial_index":77,"time_elapsed":694135,"internal_node_id":"0.0-77.0"},{"trial_type":"number-animation","trial_index":78,"time_elapsed":700102,"internal_node_id":"0.0-78.0"},{"phase":1,"sequence":3,"avg":209,"response":205,"trial_type":"training_avg","trial_index":79,"time_elapsed":706879,"internal_node_id":"0.0-79.0"},{"trial_type":"number-animation","trial_index":80,"time_elapsed":713589,"internal_node_id":"0.0-80.0"},{"phase":1,"sequence":4,"avg":195,"response":190,"trial_type":"training_avg","trial_index":81,"time_elapsed":719271,"internal_node_id":"0.0-81.0"},{"responses":[{"value":0,"offby":0,"category":"$145 - $160","category_index":0},{"value":0,"offby":-1,"category":"$161 - $175","category_index":1},{"value":2,"offby":-1,"category":"$176 - $190","category_index":2},{"value":5,"offby":-2,"category":"$191 - $205","category_index":3},{"value":7,"offby":1,"category":"$206 - $220","category_index":4},{"value":4,"offby":1,"category":"$221 - $235","category_index":5},{"value":2,"offby":2,"category":"$226 - $260","category_index":6}],"phase":1,"number":0,"trial_type":"bar-choose","trial_index":82,"time_elapsed":738354,"internal_node_id":"0.0-82.0"},{"rt":3410,"url":"\/tickets\/utils\/testing2.html","trial_type":"html","trial_index":83,"time_elapsed":745905,"internal_node_id":"0.0-83.0"},{"phase":1,"order":[10,41,21,43,0,45,7,46,6,32,27,33,5,9,19,26,40,17,35,28,39,25,1,4,16,47,23,15,11,37,14,29,49,38,13,24,44,34,2,42,3,30,20,8,22,36,18,31,48,12],"trial_type":"store_order","trial_index":84,"time_elapsed":747529,"internal_node_id":"0.0-84.0"},{"result":187,"points":2,"place":1,"phase":1,"sequence":0,"prices":[195,206,187,245,199,207,198,189,229,173],"times":[1034,760,1283],"next_num":3,"trial_type":"ticket-choose","trial_index":85,"time_elapsed":753131,"internal_node_id":"0.0-85.0"},{"result":175,"points":2,"place":1,"phase":1,"sequence":1,"prices":[221,227,175,178,176,185,187,155,198,197],"times":[796,486,1408],"next_num":3,"trial_type":"ticket-choose","trial_index":86,"time_elapsed":758066,"internal_node_id":"0.0-86.0"},{"result":178,"points":2,"place":1,"phase":1,"sequence":2,"prices":[195,206,197,243,201,208,178,187,228,174],"times":[678,507,690,549,881,532,861],"next_num":7,"trial_type":"ticket-choose","trial_index":87,"time_elapsed":765827,"internal_node_id":"0.0-87.0"},{"result":177,"points":3,"place":0,"phase":1,"sequence":3,"prices":[221,207,177,204,218,199,208,205,198,190],"times":[822,481,796],"next_num":3,"trial_type":"ticket-choose","trial_index":88,"time_elapsed":770101,"internal_node_id":"0.0-88.0"},{"result":173,"points":3,"place":0,"phase":1,"sequence":4,"prices":[196,206,183,246,199,207,196,186,173,228],"times":[891,638,609,528,641,534,695,726,791],"next_num":9,"trial_type":"ticket-choose","trial_index":89,"time_elapsed":779506,"internal_node_id":"0.0-89.0"},{"result":187,"points":2,"place":1,"phase":1,"sequence":5,"prices":[232,212,208,204,187,213,209,184,196,190],"times":[655,537,489,485,783],"next_num":5,"trial_type":"ticket-choose","trial_index":90,"time_elapsed":784946,"internal_node_id":"0.0-90.0"},{"result":183,"points":2,"place":1,"phase":1,"sequence":6,"prices":[195,206,196,244,199,207,183,185,173,230],"times":[738,568,600,607,1700,756,738],"next_num":7,"trial_type":"ticket-choose","trial_index":91,"time_elapsed":793714,"internal_node_id":"0.0-91.0"},{"result":178,"points":3,"place":0,"phase":1,"sequence":7,"prices":[230,204,246,213,235,178,219,195,196,228],"times":[849,487,555,549,516,1104],"next_num":6,"trial_type":"ticket-choose","trial_index":92,"time_elapsed":800602,"internal_node_id":"0.0-92.0"},{"result":186,"points":1,"place":2,"phase":1,"sequence":8,"prices":[194,206,196,245,201,207,183,186,173,229],"times":[796,543,584,468,538,522,548,901],"next_num":8,"trial_type":"ticket-choose","trial_index":93,"time_elapsed":808805,"internal_node_id":"0.0-93.0"},{"result":181,"points":3,"place":0,"phase":1,"sequence":9,"prices":[181,213,187,207,210,244,194,214,215,208],"times":[1763],"next_num":1,"trial_type":"ticket-choose","trial_index":94,"time_elapsed":812303,"internal_node_id":"0.0-94.0"},{"result":188,"points":3,"place":0,"phase":1,"sequence":10,"prices":[188,212,191,198,208,237,192,215,217,206],"times":[1448],"next_num":1,"trial_type":"ticket-choose","trial_index":95,"time_elapsed":815589,"internal_node_id":"0.0-95.0"},{"result":179,"points":3,"place":0,"phase":1,"sequence":11,"prices":[179,203,186,188,193,225,187,207,211,190],"times":[617],"next_num":1,"trial_type":"ticket-choose","trial_index":96,"time_elapsed":817918,"internal_node_id":"0.0-96.0"},{"result":183,"points":2,"place":1,"phase":1,"sequence":12,"prices":[195,207,196,246,200,208,183,185,174,228],"times":[1000,492,420,450,471,507,882],"next_num":7,"trial_type":"ticket-choose","trial_index":97,"time_elapsed":825126,"internal_node_id":"0.0-97.0"},{"result":187,"points":2,"place":1,"phase":1,"sequence":13,"prices":[195,205,187,244,201,206,198,188,228,176],"times":[1043,431,786],"next_num":3,"trial_type":"ticket-choose","trial_index":98,"time_elapsed":829614,"internal_node_id":"0.0-98.0"},{"result":178,"points":2,"place":1,"phase":1,"sequence":14,"prices":[196,205,178,245,200,206,197,186,229,174],"times":[806,426,794],"next_num":3,"trial_type":"ticket-choose","trial_index":99,"time_elapsed":833718,"internal_node_id":"0.0-99.0"},{"result":172,"points":3,"place":0,"phase":1,"sequence":15,"prices":[172,220,178,193,202,227,181,222,224,200],"times":[890],"next_num":1,"trial_type":"ticket-choose","trial_index":100,"time_elapsed":836381,"internal_node_id":"0.0-100.0"},{"result":170,"points":3,"place":0,"phase":1,"sequence":16,"prices":[209,170,195,180,208,227,178,214,198,219],"times":[614,675],"next_num":2,"trial_type":"ticket-choose","trial_index":101,"time_elapsed":839516,"internal_node_id":"0.0-101.0"},{"result":178,"points":2,"place":1,"phase":1,"sequence":17,"prices":[195,206,178,243,201,208,197,187,228,174],"times":[723,501,765],"next_num":3,"trial_type":"ticket-choose","trial_index":102,"time_elapsed":843605,"internal_node_id":"0.0-102.0"},{"result":164,"points":3,"place":0,"phase":1,"sequence":18,"prices":[188,174,192,205,215,164,204,231,197,247],"times":[966,866,106447,454,450,829],"next_num":6,"trial_type":"ticket-choose","trial_index":103,"time_elapsed":956605,"internal_node_id":"0.0-103.0"},{"result":205,"points":1,"place":4,"phase":1,"sequence":19,"prices":[189,216,190,204,207,231,191,221,222,205],"times":[5100,460,489,415,413,448,536,459,461,730],"next_num":10,"trial_type":"ticket-choose","trial_index":104,"time_elapsed":969893,"internal_node_id":"0.0-104.0"},{"result":187,"points":2,"place":1,"phase":1,"sequence":20,"prices":[209,187,200,217,185,188,192,233,198,191],"times":[718,643],"next_num":2,"trial_type":"ticket-choose","trial_index":105,"time_elapsed":973125,"internal_node_id":"0.0-105.0"},{"result":176,"points":3,"place":0,"phase":1,"sequence":21,"prices":[176,221,182,186,205,234,185,222,224,199],"times":[748],"next_num":1,"trial_type":"ticket-choose","trial_index":106,"time_elapsed":975519,"internal_node_id":"0.0-106.0"},{"result":183,"points":2,"place":1,"phase":1,"sequence":22,"prices":[195,207,183,246,200,208,196,185,174,228],"times":[649,463,629],"next_num":3,"trial_type":"ticket-choose","trial_index":107,"time_elapsed":979454,"internal_node_id":"0.0-107.0"},{"result":183,"points":2,"place":1,"phase":1,"sequence":23,"prices":[196,206,196,246,199,207,183,186,173,228],"times":[630,446,710,453,565,458,1072],"next_num":7,"trial_type":"ticket-choose","trial_index":108,"time_elapsed":986765,"internal_node_id":"0.0-108.0"},{"result":178,"points":2,"place":1,"phase":1,"sequence":24,"prices":[195,206,178,243,200,207,197,186,229,173],"times":[696,429,809],"next_num":3,"trial_type":"ticket-choose","trial_index":109,"time_elapsed":990773,"internal_node_id":"0.0-109.0"},{"result":172,"points":3,"place":0,"phase":1,"sequence":25,"prices":[220,201,223,172,195,191,180,174,196,211],"times":[604,468,521,823],"next_num":4,"trial_type":"ticket-choose","trial_index":110,"time_elapsed":995495,"internal_node_id":"0.0-110.0"},{"result":178,"points":2,"place":1,"phase":1,"sequence":26,"prices":[196,205,197,245,200,206,178,186,229,174],"times":[901,532,596,444,418,437,1240],"next_num":7,"trial_type":"ticket-choose","trial_index":111,"time_elapsed":1003053,"internal_node_id":"0.0-111.0"},{"result":187,"points":2,"place":1,"phase":1,"sequence":27,"prices":[195,207,198,245,199,207,187,189,228,173],"times":[636,436,735,553,595,443,722],"next_num":7,"trial_type":"ticket-choose","trial_index":112,"time_elapsed":1010478,"internal_node_id":"0.0-112.0"},{"result":187,"points":2,"place":1,"phase":1,"sequence":28,"prices":[195,207,187,245,199,207,198,189,228,173],"times":[741,447,692],"next_num":3,"trial_type":"ticket-choose","trial_index":113,"time_elapsed":1014383,"internal_node_id":"0.0-113.0"},{"result":183,"points":2,"place":1,"phase":1,"sequence":29,"prices":[218,213,189,183,222,202,172,184,197,191],"times":[709,444,693,834],"next_num":4,"trial_type":"ticket-choose","trial_index":114,"time_elapsed":1019277,"internal_node_id":"0.0-114.0"},{"result":173,"points":3,"place":0,"phase":1,"sequence":30,"prices":[195,206,198,245,199,207,187,189,229,173],"times":[463,404,611,451,552,452,611,429,549,530],"next_num":10,"trial_type":"ticket-choose","trial_index":115,"time_elapsed":1027845,"internal_node_id":"0.0-115.0"},{"result":170,"points":3,"place":0,"phase":1,"sequence":31,"prices":[170,205,174,181,193,219,175,208,211,188],"times":[787],"next_num":1,"trial_type":"ticket-choose","trial_index":116,"time_elapsed":1030389,"internal_node_id":"0.0-116.0"},{"result":186,"points":1,"place":3,"phase":1,"sequence":32,"prices":[203,183,205,200,186,168,180,206,196,204],"times":[481,522,471,540,728],"next_num":5,"trial_type":"ticket-choose","trial_index":117,"time_elapsed":1035661,"internal_node_id":"0.0-117.0"},{"result":183,"points":3,"place":0,"phase":1,"sequence":33,"prices":[188,219,216,218,205,215,247,183,197,186],"times":[764,441,444,427,674,588,466,798],"next_num":8,"trial_type":"ticket-choose","trial_index":118,"time_elapsed":1043469,"internal_node_id":"0.0-118.0"},{"result":187,"points":2,"place":1,"phase":1,"sequence":34,"prices":[195,205,198,244,201,206,187,188,228,176],"times":[719,440,694,465,460,451,1064],"next_num":7,"trial_type":"ticket-choose","trial_index":119,"time_elapsed":1050557,"internal_node_id":"0.0-119.0"},{"result":181,"points":3,"place":0,"phase":1,"sequence":35,"prices":[181,213,195,201,205,244,200,219,238,204],"times":[1047],"next_num":1,"trial_type":"ticket-choose","trial_index":120,"time_elapsed":1053357,"internal_node_id":"0.0-120.0"},{"result":200,"points":0,"place":7,"phase":1,"sequence":36,"prices":[200,179,169,195,205,161,183,194,198,227],"times":[546],"next_num":1,"trial_type":"ticket-choose","trial_index":121,"time_elapsed":1055997,"internal_node_id":"0.0-121.0"},{"result":175,"points":2,"place":1,"phase":1,"sequence":37,"prices":[201,175,168,181,188,207,192,219,196,214],"times":[923,1099],"next_num":2,"trial_type":"ticket-choose","trial_index":122,"time_elapsed":1059901,"internal_node_id":"0.0-122.0"},{"result":186,"points":1,"place":2,"phase":1,"sequence":38,"prices":[194,206,183,245,201,207,196,186,173,229],"times":[558,533,436,463,435,414,771,770],"next_num":8,"trial_type":"ticket-choose","trial_index":123,"time_elapsed":1067517,"internal_node_id":"0.0-123.0"},{"result":163,"points":3,"place":0,"phase":1,"sequence":39,"prices":[242,193,222,217,163,225,218,203,198,206],"times":[561,553,518,476,740],"next_num":5,"trial_type":"ticket-choose","trial_index":124,"time_elapsed":1072797,"internal_node_id":"0.0-124.0"},{"result":183,"points":2,"place":1,"phase":1,"sequence":40,"prices":[195,206,183,244,199,207,196,185,173,230],"times":[858,505,899],"next_num":3,"trial_type":"ticket-choose","trial_index":125,"time_elapsed":1077053,"internal_node_id":"0.0-125.0"},{"result":177,"points":3,"place":0,"phase":1,"sequence":41,"prices":[177,211,185,195,202,223,190,215,220,196],"times":[792],"next_num":1,"trial_type":"ticket-choose","trial_index":126,"time_elapsed":1079461,"internal_node_id":"0.0-126.0"},{"result":178,"points":2,"place":1,"phase":1,"sequence":42,"prices":[195,206,197,243,200,207,178,186,229,173],"times":[705,489,1025,466,462,463,783],"next_num":7,"trial_type":"ticket-choose","trial_index":127,"time_elapsed":1086813,"internal_node_id":"0.0-127.0"},{"result":187,"points":2,"place":1,"phase":1,"sequence":43,"prices":[194,206,187,245,201,208,198,188,228,176],"times":[686,482,933],"next_num":3,"trial_type":"ticket-choose","trial_index":128,"time_elapsed":1090925,"internal_node_id":"0.0-128.0"},{"result":178,"points":2,"place":1,"phase":1,"sequence":44,"prices":[196,207,197,245,201,207,178,185,228,173],"times":[620,483,632,440,442,490,791],"next_num":7,"trial_type":"ticket-choose","trial_index":129,"time_elapsed":1097733,"internal_node_id":"0.0-129.0"},{"result":200,"points":0,"place":6,"phase":1,"sequence":45,"prices":[208,220,185,192,218,194,197,174,197,200],"times":[555,373,406,446,409,437,623,419,498,702],"next_num":11,"trial_type":"ticket-choose","trial_index":130,"time_elapsed":1106389,"internal_node_id":"0.0-130.0"},{"result":178,"points":2,"place":1,"phase":1,"sequence":46,"prices":[196,207,178,245,201,207,197,185,228,173],"times":[615,484,888],"next_num":3,"trial_type":"ticket-choose","trial_index":131,"time_elapsed":1110389,"internal_node_id":"0.0-131.0"},{"result":168,"points":3,"place":0,"phase":1,"sequence":47,"prices":[168,191,170,183,187,240,182,206,207,185],"times":[834],"next_num":1,"trial_type":"ticket-choose","trial_index":132,"time_elapsed":1112933,"internal_node_id":"0.0-132.0"},{"result":167,"points":3,"place":0,"phase":1,"sequence":48,"prices":[201,235,189,167,202,213,197,204,196,199],"times":[602,449,637,1168],"next_num":4,"trial_type":"ticket-choose","trial_index":133,"time_elapsed":1118059,"internal_node_id":"0.0-133.0"},{"result":187,"points":2,"place":1,"phase":1,"sequence":49,"prices":[194,206,198,245,201,208,187,188,228,176],"times":[839,463,584,446,580,484,1075],"next_num":7,"trial_type":"ticket-choose","trial_index":134,"time_elapsed":1125467,"internal_node_id":"0.0-134.0"},{"responses":[{"value":0,"offby":0,"category":"$145 - $160","category_index":0},{"value":2,"offby":1,"category":"$161 - $175","category_index":1},{"value":4,"offby":1,"category":"$176 - $190","category_index":2},{"value":7,"offby":0,"category":"$191 - $205","category_index":3},{"value":4,"offby":-2,"category":"$206 - $220","category_index":4},{"value":2,"offby":-1,"category":"$221 - $235","category_index":5},{"value":1,"offby":1,"category":"$226 - $260","category_index":6}],"phase":1,"number":1,"trial_type":"bar-choose","trial_index":135,"time_elapsed":1139661,"internal_node_id":"0.0-135.0"},{"special_comment":"No","trial_type":"special_sequence","trial_index":136,"time_elapsed":1143362,"internal_node_id":"0.0-136.0"},{"during":"Nothing","bonus":280,"trial_type":"final","trial_index":137,"time_elapsed":1159454,"internal_node_id":"0.0-137.0"}],"bonus":280}