{"start_time":"2017-02-27 11:01:17","end_time":"2017-02-27 11:34:52","points_phase0":101,"points_phase1":99,"phase_order":1,"age":24,"gender":"m","tries":1,"during":"Nothing","worker_id":"A1KH1O9AZ7S642","assignment_id":"3G0WWMR1UWDKH77EK494O73N2F3QN8","data":[{"rt":8878,"url":"\/tickets\/utils\/consent.html","trial_type":"html","trial_index":0,"time_elapsed":9180,"internal_node_id":"0.0-0.0"},{"age":24,"gender":"m","trial_type":"age","trial_index":1,"time_elapsed":13124,"internal_node_id":"0.0-1.0"},{"worker_id":"A1KH1O9AZ7S642","trial_type":"workerid","trial_index":2,"time_elapsed":44853,"internal_node_id":"0.0-2.0"},{"tries":1,"trial_type":"instructions_check","trial_index":3,"time_elapsed":81338,"internal_node_id":"0.0-3.0"},{"rt":12275,"url":"\/tickets\/utils\/start.html","trial_type":"html","trial_index":4,"time_elapsed":94847,"internal_node_id":"0.0-4.0"},{"trial_type":"number-animation","trial_index":5,"time_elapsed":173244,"internal_node_id":"0.0-5.0"},{"phase":0,"sequence":0,"avg":166,"response":166,"trial_type":"training_avg","trial_index":6,"time_elapsed":203712,"internal_node_id":"0.0-6.0"},{"trial_type":"number-animation","trial_index":7,"time_elapsed":256462,"internal_node_id":"0.0-7.0"},{"phase":0,"sequence":1,"avg":198,"response":198,"trial_type":"training_avg","trial_index":8,"time_elapsed":279449,"internal_node_id":"0.0-8.0"},{"trial_type":"number-animation","trial_index":9,"time_elapsed":328831,"internal_node_id":"0.0-9.0"},{"phase":0,"sequence":2,"avg":177,"response":177,"trial_type":"training_avg","trial_index":10,"time_elapsed":349624,"internal_node_id":"0.0-10.0"},{"trial_type":"number-animation","trial_index":11,"time_elapsed":393937,"internal_node_id":"0.0-11.0"},{"phase":0,"sequence":3,"avg":190,"response":190,"trial_type":"training_avg","trial_index":12,"time_elapsed":418314,"internal_node_id":"0.0-12.0"},{"trial_type":"number-animation","trial_index":13,"time_elapsed":458697,"internal_node_id":"0.0-13.0"},{"phase":0,"sequence":4,"avg":201,"response":201,"trial_type":"training_avg","trial_index":14,"time_elapsed":485993,"internal_node_id":"0.0-14.0"},{"responses":[{"value":0,"offby":-1,"category":"$30 - $75","category_index":0},{"value":0,"offby":-2,"category":"$76 - $120","category_index":1},{"value":0,"offby":-4,"category":"$121 - $165","category_index":2},{"value":20,"offby":14,"category":"$166 - $210","category_index":3},{"value":0,"offby":-6,"category":"$211 - $255","category_index":4},{"value":0,"offby":-1,"category":"$256 - $300","category_index":5},{"value":0,"offby":0,"category":"$301 - $345","category_index":6}],"phase":0,"number":0,"trial_type":"bar-choose","trial_index":15,"time_elapsed":518052,"internal_node_id":"0.0-15.0"},{"rt":24222,"url":"\/tickets\/\/utils\/testing.html","trial_type":"html","trial_index":16,"time_elapsed":543564,"internal_node_id":"0.0-16.0"},{"phase":0,"order":[16,46,25,24,29,19,38,6,23,42,14,0,4,36,48,18,49,22,7,12,40,34,21,39,1,9,10,28,45,31,27,44,8,35,3,30,32,20,41,33,17,47,26,37,43,13,5,2,15,11],"trial_type":"store_order","trial_index":17,"time_elapsed":544645,"internal_node_id":"0.0-17.0"},{"result":126,"points":3,"place":0,"phase":0,"sequence":-1,"prices":[184,180,224,165,181,199,185,193,218,126],"times":[4336,730,626,2257,692,982,1464,1467,1031,1136],"next_num":10,"trial_type":"ticket-choose","trial_index":18,"time_elapsed":564966,"internal_node_id":"0.0-18.0"},{"rt":17554,"url":"\/tickets\/utils\/testing_after.html","trial_type":"html","trial_index":19,"time_elapsed":583817,"internal_node_id":"0.0-19.0"},{"result":146,"points":1,"place":3,"phase":0,"sequence":0,"prices":[146,171,120,245,165,191,160,140,100,196],"times":[8261],"next_num":1,"trial_type":"ticket-choose","trial_index":20,"time_elapsed":595247,"internal_node_id":"0.0-20.0"},{"result":81,"points":3,"place":0,"phase":0,"sequence":1,"prices":[81,205,130,151,191,261,145,210,250,165],"times":[1294],"next_num":1,"trial_type":"ticket-choose","trial_index":21,"time_elapsed":599478,"internal_node_id":"0.0-21.0"},{"result":51,"points":3,"place":0,"phase":0,"sequence":2,"prices":[221,175,51,196,146,130,166,80,126,156],"times":[1177,753,1155],"next_num":3,"trial_type":"ticket-choose","trial_index":22,"time_elapsed":605175,"internal_node_id":"0.0-22.0"},{"result":81,"points":3,"place":0,"phase":0,"sequence":3,"prices":[155,245,155,81,180,130,156,306,166,115],"times":[1597,788,721,2378],"next_num":4,"trial_type":"ticket-choose","trial_index":23,"time_elapsed":613721,"internal_node_id":"0.0-23.0"},{"result":111,"points":3,"place":0,"phase":0,"sequence":4,"prices":[156,181,130,255,175,200,170,150,111,205],"times":[1801,664,816,678,618,817,652,726,1364],"next_num":9,"trial_type":"ticket-choose","trial_index":24,"time_elapsed":626070,"internal_node_id":"0.0-24.0"},{"result":196,"points":1,"place":4,"phase":0,"sequence":5,"prices":[120,221,135,185,200,261,181,251,255,196],"times":[41337,670,767,651,774,829,792,929,1235,1125],"next_num":11,"trial_type":"ticket-choose","trial_index":25,"time_elapsed":680081,"internal_node_id":"0.0-25.0"},{"result":45,"points":3,"place":0,"phase":0,"sequence":6,"prices":[186,156,191,120,195,145,45,130,246,176],"times":[8925,592,595,2481,621,599,954],"next_num":7,"trial_type":"ticket-choose","trial_index":26,"time_elapsed":698375,"internal_node_id":"0.0-26.0"},{"result":96,"points":3,"place":0,"phase":0,"sequence":7,"prices":[150,171,120,241,165,185,160,135,96,190],"times":[1305,591,1797,719,638,680,780,1287,1179],"next_num":9,"trial_type":"ticket-choose","trial_index":27,"time_elapsed":711215,"internal_node_id":"0.0-27.0"},{"result":215,"points":0,"place":7,"phase":0,"sequence":8,"prices":[246,145,155,191,176,270,185,136,160,215],"times":[7569,601,634,664,770,680,683,717,873,1174],"next_num":11,"trial_type":"ticket-choose","trial_index":28,"time_elapsed":730358,"internal_node_id":"0.0-28.0"},{"result":106,"points":3,"place":0,"phase":0,"sequence":9,"prices":[180,106,166,245,211,261,215,125,135,190],"times":[1355,1566],"next_num":2,"trial_type":"ticket-choose","trial_index":29,"time_elapsed":735919,"internal_node_id":"0.0-29.0"},{"result":146,"points":1,"place":2,"phase":0,"sequence":10,"prices":[161,180,131,251,175,196,171,146,105,201],"times":[1097,564,677,635,584,773,754,4137],"next_num":8,"trial_type":"ticket-choose","trial_index":30,"time_elapsed":748856,"internal_node_id":"0.0-30.0"},{"result":150,"points":1,"place":4,"phase":0,"sequence":11,"prices":[111,231,131,146,171,295,141,241,271,150],"times":[985,483,421,493,493,511,547,530,553,716],"next_num":11,"trial_type":"ticket-choose","trial_index":31,"time_elapsed":758710,"internal_node_id":"0.0-31.0"},{"result":125,"points":1,"place":2,"phase":0,"sequence":12,"prices":[226,205,125,120,115,135,180,145,150,220],"times":[1079,622,1386],"next_num":3,"trial_type":"ticket-choose","trial_index":32,"time_elapsed":764433,"internal_node_id":"0.0-32.0"},{"result":86,"points":3,"place":0,"phase":0,"sequence":13,"prices":[86,180,130,151,170,271,145,191,220,160],"times":[992],"next_num":1,"trial_type":"ticket-choose","trial_index":33,"time_elapsed":767533,"internal_node_id":"0.0-33.0"},{"result":106,"points":3,"place":0,"phase":0,"sequence":14,"prices":[155,225,245,130,176,106,180,211,165,200],"times":[594,512,445,577,586,1066],"next_num":6,"trial_type":"ticket-choose","trial_index":34,"time_elapsed":774359,"internal_node_id":"0.0-34.0"},{"result":130,"points":2,"place":1,"phase":0,"sequence":15,"prices":[160,180,130,251,176,195,170,146,105,200],"times":[569,577,2527],"next_num":3,"trial_type":"ticket-choose","trial_index":35,"time_elapsed":780528,"internal_node_id":"0.0-35.0"},{"result":101,"points":3,"place":0,"phase":0,"sequence":16,"prices":[155,175,166,245,171,190,125,140,101,196],"times":[755,519,759,699,736,692,636,1868,872],"next_num":9,"trial_type":"ticket-choose","trial_index":36,"time_elapsed":791880,"internal_node_id":"0.0-36.0"},{"result":155,"points":1,"place":4,"phase":0,"sequence":17,"prices":[135,180,141,151,175,220,145,196,211,155],"times":[689,1382,766,711,723,620,814,1040,939,1282],"next_num":11,"trial_type":"ticket-choose","trial_index":37,"time_elapsed":805096,"internal_node_id":"0.0-37.0"},{"result":185,"points":0,"place":5,"phase":0,"sequence":18,"prices":[181,156,145,165,236,231,201,260,150,185],"times":[1599,1761,2601,594,619,581,681,642,1989,898],"next_num":11,"trial_type":"ticket-choose","trial_index":38,"time_elapsed":821263,"internal_node_id":"0.0-38.0"},{"result":131,"points":2,"place":1,"phase":0,"sequence":19,"prices":[160,180,170,251,176,195,131,146,105,200],"times":[993,540,531,555,534,596,1121],"next_num":7,"trial_type":"ticket-choose","trial_index":39,"time_elapsed":829342,"internal_node_id":"0.0-39.0"},{"result":131,"points":2,"place":1,"phase":0,"sequence":20,"prices":[156,181,131,256,176,200,171,151,111,206],"times":[844,539,1178],"next_num":3,"trial_type":"ticket-choose","trial_index":40,"time_elapsed":834407,"internal_node_id":"0.0-40.0"},{"result":120,"points":2,"place":1,"phase":0,"sequence":21,"prices":[150,170,160,241,166,186,120,136,96,191],"times":[678,603,736,722,615,634,1002],"next_num":7,"trial_type":"ticket-choose","trial_index":41,"time_elapsed":842646,"internal_node_id":"0.0-41.0"},{"result":66,"points":3,"place":0,"phase":0,"sequence":22,"prices":[66,201,96,150,185,230,121,216,225,165],"times":[1069],"next_num":1,"trial_type":"ticket-choose","trial_index":42,"time_elapsed":845713,"internal_node_id":"0.0-42.0"},{"result":121,"points":2,"place":1,"phase":0,"sequence":23,"prices":[146,170,121,245,166,190,161,141,100,195],"times":[1426,597,1438],"next_num":3,"trial_type":"ticket-choose","trial_index":43,"time_elapsed":851635,"internal_node_id":"0.0-43.0"},{"result":130,"points":2,"place":1,"phase":0,"sequence":24,"prices":[155,181,170,255,176,200,130,150,110,205],"times":[537,624,618,609,789,634,1191],"next_num":7,"trial_type":"ticket-choose","trial_index":44,"time_elapsed":859822,"internal_node_id":"0.0-44.0"},{"result":116,"points":3,"place":0,"phase":0,"sequence":25,"prices":[176,150,276,171,261,116,130,201,166,231],"times":[598,508,707,554,582,905],"next_num":6,"trial_type":"ticket-choose","trial_index":45,"time_elapsed":866649,"internal_node_id":"0.0-45.0"},{"result":126,"points":2,"place":1,"phase":0,"sequence":26,"prices":[156,175,126,246,170,190,165,140,100,196],"times":[16222,580,1971],"next_num":3,"trial_type":"ticket-choose","trial_index":46,"time_elapsed":887904,"internal_node_id":"0.0-46.0"},{"result":126,"points":2,"place":1,"phase":0,"sequence":27,"prices":[151,175,166,251,170,195,126,146,105,201],"times":[645,566,662,742,714,686,956],"next_num":7,"trial_type":"ticket-choose","trial_index":47,"time_elapsed":896273,"internal_node_id":"0.0-47.0"},{"result":166,"points":0,"place":5,"phase":0,"sequence":28,"prices":[255,166,266,175,136,145,155,61,96,301],"times":[8050,974],"next_num":2,"trial_type":"ticket-choose","trial_index":48,"time_elapsed":907883,"internal_node_id":"0.0-48.0"},{"result":106,"points":2,"place":1,"phase":0,"sequence":29,"prices":[185,180,235,210,106,266,76,115,250,205],"times":[1000,646,716,682,866],"next_num":5,"trial_type":"ticket-choose","trial_index":49,"time_elapsed":914581,"internal_node_id":"0.0-49.0"},{"result":30,"points":3,"place":0,"phase":0,"sequence":30,"prices":[155,30,101,55,136,276,70,181,200,261],"times":[1065,1086],"next_num":2,"trial_type":"ticket-choose","trial_index":50,"time_elapsed":918905,"internal_node_id":"0.0-50.0"},{"result":120,"points":2,"place":1,"phase":0,"sequence":31,"prices":[145,170,160,245,165,190,120,141,100,195],"times":[1209,595,747,559,618,643,836],"next_num":7,"trial_type":"ticket-choose","trial_index":51,"time_elapsed":927352,"internal_node_id":"0.0-51.0"},{"result":125,"points":2,"place":1,"phase":0,"sequence":32,"prices":[156,175,125,245,170,190,165,140,101,196],"times":[948,680,1283],"next_num":3,"trial_type":"ticket-choose","trial_index":52,"time_elapsed":932687,"internal_node_id":"0.0-52.0"},{"result":126,"points":2,"place":1,"phase":0,"sequence":33,"prices":[156,176,165,246,171,190,126,141,101,196],"times":[570,582,633,671,606,627,927],"next_num":7,"trial_type":"ticket-choose","trial_index":53,"time_elapsed":940512,"internal_node_id":"0.0-53.0"},{"result":141,"points":1,"place":3,"phase":0,"sequence":34,"prices":[176,150,141,91,290,201,106,266,206,126],"times":[658,436,1555],"next_num":3,"trial_type":"ticket-choose","trial_index":54,"time_elapsed":945641,"internal_node_id":"0.0-54.0"},{"result":121,"points":2,"place":1,"phase":0,"sequence":35,"prices":[150,170,160,240,166,185,121,136,95,191],"times":[574,645,623,694,673,694,900],"next_num":7,"trial_type":"ticket-choose","trial_index":55,"time_elapsed":953652,"internal_node_id":"0.0-55.0"},{"result":111,"points":3,"place":0,"phase":0,"sequence":36,"prices":[175,211,266,286,111,216,220,245,230,165],"times":[948,481,627,572,971],"next_num":5,"trial_type":"ticket-choose","trial_index":56,"time_elapsed":960683,"internal_node_id":"0.0-56.0"},{"result":136,"points":1,"place":2,"phase":0,"sequence":37,"prices":[150,171,121,241,165,185,160,136,95,191],"times":[2416,773,2026,677,655,659,1331,836],"next_num":8,"trial_type":"ticket-choose","trial_index":57,"time_elapsed":973479,"internal_node_id":"0.0-57.0"},{"result":131,"points":2,"place":1,"phase":0,"sequence":38,"prices":[156,181,171,256,175,200,131,150,110,206],"times":[1269,563,716,648,602,691,942],"next_num":7,"trial_type":"ticket-choose","trial_index":58,"time_elapsed":982319,"internal_node_id":"0.0-58.0"},{"result":131,"points":2,"place":1,"phase":0,"sequence":39,"prices":[161,180,171,250,176,195,131,146,105,201],"times":[805,576,641,650,587,613,882],"next_num":7,"trial_type":"ticket-choose","trial_index":59,"time_elapsed":990256,"internal_node_id":"0.0-59.0"},{"result":175,"points":1,"place":4,"phase":0,"sequence":40,"prices":[130,195,141,155,181,226,150,216,221,175],"times":[1040,1411,474,627,607,594,1067,664,595,695],"next_num":11,"trial_type":"ticket-choose","trial_index":60,"time_elapsed":1001951,"internal_node_id":"0.0-60.0"},{"result":120,"points":2,"place":1,"phase":0,"sequence":41,"prices":[145,171,161,245,165,191,120,140,100,196],"times":[732,608,859,691,731,632,1037],"next_num":7,"trial_type":"ticket-choose","trial_index":61,"time_elapsed":1010342,"internal_node_id":"0.0-61.0"},{"result":126,"points":2,"place":1,"phase":0,"sequence":42,"prices":[150,175,166,251,170,196,126,145,105,201],"times":[909,618,854,666,744,733,1003],"next_num":7,"trial_type":"ticket-choose","trial_index":62,"time_elapsed":1019076,"internal_node_id":"0.0-62.0"},{"result":130,"points":3,"place":0,"phase":0,"sequence":43,"prices":[185,175,276,221,130,141,171,216,235,165],"times":[529,936,621,723,978],"next_num":5,"trial_type":"ticket-choose","trial_index":63,"time_elapsed":1026228,"internal_node_id":"0.0-63.0"},{"result":65,"points":2,"place":1,"phase":0,"sequence":44,"prices":[220,236,176,65,185,101,110,61,156,191],"times":[3370,548,1472,859],"next_num":4,"trial_type":"ticket-choose","trial_index":64,"time_elapsed":1035072,"internal_node_id":"0.0-64.0"},{"result":126,"points":2,"place":1,"phase":0,"sequence":45,"prices":[150,176,126,251,171,195,165,145,105,200],"times":[1025,644,3118],"next_num":3,"trial_type":"ticket-choose","trial_index":65,"time_elapsed":1042370,"internal_node_id":"0.0-65.0"},{"result":95,"points":3,"place":0,"phase":0,"sequence":46,"prices":[95,205,106,151,186,271,145,210,215,181],"times":[1017],"next_num":1,"trial_type":"ticket-choose","trial_index":66,"time_elapsed":1045521,"internal_node_id":"0.0-66.0"},{"result":185,"points":1,"place":4,"phase":0,"sequence":47,"prices":[105,216,146,165,210,260,161,235,241,185],"times":[771,515,449,633,622,603,576,577,640,629],"next_num":11,"trial_type":"ticket-choose","trial_index":67,"time_elapsed":1055775,"internal_node_id":"0.0-67.0"},{"result":75,"points":3,"place":0,"phase":0,"sequence":48,"prices":[75,171,131,151,161,250,145,190,206,156],"times":[1416],"next_num":1,"trial_type":"ticket-choose","trial_index":68,"time_elapsed":1059034,"internal_node_id":"0.0-68.0"},{"result":126,"points":2,"place":1,"phase":0,"sequence":49,"prices":[151,176,126,251,170,196,165,145,105,201],"times":[896,548,909],"next_num":3,"trial_type":"ticket-choose","trial_index":69,"time_elapsed":1063607,"internal_node_id":"0.0-69.0"},{"responses":[{"value":2,"offby":1,"category":"$30 - $75","category_index":0},{"value":5,"offby":3,"category":"$76 - $120","category_index":1},{"value":5,"offby":1,"category":"$121 - $165","category_index":2},{"value":5,"offby":-1,"category":"$166 - $210","category_index":3},{"value":2,"offby":-4,"category":"$211 - $255","category_index":4},{"value":1,"offby":0,"category":"$256 - $300","category_index":5},{"value":0,"offby":0,"category":"$301 - $345","category_index":6}],"phase":0,"number":1,"trial_type":"bar-choose","trial_index":70,"time_elapsed":1152126,"internal_node_id":"0.0-70.0"},{"rt":15657,"url":"\/tickets\/utils\/start2.html","trial_type":"html","trial_index":71,"time_elapsed":1169072,"internal_node_id":"0.0-71.0"},{"trial_type":"number-animation","trial_index":72,"time_elapsed":1210628,"internal_node_id":"0.0-72.0"},{"phase":1,"sequence":0,"avg":180,"response":180,"trial_type":"training_avg","trial_index":73,"time_elapsed":1228025,"internal_node_id":"0.0-73.0"},{"trial_type":"number-animation","trial_index":74,"time_elapsed":1271280,"internal_node_id":"0.0-74.0"},{"phase":1,"sequence":1,"avg":178,"response":178,"trial_type":"training_avg","trial_index":75,"time_elapsed":1284422,"internal_node_id":"0.0-75.0"},{"trial_type":"number-animation","trial_index":76,"time_elapsed":1327752,"internal_node_id":"0.0-76.0"},{"phase":1,"sequence":2,"avg":176,"response":176,"trial_type":"training_avg","trial_index":77,"time_elapsed":1346635,"internal_node_id":"0.0-77.0"},{"trial_type":"number-animation","trial_index":78,"time_elapsed":1407248,"internal_node_id":"0.0-78.0"},{"phase":1,"sequence":3,"avg":178,"response":178,"trial_type":"training_avg","trial_index":79,"time_elapsed":1435826,"internal_node_id":"0.0-79.0"},{"trial_type":"number-animation","trial_index":80,"time_elapsed":1473106,"internal_node_id":"0.0-80.0"},{"phase":1,"sequence":4,"avg":179,"response":179,"trial_type":"training_avg","trial_index":81,"time_elapsed":1487972,"internal_node_id":"0.0-81.0"},{"responses":[{"value":20,"offby":20,"category":"$140 - $250","category_index":0},{"value":0,"offby":0,"category":"$151 - $160","category_index":1},{"value":0,"offby":-4,"category":"$161 - $170","category_index":2},{"value":0,"offby":-6,"category":"$171 - $180","category_index":3},{"value":0,"offby":-7,"category":"$181 - $190","category_index":4},{"value":0,"offby":-3,"category":"$191 - $200","category_index":5},{"value":0,"offby":0,"category":"$201 - $210","category_index":6}],"phase":1,"number":0,"trial_type":"bar-choose","trial_index":82,"time_elapsed":1507385,"internal_node_id":"0.0-82.0"},{"rt":14405,"url":"\/tickets\/utils\/testing2.html","trial_type":"html","trial_index":83,"time_elapsed":1523075,"internal_node_id":"0.0-83.0"},{"phase":1,"order":[18,30,35,42,11,27,37,17,48,41,8,29,36,24,49,9,4,32,47,13,10,21,31,19,14,40,0,7,39,34,44,23,1,5,45,20,46,16,15,12,33,22,6,38,43,3,25,26,28,2],"trial_type":"store_order","trial_index":84,"time_elapsed":1524101,"internal_node_id":"0.0-84.0"},{"result":163,"points":3,"place":0,"phase":1,"sequence":0,"prices":[174,178,168,192,177,181,176,171,163,182],"times":[1662,656,598,681,639,584,658,673,1269],"next_num":9,"trial_type":"ticket-choose","trial_index":85,"time_elapsed":1535929,"internal_node_id":"0.0-85.0"},{"result":166,"points":3,"place":0,"phase":1,"sequence":1,"prices":[179,186,197,201,166,187,188,193,190,177],"times":[1038,641,656,833,1024],"next_num":5,"trial_type":"ticket-choose","trial_index":86,"time_elapsed":1543038,"internal_node_id":"0.0-86.0"},{"result":173,"points":1,"place":2,"phase":1,"sequence":2,"prices":[163,185,165,174,181,198,173,186,187,180],"times":[1094,560,978,627,771,1042,1035],"next_num":7,"trial_type":"ticket-choose","trial_index":87,"time_elapsed":1552484,"internal_node_id":"0.0-87.0"},{"result":173,"points":1,"place":2,"phase":1,"sequence":3,"prices":[161,180,170,174,178,198,173,182,188,176],"times":[833,586,1370,731,723,626,1081],"next_num":7,"trial_type":"ticket-choose","trial_index":88,"time_elapsed":1561503,"internal_node_id":"0.0-88.0"},{"result":170,"points":2,"place":1,"phase":1,"sequence":4,"prices":[166,190,170,173,178,203,172,192,198,174],"times":[846,789,1157],"next_num":3,"trial_type":"ticket-choose","trial_index":89,"time_elapsed":1566624,"internal_node_id":"0.0-89.0"},{"result":168,"points":2,"place":1,"phase":1,"sequence":5,"prices":[173,178,168,193,177,182,176,172,164,183],"times":[694,540,1100],"next_num":3,"trial_type":"ticket-choose","trial_index":90,"time_elapsed":1571375,"internal_node_id":"0.0-90.0"},{"result":170,"points":3,"place":0,"phase":1,"sequence":6,"prices":[181,179,199,188,170,172,178,187,191,177],"times":[607,579,793,712,769],"next_num":5,"trial_type":"ticket-choose","trial_index":91,"time_elapsed":1577480,"internal_node_id":"0.0-91.0"},{"result":169,"points":2,"place":1,"phase":1,"sequence":7,"prices":[174,179,177,194,178,183,169,173,165,184],"times":[545,483,699,675,796,980,973],"next_num":7,"trial_type":"ticket-choose","trial_index":92,"time_elapsed":1585736,"internal_node_id":"0.0-92.0"},{"result":168,"points":2,"place":1,"phase":1,"sequence":8,"prices":[173,178,176,193,177,182,168,172,164,183],"times":[996,850,701,820,1508,893,954],"next_num":7,"trial_type":"ticket-choose","trial_index":93,"time_elapsed":1595723,"internal_node_id":"0.0-93.0"},{"result":160,"points":3,"place":0,"phase":1,"sequence":9,"prices":[175,193,175,160,180,170,175,205,177,167],"times":[1085,799,717,1364],"next_num":4,"trial_type":"ticket-choose","trial_index":94,"time_elapsed":1602369,"internal_node_id":"0.0-94.0"},{"result":170,"points":2,"place":1,"phase":1,"sequence":10,"prices":[175,180,178,195,179,184,170,174,166,185],"times":[848,581,608,573,619,592,883],"next_num":7,"trial_type":"ticket-choose","trial_index":95,"time_elapsed":1610337,"internal_node_id":"0.0-95.0"},{"result":169,"points":2,"place":1,"phase":1,"sequence":11,"prices":[175,179,169,193,178,182,177,172,164,183],"times":[1141,622,1141],"next_num":3,"trial_type":"ticket-choose","trial_index":96,"time_elapsed":1615633,"internal_node_id":"0.0-96.0"},{"result":169,"points":2,"place":1,"phase":1,"sequence":12,"prices":[175,179,177,193,178,182,169,172,164,183],"times":[695,618,644,753,896,935,947],"next_num":7,"trial_type":"ticket-choose","trial_index":97,"time_elapsed":1624245,"internal_node_id":"0.0-97.0"},{"result":169,"points":1,"place":2,"phase":1,"sequence":13,"prices":[189,185,169,168,167,171,180,173,174,188],"times":[552,595,3004],"next_num":3,"trial_type":"ticket-choose","trial_index":98,"time_elapsed":1630767,"internal_node_id":"0.0-98.0"},{"result":171,"points":3,"place":0,"phase":1,"sequence":14,"prices":[193,173,175,182,179,198,181,171,176,187],"times":[1107,11252,747,706,701,769,627,908],"next_num":8,"trial_type":"ticket-choose","trial_index":99,"time_elapsed":1651093,"internal_node_id":"0.0-99.0"},{"result":164,"points":3,"place":0,"phase":1,"sequence":15,"prices":[173,178,168,193,177,182,176,172,164,183],"times":[1016,635,1828,609,852,729,756,666,900],"next_num":9,"trial_type":"ticket-choose","trial_index":100,"time_elapsed":1662801,"internal_node_id":"0.0-100.0"},{"result":170,"points":2,"place":1,"phase":1,"sequence":16,"prices":[175,189,193,170,179,165,180,186,177,184],"times":[951,484,608,826],"next_num":4,"trial_type":"ticket-choose","trial_index":101,"time_elapsed":1668547,"internal_node_id":"0.0-101.0"},{"result":168,"points":2,"place":1,"phase":1,"sequence":17,"prices":[173,178,176,193,177,182,168,172,164,183],"times":[520,457,680,558,745,712,923],"next_num":7,"trial_type":"ticket-choose","trial_index":102,"time_elapsed":1676378,"internal_node_id":"0.0-102.0"},{"result":169,"points":2,"place":1,"phase":1,"sequence":18,"prices":[174,179,177,194,178,183,169,173,165,184],"times":[1124,446,392,748,550,637,932],"next_num":7,"trial_type":"ticket-choose","trial_index":103,"time_elapsed":1684313,"internal_node_id":"0.0-103.0"},{"result":170,"points":2,"place":1,"phase":1,"sequence":19,"prices":[176,180,178,194,179,183,170,173,165,184],"times":[742,981,10061,666,762,592,1124],"next_num":7,"trial_type":"ticket-choose","trial_index":104,"time_elapsed":1702484,"internal_node_id":"0.0-104.0"},{"result":167,"points":3,"place":0,"phase":1,"sequence":20,"prices":[179,174,199,178,196,167,170,184,177,190],"times":[665,855,8939,592,830,956],"next_num":6,"trial_type":"ticket-choose","trial_index":105,"time_elapsed":1718581,"internal_node_id":"0.0-105.0"},{"result":165,"points":2,"place":1,"phase":1,"sequence":21,"prices":[181,180,191,186,165,197,159,167,194,185],"times":[838,539,610,545,1230],"next_num":5,"trial_type":"ticket-choose","trial_index":106,"time_elapsed":1725161,"internal_node_id":"0.0-106.0"},{"result":168,"points":2,"place":1,"phase":1,"sequence":22,"prices":[174,178,176,192,177,181,168,171,163,182],"times":[857,486,680,703,661,966,964],"next_num":7,"trial_type":"ticket-choose","trial_index":107,"time_elapsed":1733772,"internal_node_id":"0.0-107.0"},{"result":171,"points":1,"place":2,"phase":1,"sequence":23,"prices":[195,177,197,179,171,173,175,156,163,204],"times":[525,546,638,1773,1057],"next_num":5,"trial_type":"ticket-choose","trial_index":108,"time_elapsed":1741019,"internal_node_id":"0.0-108.0"},{"result":172,"points":1,"place":2,"phase":1,"sequence":24,"prices":[175,179,169,193,178,182,177,172,164,183],"times":[585,482,1070,639,629,836,1080,2514],"next_num":8,"trial_type":"ticket-choose","trial_index":109,"time_elapsed":1752272,"internal_node_id":"0.0-109.0"},{"result":165,"points":3,"place":0,"phase":1,"sequence":25,"prices":[176,180,170,194,179,183,178,173,165,184],"times":[9525,460,1298,566,602,660,662,912,992],"next_num":9,"trial_type":"ticket-choose","trial_index":110,"time_elapsed":1771701,"internal_node_id":"0.0-110.0"},{"result":174,"points":1,"place":2,"phase":1,"sequence":26,"prices":[175,180,170,195,179,184,178,174,166,185],"times":[936,626,1360,631,634,628,1289,1861],"next_num":8,"trial_type":"ticket-choose","trial_index":111,"time_elapsed":1783195,"internal_node_id":"0.0-111.0"},{"result":175,"points":1,"place":4,"phase":1,"sequence":27,"prices":[159,178,170,174,176,194,173,182,185,175],"times":[870,448,561,518,682,575,1097,615,745,695],"next_num":11,"trial_type":"ticket-choose","trial_index":112,"time_elapsed":1794291,"internal_node_id":"0.0-112.0"},{"result":162,"points":3,"place":0,"phase":1,"sequence":28,"prices":[179,174,172,162,202,184,165,197,185,169],"times":[834,608,481,912],"next_num":4,"trial_type":"ticket-choose","trial_index":113,"time_elapsed":1799822,"internal_node_id":"0.0-113.0"},{"result":163,"points":2,"place":1,"phase":1,"sequence":29,"prices":[157,184,163,174,181,190,168,187,189,177],"times":[933,1313,994],"next_num":3,"trial_type":"ticket-choose","trial_index":114,"time_elapsed":1805355,"internal_node_id":"0.0-114.0"},{"result":183,"points":1,"place":4,"phase":1,"sequence":30,"prices":[168,188,171,181,184,196,180,194,195,183],"times":[1051,651,634,741,645,680,634,578,585,520],"next_num":11,"trial_type":"ticket-choose","trial_index":115,"time_elapsed":1816163,"internal_node_id":"0.0-115.0"},{"result":150,"points":3,"place":0,"phase":1,"sequence":31,"prices":[175,150,164,155,171,199,158,180,184,196],"times":[715,865],"next_num":2,"trial_type":"ticket-choose","trial_index":116,"time_elapsed":1819762,"internal_node_id":"0.0-116.0"},{"result":170,"points":2,"place":1,"phase":1,"sequence":32,"prices":[176,180,170,194,179,183,178,173,165,184],"times":[480,771,1244],"next_num":3,"trial_type":"ticket-choose","trial_index":117,"time_elapsed":1824581,"internal_node_id":"0.0-117.0"},{"result":154,"points":3,"place":0,"phase":1,"sequence":33,"prices":[188,179,154,183,173,170,177,160,169,175],"times":[609,804,867],"next_num":3,"trial_type":"ticket-choose","trial_index":118,"time_elapsed":1829137,"internal_node_id":"0.0-118.0"},{"result":169,"points":2,"place":1,"phase":1,"sequence":34,"prices":[174,179,169,194,178,183,177,173,165,184],"times":[627,493,1501],"next_num":3,"trial_type":"ticket-choose","trial_index":119,"time_elapsed":1834064,"internal_node_id":"0.0-119.0"},{"result":177,"points":1,"place":4,"phase":1,"sequence":35,"prices":[160,185,170,174,182,196,173,186,194,177],"times":[679,467,567,605,695,611,528,659,546,457],"next_num":11,"trial_type":"ticket-choose","trial_index":120,"time_elapsed":1843749,"internal_node_id":"0.0-120.0"},{"result":173,"points":1,"place":2,"phase":1,"sequence":36,"prices":[171,180,172,174,179,188,173,183,186,175],"times":[1048,572,652,551,606,560,1026],"next_num":7,"trial_type":"ticket-choose","trial_index":121,"time_elapsed":1851896,"internal_node_id":"0.0-121.0"},{"result":168,"points":2,"place":1,"phase":1,"sequence":37,"prices":[174,178,176,192,177,181,168,171,163,182],"times":[817,493,406,621,706,666,971],"next_num":7,"trial_type":"ticket-choose","trial_index":122,"time_elapsed":1859663,"internal_node_id":"0.0-122.0"},{"result":165,"points":3,"place":0,"phase":1,"sequence":38,"prices":[180,165,177,193,186,196,187,169,171,182],"times":[624,1120],"next_num":2,"trial_type":"ticket-choose","trial_index":123,"time_elapsed":1863495,"internal_node_id":"0.0-123.0"},{"result":179,"points":1,"place":4,"phase":1,"sequence":39,"prices":[170,183,172,175,180,189,174,187,188,179],"times":[640,746,979,677,704,809,934,656,674,598],"next_num":11,"trial_type":"ticket-choose","trial_index":124,"time_elapsed":1875231,"internal_node_id":"0.0-124.0"},{"result":168,"points":2,"place":1,"phase":1,"sequence":40,"prices":[174,178,168,192,177,181,176,171,163,182],"times":[1087,554,845],"next_num":3,"trial_type":"ticket-choose","trial_index":125,"time_elapsed":1880306,"internal_node_id":"0.0-125.0"},{"result":175,"points":1,"place":2,"phase":1,"sequence":41,"prices":[180,175,173,177,191,190,184,196,174,181],"times":[636,1167],"next_num":2,"trial_type":"ticket-choose","trial_index":126,"time_elapsed":1884520,"internal_node_id":"0.0-126.0"},{"result":165,"points":3,"place":0,"phase":1,"sequence":42,"prices":[165,187,173,177,186,196,176,191,192,181],"times":[1182],"next_num":1,"trial_type":"ticket-choose","trial_index":127,"time_elapsed":1887952,"internal_node_id":"0.0-127.0"},{"result":168,"points":2,"place":1,"phase":1,"sequence":43,"prices":[181,175,182,168,183,173,153,170,193,179],"times":[1215,721,628,1341],"next_num":4,"trial_type":"ticket-choose","trial_index":128,"time_elapsed":1894664,"internal_node_id":"0.0-128.0"},{"result":157,"points":2,"place":1,"phase":1,"sequence":44,"prices":[188,191,179,157,181,164,166,156,175,182],"times":[3487,586,1121,861],"next_num":4,"trial_type":"ticket-choose","trial_index":129,"time_elapsed":1903185,"internal_node_id":"0.0-129.0"},{"result":170,"points":2,"place":1,"phase":1,"sequence":45,"prices":[176,180,178,194,179,183,170,173,165,184],"times":[707,751,583,608,541,584,1118],"next_num":7,"trial_type":"ticket-choose","trial_index":130,"time_elapsed":1911252,"internal_node_id":"0.0-130.0"},{"result":169,"points":2,"place":1,"phase":1,"sequence":46,"prices":[175,179,177,193,178,182,169,172,164,183],"times":[747,829,744,570,5212,547,841],"next_num":7,"trial_type":"ticket-choose","trial_index":131,"time_elapsed":1923907,"internal_node_id":"0.0-131.0"},{"result":169,"points":2,"place":1,"phase":1,"sequence":47,"prices":[174,179,169,194,178,183,177,173,165,184],"times":[2778,520,817],"next_num":3,"trial_type":"ticket-choose","trial_index":132,"time_elapsed":1930328,"internal_node_id":"0.0-132.0"},{"result":179,"points":0,"place":5,"phase":1,"sequence":48,"prices":[175,180,178,195,179,184,170,174,166,185],"times":[788,580,697,722,1116],"next_num":5,"trial_type":"ticket-choose","trial_index":133,"time_elapsed":1937008,"internal_node_id":"0.0-133.0"},{"result":170,"points":2,"place":1,"phase":1,"sequence":49,"prices":[175,180,170,195,179,184,178,174,166,185],"times":[944,582,857],"next_num":3,"trial_type":"ticket-choose","trial_index":134,"time_elapsed":1941863,"internal_node_id":"0.0-134.0"},{"responses":[{"value":0,"offby":0,"category":"$140 - $250","category_index":0},{"value":0,"offby":0,"category":"$151 - $160","category_index":1},{"value":0,"offby":-4,"category":"$161 - $170","category_index":2},{"value":20,"offby":14,"category":"$171 - $180","category_index":3},{"value":0,"offby":-7,"category":"$181 - $190","category_index":4},{"value":0,"offby":-3,"category":"$191 - $200","category_index":5},{"value":0,"offby":0,"category":"$201 - $210","category_index":6}],"phase":1,"number":1,"trial_type":"bar-choose","trial_index":135,"time_elapsed":1951044,"internal_node_id":"0.0-135.0"},{"special_comment":"SometimesI noticed the first ticket featured was actually the cheapest.","trial_type":"special_sequence","trial_index":136,"time_elapsed":1966598,"internal_node_id":"0.0-136.0"},{"during":"Nothing","bonus":268,"trial_type":"final","trial_index":137,"time_elapsed":2011432,"internal_node_id":"0.0-137.0"}],"bonus":268}