{"start_time":"2017-02-21 11:21:35","end_time":"2017-02-21 11:35:25","points_phase0":103,"points_phase1":105,"phase_order":1,"age":33,"gender":"m","tries":1,"during":"Nothing","worker_id":"A1L2VPVPD5Q73","assignment_id":"3EFE17QCRDY4KR0G9A3WENLSY1LSHG","data":[{"rt":4952,"url":"\/tickets\/utils\/consent.html","trial_type":"html","trial_index":0,"time_elapsed":5305,"internal_node_id":"0.0-0.0"},{"age":33,"gender":"m","trial_type":"age","trial_index":1,"time_elapsed":8963,"internal_node_id":"0.0-1.0"},{"worker_id":"A1L2VPVPD5Q73","trial_type":"workerid","trial_index":2,"time_elapsed":27392,"internal_node_id":"0.0-2.0"},{"tries":1,"trial_type":"instructions_check","trial_index":3,"time_elapsed":40168,"internal_node_id":"0.0-3.0"},{"rt":4001,"url":"\/tickets\/utils\/start.html","trial_type":"html","trial_index":4,"time_elapsed":45522,"internal_node_id":"0.0-4.0"},{"trial_type":"number-animation","trial_index":5,"time_elapsed":58406,"internal_node_id":"0.0-5.0"},{"phase":0,"sequence":0,"avg":182,"response":158,"trial_type":"training_avg","trial_index":6,"time_elapsed":65880,"internal_node_id":"0.0-6.0"},{"trial_type":"number-animation","trial_index":7,"time_elapsed":73669,"internal_node_id":"0.0-7.0"},{"phase":0,"sequence":1,"avg":188,"response":190,"trial_type":"training_avg","trial_index":8,"time_elapsed":79439,"internal_node_id":"0.0-8.0"},{"trial_type":"number-animation","trial_index":9,"time_elapsed":86150,"internal_node_id":"0.0-9.0"},{"phase":0,"sequence":2,"avg":176,"response":168,"trial_type":"training_avg","trial_index":10,"time_elapsed":91997,"internal_node_id":"0.0-10.0"},{"trial_type":"number-animation","trial_index":11,"time_elapsed":98485,"internal_node_id":"0.0-11.0"},{"phase":0,"sequence":3,"avg":180,"response":170,"trial_type":"training_avg","trial_index":12,"time_elapsed":102944,"internal_node_id":"0.0-12.0"},{"trial_type":"number-animation","trial_index":13,"time_elapsed":110085,"internal_node_id":"0.0-13.0"},{"phase":0,"sequence":4,"avg":174,"response":160,"trial_type":"training_avg","trial_index":14,"time_elapsed":114260,"internal_node_id":"0.0-14.0"},{"responses":[{"value":0,"offby":-1,"category":"$90 - $120","category_index":0},{"value":1,"offby":-2,"category":"$121 - $145","category_index":1},{"value":4,"offby":1,"category":"$146 - $170","category_index":2},{"value":10,"offby":4,"category":"$171 - $195","category_index":3},{"value":5,"offby":1,"category":"$196 - $220","category_index":4},{"value":0,"offby":-2,"category":"$221 - $245","category_index":5},{"value":0,"offby":-1,"category":"$246 - $270","category_index":6}],"phase":0,"number":0,"trial_type":"bar-choose","trial_index":15,"time_elapsed":138980,"internal_node_id":"0.0-15.0"},{"rt":12956,"url":"\/tickets\/\/utils\/testing.html","trial_type":"html","trial_index":16,"time_elapsed":153287,"internal_node_id":"0.0-16.0"},{"phase":0,"order":[4,17,29,49,40,47,13,24,19,37,8,16,20,36,39,27,10,41,15,44,38,7,11,5,6,0,21,23,3,26,12,2,35,43,14,34,46,28,42,30,9,31,48,45,18,32,25,33,1,22],"trial_type":"store_order","trial_index":17,"time_elapsed":154288,"internal_node_id":"0.0-17.0"},{"result":126,"points":3,"place":0,"phase":0,"sequence":-1,"prices":[184,180,224,165,181,199,185,193,218,126],"times":[2930,764,461,3453,408,413,463,541,478,1064],"next_num":10,"trial_type":"ticket-choose","trial_index":18,"time_elapsed":169475,"internal_node_id":"0.0-18.0"},{"rt":6717,"url":"\/tickets\/utils\/testing_after.html","trial_type":"html","trial_index":19,"time_elapsed":177551,"internal_node_id":"0.0-19.0"},{"result":136,"points":2,"place":1,"phase":0,"sequence":0,"prices":[173,194,136,239,182,200,174,150,236,127],"times":[2114,457,913],"next_num":3,"trial_type":"ticket-choose","trial_index":20,"time_elapsed":183357,"internal_node_id":"0.0-20.0"},{"result":154,"points":2,"place":1,"phase":0,"sequence":1,"prices":[169,192,176,244,178,194,154,159,237,125],"times":[612,445,445,576,779,509,927],"next_num":7,"trial_type":"ticket-choose","trial_index":21,"time_elapsed":190974,"internal_node_id":"0.0-21.0"},{"result":136,"points":2,"place":1,"phase":0,"sequence":2,"prices":[172,190,136,270,179,192,174,152,237,129],"times":[576,429,826],"next_num":3,"trial_type":"ticket-choose","trial_index":22,"time_elapsed":194901,"internal_node_id":"0.0-22.0"},{"result":146,"points":2,"place":1,"phase":0,"sequence":3,"prices":[169,193,146,237,180,196,172,150,129,236],"times":[445,462,1025],"next_num":3,"trial_type":"ticket-choose","trial_index":23,"time_elapsed":199102,"internal_node_id":"0.0-23.0"},{"result":128,"points":2,"place":1,"phase":0,"sequence":4,"prices":[121,191,128,141,166,217,129,196,202,157],"times":[353,480,779],"next_num":3,"trial_type":"ticket-choose","trial_index":24,"time_elapsed":202844,"internal_node_id":"0.0-24.0"},{"result":114,"points":3,"place":0,"phase":0,"sequence":5,"prices":[182,249,159,114,184,205,175,189,172,178],"times":[499,492,461,692],"next_num":4,"trial_type":"ticket-choose","trial_index":25,"time_elapsed":207422,"internal_node_id":"0.0-25.0"},{"result":154,"points":2,"place":1,"phase":0,"sequence":6,"prices":[244,203,196,189,154,206,197,149,171,159],"times":[375,478,509,1264,984],"next_num":5,"trial_type":"ticket-choose","trial_index":26,"time_elapsed":213590,"internal_node_id":"0.0-26.0"},{"result":136,"points":2,"place":1,"phase":0,"sequence":7,"prices":[171,192,136,243,182,195,174,154,236,128],"times":[224,416,892],"next_num":3,"trial_type":"ticket-choose","trial_index":27,"time_elapsed":217166,"internal_node_id":"0.0-27.0"},{"result":129,"points":2,"place":1,"phase":0,"sequence":8,"prices":[155,129,164,189,210,108,187,241,174,275],"times":[305,839],"next_num":2,"trial_type":"ticket-choose","trial_index":28,"time_elapsed":220109,"internal_node_id":"0.0-28.0"},{"result":135,"points":3,"place":0,"phase":0,"sequence":9,"prices":[221,193,135,188,217,179,196,190,175,159],"times":[546,545,678],"next_num":3,"trial_type":"ticket-choose","trial_index":29,"time_elapsed":223954,"internal_node_id":"0.0-29.0"},{"result":135,"points":3,"place":0,"phase":0,"sequence":10,"prices":[135,202,150,169,183,225,160,211,220,172],"times":[946],"next_num":1,"trial_type":"ticket-choose","trial_index":30,"time_elapsed":226630,"internal_node_id":"0.0-30.0"},{"result":146,"points":2,"place":1,"phase":0,"sequence":11,"prices":[168,191,146,252,183,193,172,153,126,238],"times":[845,492,2147],"next_num":3,"trial_type":"ticket-choose","trial_index":31,"time_elapsed":232222,"internal_node_id":"0.0-31.0"},{"result":180,"points":0,"place":5,"phase":0,"sequence":12,"prices":[173,191,174,270,180,193,136,153,239,129],"times":[517,459,477,525,937],"next_num":5,"trial_type":"ticket-choose","trial_index":32,"time_elapsed":238282,"internal_node_id":"0.0-32.0"},{"result":136,"points":3,"place":0,"phase":0,"sequence":13,"prices":[240,188,273,207,250,136,217,170,171,236],"times":[443,556,444,462,479,794],"next_num":6,"trial_type":"ticket-choose","trial_index":33,"time_elapsed":244176,"internal_node_id":"0.0-33.0"},{"result":105,"points":3,"place":0,"phase":0,"sequence":14,"prices":[263,165,224,214,105,230,215,185,177,193],"times":[415,1917,703,622,919],"next_num":5,"trial_type":"ticket-choose","trial_index":34,"time_elapsed":251337,"internal_node_id":"0.0-34.0"},{"result":155,"points":1,"place":2,"phase":0,"sequence":15,"prices":[169,191,154,268,183,197,176,155,236,133],"times":[919,623,1809,442,574,526,621,850],"next_num":8,"trial_type":"ticket-choose","trial_index":35,"time_elapsed":260861,"internal_node_id":"0.0-35.0"},{"result":146,"points":3,"place":0,"phase":0,"sequence":16,"prices":[156,218,212,216,191,210,275,146,174,152],"times":[403,479,494,445,511,477,466,778],"next_num":8,"trial_type":"ticket-choose","trial_index":36,"time_elapsed":268011,"internal_node_id":"0.0-36.0"},{"result":154,"points":2,"place":1,"phase":0,"sequence":17,"prices":[170,193,176,245,178,194,154,159,236,126],"times":[516,495,525,414,458,1484,669],"next_num":7,"trial_type":"ticket-choose","trial_index":37,"time_elapsed":275521,"internal_node_id":"0.0-37.0"},{"result":136,"points":2,"place":1,"phase":0,"sequence":18,"prices":[124,220,136,165,185,234,143,225,228,179],"times":[370,602,742],"next_num":3,"trial_type":"ticket-choose","trial_index":38,"time_elapsed":279345,"internal_node_id":"0.0-38.0"},{"result":146,"points":2,"place":1,"phase":0,"sequence":19,"prices":[171,191,172,268,179,194,146,150,127,239],"times":[606,474,669,443,606,510,703],"next_num":7,"trial_type":"ticket-choose","trial_index":39,"time_elapsed":286247,"internal_node_id":"0.0-39.0"},{"result":124,"points":3,"place":0,"phase":0,"sequence":20,"prices":[219,183,227,124,176,161,140,129,171,201],"times":[444,474,448,969],"next_num":4,"trial_type":"ticket-choose","trial_index":40,"time_elapsed":290817,"internal_node_id":"0.0-40.0"},{"result":150,"points":3,"place":0,"phase":0,"sequence":21,"prices":[197,153,181,215,150,155,164,247,177,162],"times":[399,431,607,492,688],"next_num":5,"trial_type":"ticket-choose","trial_index":41,"time_elapsed":296029,"internal_node_id":"0.0-41.0"},{"result":146,"points":2,"place":1,"phase":0,"sequence":22,"prices":[170,193,146,268,178,195,172,149,126,241],"times":[1637,474,1234],"next_num":3,"trial_type":"ticket-choose","trial_index":42,"time_elapsed":301427,"internal_node_id":"0.0-42.0"},{"result":136,"points":2,"place":1,"phase":0,"sequence":23,"prices":[172,194,174,243,182,193,136,150,237,126],"times":[476,494,429,525,604,477,726],"next_num":7,"trial_type":"ticket-choose","trial_index":43,"time_elapsed":307988,"internal_node_id":"0.0-43.0"},{"result":136,"points":2,"place":1,"phase":0,"sequence":24,"prices":[169,192,174,246,180,195,136,152,238,126],"times":[318,458,461,464,541,685,625],"next_num":7,"trial_type":"ticket-choose","trial_index":44,"time_elapsed":314406,"internal_node_id":"0.0-44.0"},{"result":154,"points":2,"place":1,"phase":0,"sequence":25,"prices":[169,193,154,255,178,194,176,158,239,126],"times":[442,461,1411],"next_num":3,"trial_type":"ticket-choose","trial_index":45,"time_elapsed":318814,"internal_node_id":"0.0-45.0"},{"result":146,"points":1,"place":2,"phase":0,"sequence":26,"prices":[186,146,191,179,152,116,140,201,172,187],"times":[450,984],"next_num":2,"trial_type":"ticket-choose","trial_index":46,"time_elapsed":322120,"internal_node_id":"0.0-46.0"},{"result":136,"points":2,"place":1,"phase":0,"sequence":27,"prices":[170,192,174,242,181,196,136,153,236,128],"times":[456,446,494,430,526,478,648],"next_num":7,"trial_type":"ticket-choose","trial_index":47,"time_elapsed":328466,"internal_node_id":"0.0-47.0"},{"result":136,"points":2,"place":1,"phase":0,"sequence":28,"prices":[171,192,136,265,180,194,174,152,239,127],"times":[525,464,1022],"next_num":3,"trial_type":"ticket-choose","trial_index":48,"time_elapsed":332522,"internal_node_id":"0.0-48.0"},{"result":146,"points":2,"place":1,"phase":0,"sequence":29,"prices":[173,191,146,242,178,194,172,152,126,235],"times":[693,429,1099],"next_num":3,"trial_type":"ticket-choose","trial_index":49,"time_elapsed":336720,"internal_node_id":"0.0-49.0"},{"result":154,"points":2,"place":1,"phase":0,"sequence":30,"prices":[170,190,176,251,183,192,154,157,236,131],"times":[459,415,413,541,496,506,737],"next_num":7,"trial_type":"ticket-choose","trial_index":50,"time_elapsed":343220,"internal_node_id":"0.0-50.0"},{"result":144,"points":2,"place":1,"phase":0,"sequence":31,"prices":[132,222,144,153,190,248,151,224,228,179],"times":[418,444,744],"next_num":3,"trial_type":"ticket-choose","trial_index":51,"time_elapsed":346880,"internal_node_id":"0.0-51.0"},{"result":158,"points":1,"place":3,"phase":0,"sequence":32,"prices":[216,206,158,145,224,185,124,149,175,162],"times":[447,461,937],"next_num":3,"trial_type":"ticket-choose","trial_index":52,"time_elapsed":350814,"internal_node_id":"0.0-52.0"},{"result":154,"points":2,"place":1,"phase":0,"sequence":33,"prices":[169,194,154,271,178,201,176,158,236,127],"times":[457,494,1088],"next_num":3,"trial_type":"ticket-choose","trial_index":53,"time_elapsed":354846,"internal_node_id":"0.0-53.0"},{"result":165,"points":1,"place":2,"phase":0,"sequence":34,"prices":[157,205,161,175,197,254,165,210,214,192],"times":[625,446,492,432,413,575,1040],"next_num":7,"trial_type":"ticket-choose","trial_index":54,"time_elapsed":361808,"internal_node_id":"0.0-54.0"},{"result":168,"points":1,"place":3,"phase":0,"sequence":35,"prices":[168,192,176,242,183,197,154,156,237,132],"times":[880],"next_num":1,"trial_type":"ticket-choose","trial_index":55,"time_elapsed":364404,"internal_node_id":"0.0-55.0"},{"result":149,"points":2,"place":1,"phase":0,"sequence":36,"prices":[196,221,149,164,216,167,175,128,176,181],"times":[653,414,713],"next_num":3,"trial_type":"ticket-choose","trial_index":56,"time_elapsed":368235,"internal_node_id":"0.0-56.0"},{"result":131,"points":2,"place":1,"phase":0,"sequence":37,"prices":[221,234,131,136,132,149,154,90,176,173],"times":[518,446,640],"next_num":3,"trial_type":"ticket-choose","trial_index":57,"time_elapsed":371875,"internal_node_id":"0.0-57.0"},{"result":138,"points":1,"place":2,"phase":0,"sequence":38,"prices":[181,138,118,170,190,101,146,169,175,233],"times":[460,958],"next_num":2,"trial_type":"ticket-choose","trial_index":58,"time_elapsed":375153,"internal_node_id":"0.0-58.0"},{"result":146,"points":2,"place":1,"phase":0,"sequence":39,"prices":[168,191,172,240,183,193,146,151,125,238],"times":[512,509,831,478,462,494,648],"next_num":7,"trial_type":"ticket-choose","trial_index":59,"time_elapsed":382013,"internal_node_id":"0.0-59.0"},{"result":154,"points":2,"place":1,"phase":0,"sequence":40,"prices":[168,192,154,237,182,196,176,156,235,133],"times":[418,478,1009],"next_num":3,"trial_type":"ticket-choose","trial_index":60,"time_elapsed":386025,"internal_node_id":"0.0-60.0"},{"result":146,"points":2,"place":1,"phase":0,"sequence":41,"prices":[171,195,172,242,179,196,146,150,128,235],"times":[415,478,540,456,527,446,790],"next_num":7,"trial_type":"ticket-choose","trial_index":61,"time_elapsed":392549,"internal_node_id":"0.0-61.0"},{"result":130,"points":2,"place":1,"phase":0,"sequence":42,"prices":[181,130,116,142,157,193,165,218,173,207],"times":[527,612],"next_num":2,"trial_type":"ticket-choose","trial_index":62,"time_elapsed":395409,"internal_node_id":"0.0-62.0"},{"result":120,"points":2,"place":1,"phase":0,"sequence":43,"prices":[117,161,120,147,153,259,144,191,195,149],"times":[352,479,638],"next_num":3,"trial_type":"ticket-choose","trial_index":63,"time_elapsed":398885,"internal_node_id":"0.0-63.0"},{"result":119,"points":3,"place":0,"phase":0,"sequence":44,"prices":[198,119,169,141,195,233,136,208,177,217],"times":[539,598],"next_num":2,"trial_type":"ticket-choose","trial_index":64,"time_elapsed":401881,"internal_node_id":"0.0-64.0"},{"result":188,"points":1,"place":4,"phase":0,"sequence":45,"prices":[142,207,171,182,190,269,180,218,256,188],"times":[828,462,476,465,501,461,511,492,878,717],"next_num":11,"trial_type":"ticket-choose","trial_index":65,"time_elapsed":412463,"internal_node_id":"0.0-65.0"},{"result":143,"points":3,"place":0,"phase":0,"sequence":46,"prices":[143,206,153,194,201,267,168,208,210,196],"times":[2138],"next_num":1,"trial_type":"ticket-choose","trial_index":66,"time_elapsed":416267,"internal_node_id":"0.0-66.0"},{"result":146,"points":2,"place":1,"phase":0,"sequence":47,"prices":[172,191,176,272,179,194,146,152,126,235],"times":[779,414,478,446,622,525,639],"next_num":7,"trial_type":"ticket-choose","trial_index":67,"time_elapsed":422997,"internal_node_id":"0.0-67.0"},{"result":137,"points":3,"place":0,"phase":0,"sequence":48,"prices":[137,187,152,156,166,231,155,194,202,160],"times":[811],"next_num":1,"trial_type":"ticket-choose","trial_index":68,"time_elapsed":425441,"internal_node_id":"0.0-68.0"},{"result":157,"points":3,"place":0,"phase":0,"sequence":49,"prices":[157,213,159,187,194,242,161,222,225,189],"times":[1615],"next_num":1,"trial_type":"ticket-choose","trial_index":69,"time_elapsed":428686,"internal_node_id":"0.0-69.0"},{"responses":[{"value":0,"offby":-1,"category":"$90 - $120","category_index":0},{"value":4,"offby":1,"category":"$121 - $145","category_index":1},{"value":1,"offby":-2,"category":"$146 - $170","category_index":2},{"value":6,"offby":0,"category":"$171 - $195","category_index":3},{"value":6,"offby":2,"category":"$196 - $220","category_index":4},{"value":3,"offby":1,"category":"$221 - $245","category_index":5},{"value":0,"offby":-1,"category":"$246 - $270","category_index":6}],"phase":0,"number":1,"trial_type":"bar-choose","trial_index":70,"time_elapsed":465003,"internal_node_id":"0.0-70.0"},{"rt":6216,"url":"\/tickets\/utils\/start2.html","trial_type":"html","trial_index":71,"time_elapsed":472570,"internal_node_id":"0.0-71.0"},{"trial_type":"number-animation","trial_index":72,"time_elapsed":478933,"internal_node_id":"0.0-72.0"},{"phase":1,"sequence":0,"avg":181,"response":170,"trial_type":"training_avg","trial_index":73,"time_elapsed":486350,"internal_node_id":"0.0-73.0"},{"trial_type":"number-animation","trial_index":74,"time_elapsed":492645,"internal_node_id":"0.0-74.0"},{"phase":1,"sequence":1,"avg":188,"response":190,"trial_type":"training_avg","trial_index":75,"time_elapsed":497352,"internal_node_id":"0.0-75.0"},{"trial_type":"number-animation","trial_index":76,"time_elapsed":503862,"internal_node_id":"0.0-76.0"},{"phase":1,"sequence":2,"avg":188,"response":182,"trial_type":"training_avg","trial_index":77,"time_elapsed":508386,"internal_node_id":"0.0-77.0"},{"trial_type":"number-animation","trial_index":78,"time_elapsed":514901,"internal_node_id":"0.0-78.0"},{"phase":1,"sequence":3,"avg":177,"response":175,"trial_type":"training_avg","trial_index":79,"time_elapsed":519006,"internal_node_id":"0.0-79.0"},{"trial_type":"number-animation","trial_index":80,"time_elapsed":525254,"internal_node_id":"0.0-80.0"},{"phase":1,"sequence":4,"avg":182,"response":160,"trial_type":"training_avg","trial_index":81,"time_elapsed":529916,"internal_node_id":"0.0-81.0"},{"responses":[{"value":0,"offby":0,"category":"$106 - $134","category_index":0},{"value":2,"offby":1,"category":"$135 - $150","category_index":1},{"value":6,"offby":3,"category":"$151 - $165","category_index":2},{"value":7,"offby":1,"category":"$166 - $180","category_index":3},{"value":4,"offby":-2,"category":"$181 - $195","category_index":4},{"value":1,"offby":-2,"category":"$196 - $210","category_index":5},{"value":0,"offby":-1,"category":"$211 - $225","category_index":6}],"phase":1,"number":0,"trial_type":"bar-choose","trial_index":82,"time_elapsed":553170,"internal_node_id":"0.0-82.0"},{"rt":10715,"url":"\/tickets\/utils\/testing2.html","trial_type":"html","trial_index":83,"time_elapsed":565241,"internal_node_id":"0.0-83.0"},{"phase":1,"order":[18,14,19,1,29,48,45,17,35,43,30,2,23,46,42,9,38,15,26,7,47,39,3,22,20,10,49,21,16,0,13,25,37,11,27,12,36,41,44,6,8,5,34,31,40,24,32,4,33,28],"trial_type":"store_order","trial_index":84,"time_elapsed":566245,"internal_node_id":"0.0-84.0"},{"result":176,"points":1,"place":3,"phase":1,"sequence":0,"prices":[176,186,176,210,179,187,163,166,153,208],"times":[826,813,1091],"next_num":3,"trial_type":"ticket-choose","trial_index":85,"time_elapsed":571191,"internal_node_id":"0.0-85.0"},{"result":158,"points":2,"place":1,"phase":1,"sequence":1,"prices":[175,186,158,209,181,188,177,167,208,154],"times":[647,490,590],"next_num":3,"trial_type":"ticket-choose","trial_index":86,"time_elapsed":575109,"internal_node_id":"0.0-86.0"},{"result":150,"points":3,"place":0,"phase":1,"sequence":2,"prices":[150,185,154,161,173,199,155,188,191,168],"times":[886],"next_num":1,"trial_type":"ticket-choose","trial_index":87,"time_elapsed":577755,"internal_node_id":"0.0-87.0"},{"result":163,"points":1,"place":2,"phase":1,"sequence":3,"prices":[183,163,185,180,166,148,160,186,176,184],"times":[532,688],"next_num":2,"trial_type":"ticket-choose","trial_index":88,"time_elapsed":580785,"internal_node_id":"0.0-88.0"},{"result":150,"points":3,"place":0,"phase":1,"sequence":4,"prices":[189,150,175,160,188,207,158,194,178,199],"times":[511,576],"next_num":2,"trial_type":"ticket-choose","trial_index":89,"time_elapsed":583923,"internal_node_id":"0.0-89.0"},{"result":152,"points":3,"place":0,"phase":1,"sequence":5,"prices":[200,181,203,152,175,171,160,154,176,191],"times":[445,573,446,678],"next_num":4,"trial_type":"ticket-choose","trial_index":90,"time_elapsed":588383,"internal_node_id":"0.0-90.0"},{"result":167,"points":2,"place":1,"phase":1,"sequence":6,"prices":[175,185,178,215,181,186,167,168,208,156],"times":[528,495,446,461,557,496,684],"next_num":7,"trial_type":"ticket-choose","trial_index":91,"time_elapsed":594931,"internal_node_id":"0.0-91.0"},{"result":161,"points":3,"place":0,"phase":1,"sequence":7,"prices":[161,193,175,181,185,224,180,199,218,184],"times":[1550],"next_num":1,"trial_type":"ticket-choose","trial_index":92,"time_elapsed":598193,"internal_node_id":"0.0-92.0"},{"result":158,"points":2,"place":1,"phase":1,"sequence":8,"prices":[176,185,158,217,180,186,177,166,209,154],"times":[542,575,569],"next_num":3,"trial_type":"ticket-choose","trial_index":93,"time_elapsed":601839,"internal_node_id":"0.0-93.0"},{"result":169,"points":1,"place":3,"phase":1,"sequence":9,"prices":[198,193,169,163,202,182,152,164,177,171],"times":[559,428,569],"next_num":3,"trial_type":"ticket-choose","trial_index":94,"time_elapsed":605359,"internal_node_id":"0.0-94.0"},{"result":167,"points":2,"place":1,"phase":1,"sequence":10,"prices":[174,186,167,211,181,188,178,168,208,156],"times":[546,430,637],"next_num":3,"trial_type":"ticket-choose","trial_index":95,"time_elapsed":608965,"internal_node_id":"0.0-95.0"},{"result":158,"points":2,"place":1,"phase":1,"sequence":11,"prices":[175,186,158,211,180,187,177,166,209,153],"times":[975,511,2151],"next_num":3,"trial_type":"ticket-choose","trial_index":96,"time_elapsed":614661,"internal_node_id":"0.0-96.0"},{"result":180,"points":0,"place":5,"phase":1,"sequence":12,"prices":[175,186,177,221,180,187,158,166,209,153],"times":[987,638,827,496,607],"next_num":5,"trial_type":"ticket-choose","trial_index":97,"time_elapsed":620907,"internal_node_id":"0.0-97.0"},{"result":165,"points":2,"place":1,"phase":1,"sequence":13,"prices":[188,200,165,172,198,174,177,154,177,180],"times":[516,429,567],"next_num":3,"trial_type":"ticket-choose","trial_index":98,"time_elapsed":624409,"internal_node_id":"0.0-98.0"},{"result":167,"points":2,"place":1,"phase":1,"sequence":14,"prices":[189,167,180,197,165,168,172,213,178,171],"times":[449,645],"next_num":2,"trial_type":"ticket-choose","trial_index":99,"time_elapsed":627267,"internal_node_id":"0.0-99.0"},{"result":168,"points":3,"place":0,"phase":1,"sequence":15,"prices":[168,192,171,178,188,217,172,195,197,186],"times":[761],"next_num":1,"trial_type":"ticket-choose","trial_index":100,"time_elapsed":629593,"internal_node_id":"0.0-100.0"},{"result":167,"points":2,"place":1,"phase":1,"sequence":16,"prices":[175,186,167,225,179,187,178,169,209,153],"times":[550,558,575],"next_num":3,"trial_type":"ticket-choose","trial_index":101,"time_elapsed":633199,"internal_node_id":"0.0-101.0"},{"result":155,"points":2,"place":1,"phase":1,"sequence":17,"prices":[201,207,155,158,156,165,167,135,178,177],"times":[479,446,607],"next_num":3,"trial_type":"ticket-choose","trial_index":102,"time_elapsed":636961,"internal_node_id":"0.0-102.0"},{"result":178,"points":1,"place":4,"phase":1,"sequence":18,"prices":[175,187,178,209,179,187,167,169,208,153],"times":[414,428,608],"next_num":3,"trial_type":"ticket-choose","trial_index":103,"time_elapsed":640397,"internal_node_id":"0.0-103.0"},{"result":159,"points":1,"place":2,"phase":1,"sequence":19,"prices":[180,159,149,175,185,141,163,174,178,207],"times":[531,584],"next_num":2,"trial_type":"ticket-choose","trial_index":104,"time_elapsed":643251,"internal_node_id":"0.0-104.0"},{"result":163,"points":3,"place":0,"phase":1,"sequence":20,"prices":[168,199,196,198,185,195,227,163,177,166],"times":[540,557,575,445,543,460,477,635],"next_num":8,"trial_type":"ticket-choose","trial_index":105,"time_elapsed":650519,"internal_node_id":"0.0-105.0"},{"result":163,"points":2,"place":1,"phase":1,"sequence":21,"prices":[175,186,176,224,179,187,163,165,153,210],"times":[871,510,429,429,426,429,631],"next_num":7,"trial_type":"ticket-choose","trial_index":106,"time_elapsed":657147,"internal_node_id":"0.0-106.0"},{"result":167,"points":2,"place":1,"phase":1,"sequence":22,"prices":[175,187,167,212,179,187,178,169,208,153],"times":[438,397,598],"next_num":3,"trial_type":"ticket-choose","trial_index":107,"time_elapsed":660557,"internal_node_id":"0.0-107.0"},{"result":163,"points":2,"place":1,"phase":1,"sequence":23,"prices":[175,187,176,209,180,188,163,165,154,208],"times":[483,460,509,461,510,494,568],"next_num":7,"trial_type":"ticket-choose","trial_index":108,"time_elapsed":666987,"internal_node_id":"0.0-108.0"},{"result":153,"points":3,"place":0,"phase":1,"sequence":24,"prices":[174,186,176,217,181,187,163,166,153,209],"times":[278,461,526,428,460,447,573,813,531],"next_num":9,"trial_type":"ticket-choose","trial_index":109,"time_elapsed":674751,"internal_node_id":"0.0-109.0"},{"result":163,"points":2,"place":1,"phase":1,"sequence":25,"prices":[176,186,163,214,179,187,176,166,153,208],"times":[367,431,696],"next_num":3,"trial_type":"ticket-choose","trial_index":110,"time_elapsed":678299,"internal_node_id":"0.0-110.0"},{"result":158,"points":2,"place":1,"phase":1,"sequence":26,"prices":[175,186,177,209,181,188,158,167,208,154],"times":[308,495,444,477,445,430,665],"next_num":7,"trial_type":"ticket-choose","trial_index":111,"time_elapsed":684321,"internal_node_id":"0.0-111.0"},{"result":158,"points":2,"place":1,"phase":1,"sequence":27,"prices":[176,185,177,218,180,186,158,166,209,154],"times":[669,524,399,413,622,493,572],"next_num":7,"trial_type":"ticket-choose","trial_index":112,"time_elapsed":690861,"internal_node_id":"0.0-112.0"},{"result":163,"points":2,"place":1,"phase":1,"sequence":28,"prices":[175,186,163,211,179,187,176,165,153,210],"times":[371,413,567],"next_num":3,"trial_type":"ticket-choose","trial_index":113,"time_elapsed":694181,"internal_node_id":"0.0-113.0"},{"result":152,"points":3,"place":0,"phase":1,"sequence":29,"prices":[152,200,158,173,182,207,161,202,204,180],"times":[496],"next_num":1,"trial_type":"ticket-choose","trial_index":114,"time_elapsed":696281,"internal_node_id":"0.0-114.0"},{"result":168,"points":1,"place":2,"phase":1,"sequence":30,"prices":[174,186,178,217,181,188,167,168,208,156],"times":[862,393,428,433,412,429,415,563],"next_num":8,"trial_type":"ticket-choose","trial_index":115,"time_elapsed":703247,"internal_node_id":"0.0-115.0"},{"result":163,"points":2,"place":1,"phase":1,"sequence":31,"prices":[174,186,163,212,181,187,176,166,153,209],"times":[399,381,664],"next_num":3,"trial_type":"ticket-choose","trial_index":116,"time_elapsed":706643,"internal_node_id":"0.0-116.0"},{"result":154,"points":2,"place":1,"phase":1,"sequence":32,"prices":[168,154,172,185,195,144,184,211,177,227],"times":[492,635],"next_num":2,"trial_type":"ticket-choose","trial_index":117,"time_elapsed":709513,"internal_node_id":"0.0-117.0"},{"result":157,"points":3,"place":0,"phase":1,"sequence":33,"prices":[201,187,157,184,198,179,188,185,178,170],"times":[471,414,553],"next_num":3,"trial_type":"ticket-choose","trial_index":118,"time_elapsed":713271,"internal_node_id":"0.0-118.0"},{"result":167,"points":2,"place":1,"phase":1,"sequence":34,"prices":[175,186,178,212,179,187,167,169,209,153],"times":[410,413,413,446,638,493,912],"next_num":7,"trial_type":"ticket-choose","trial_index":119,"time_elapsed":719733,"internal_node_id":"0.0-119.0"},{"result":155,"points":2,"place":1,"phase":1,"sequence":35,"prices":[181,155,148,161,168,187,172,199,176,194],"times":[316,649],"next_num":2,"trial_type":"ticket-choose","trial_index":120,"time_elapsed":722365,"internal_node_id":"0.0-120.0"},{"result":158,"points":3,"place":0,"phase":1,"sequence":36,"prices":[210,184,226,193,215,158,199,175,176,208],"times":[547,494,493,445,429,637],"next_num":6,"trial_type":"ticket-choose","trial_index":121,"time_elapsed":727895,"internal_node_id":"0.0-121.0"},{"result":171,"points":1,"place":2,"phase":1,"sequence":37,"prices":[169,196,170,184,187,211,171,201,202,185],"times":[319,411,412,460,431,478,805],"next_num":7,"trial_type":"ticket-choose","trial_index":122,"time_elapsed":734053,"internal_node_id":"0.0-122.0"},{"result":178,"points":1,"place":2,"phase":1,"sequence":38,"prices":[222,173,202,197,143,205,198,183,178,186],"times":[611,924,429,478,446,2608,523,606,673],"next_num":9,"trial_type":"ticket-choose","trial_index":123,"time_elapsed":744954,"internal_node_id":"0.0-123.0"},{"result":157,"points":3,"place":0,"phase":1,"sequence":39,"prices":[157,191,165,175,182,203,170,195,200,176],"times":[886],"next_num":1,"trial_type":"ticket-choose","trial_index":124,"time_elapsed":747522,"internal_node_id":"0.0-124.0"},{"result":167,"points":2,"place":1,"phase":1,"sequence":40,"prices":[175,185,167,224,181,186,178,168,208,156],"times":[575,412,617],"next_num":3,"trial_type":"ticket-choose","trial_index":125,"time_elapsed":751053,"internal_node_id":"0.0-125.0"},{"result":148,"points":3,"place":0,"phase":1,"sequence":41,"prices":[148,171,150,163,167,220,162,186,187,165],"times":[622],"next_num":1,"trial_type":"ticket-choose","trial_index":126,"time_elapsed":753088,"internal_node_id":"0.0-126.0"},{"result":169,"points":2,"place":1,"phase":1,"sequence":42,"prices":[181,215,169,147,182,193,177,184,176,179],"times":[511,446,744],"next_num":3,"trial_type":"ticket-choose","trial_index":127,"time_elapsed":756721,"internal_node_id":"0.0-127.0"},{"result":167,"points":2,"place":1,"phase":1,"sequence":43,"prices":[212,192,188,184,167,193,189,164,176,170],"times":[431,509,475,446,592],"next_num":5,"trial_type":"ticket-choose","trial_index":128,"time_elapsed":761467,"internal_node_id":"0.0-128.0"},{"result":158,"points":2,"place":1,"phase":1,"sequence":44,"prices":[176,187,158,210,181,187,177,165,208,153],"times":[457,394,661],"next_num":3,"trial_type":"ticket-choose","trial_index":129,"time_elapsed":764848,"internal_node_id":"0.0-129.0"},{"result":161,"points":3,"place":0,"phase":1,"sequence":45,"prices":[161,193,167,187,190,224,174,194,195,188],"times":[653],"next_num":1,"trial_type":"ticket-choose","trial_index":130,"time_elapsed":766925,"internal_node_id":"0.0-130.0"},{"result":156,"points":3,"place":0,"phase":1,"sequence":46,"prices":[156,201,162,166,185,214,165,202,204,179],"times":[654],"next_num":1,"trial_type":"ticket-choose","trial_index":131,"time_elapsed":768980,"internal_node_id":"0.0-131.0"},{"result":159,"points":3,"place":0,"phase":1,"sequence":47,"prices":[159,183,166,168,173,205,167,187,191,170],"times":[583],"next_num":1,"trial_type":"ticket-choose","trial_index":132,"time_elapsed":771011,"internal_node_id":"0.0-132.0"},{"result":163,"points":2,"place":1,"phase":1,"sequence":48,"prices":[175,187,163,209,180,188,176,165,154,208],"times":[544,401,622],"next_num":3,"trial_type":"ticket-choose","trial_index":133,"time_elapsed":774499,"internal_node_id":"0.0-133.0"},{"result":158,"points":2,"place":1,"phase":1,"sequence":49,"prices":[176,187,177,225,181,187,158,165,208,153],"times":[573,429,573,446,509,479,580],"next_num":7,"trial_type":"ticket-choose","trial_index":134,"time_elapsed":780909,"internal_node_id":"0.0-134.0"},{"responses":[{"value":0,"offby":0,"category":"$106 - $134","category_index":0},{"value":2,"offby":1,"category":"$135 - $150","category_index":1},{"value":5,"offby":2,"category":"$151 - $165","category_index":2},{"value":8,"offby":2,"category":"$166 - $180","category_index":3},{"value":3,"offby":-3,"category":"$181 - $195","category_index":4},{"value":2,"offby":-1,"category":"$196 - $210","category_index":5},{"value":0,"offby":-1,"category":"$211 - $225","category_index":6}],"phase":1,"number":1,"trial_type":"bar-choose","trial_index":135,"time_elapsed":802844,"internal_node_id":"0.0-135.0"},{"special_comment":"No","trial_type":"special_sequence","trial_index":136,"time_elapsed":807538,"internal_node_id":"0.0-136.0"},{"during":"Nothing","bonus":276,"trial_type":"final","trial_index":137,"time_elapsed":826818,"internal_node_id":"0.0-137.0"}],"bonus":276}