{"start_time":"2017-02-27 11:01:53","end_time":"2017-02-27 11:32:50","points_phase0":105,"points_phase1":110,"phase_order":0,"age":27,"gender":"m","tries":1,"during":"Nothing","worker_id":"A1L8EDNM7HZZAX","assignment_id":"3R8YZBNQ9IBVEMFR4XSFSAHX20Z7QF","data":[{"rt":7024,"url":"\/tickets\/utils\/consent.html","trial_type":"html","trial_index":0,"time_elapsed":7192,"internal_node_id":"0.0-0.0"},{"age":27,"gender":"m","trial_type":"age","trial_index":1,"time_elapsed":12993,"internal_node_id":"0.0-1.0"},{"worker_id":"A1L8EDNM7HZZAX","trial_type":"workerid","trial_index":2,"time_elapsed":20275,"internal_node_id":"0.0-2.0"},{"tries":1,"trial_type":"instructions_check","trial_index":3,"time_elapsed":718609,"internal_node_id":"0.0-3.0"},{"rt":11709,"url":"\/tickets\/utils\/start.html","trial_type":"html","trial_index":4,"time_elapsed":731509,"internal_node_id":"0.0-4.0"},{"trial_type":"number-animation","trial_index":5,"time_elapsed":740089,"internal_node_id":"0.0-5.0"},{"phase":0,"sequence":0,"avg":180,"response":170,"trial_type":"training_avg","trial_index":6,"time_elapsed":746419,"internal_node_id":"0.0-6.0"},{"trial_type":"number-animation","trial_index":7,"time_elapsed":755113,"internal_node_id":"0.0-7.0"},{"phase":0,"sequence":1,"avg":178,"response":175,"trial_type":"training_avg","trial_index":8,"time_elapsed":760504,"internal_node_id":"0.0-8.0"},{"trial_type":"number-animation","trial_index":9,"time_elapsed":766729,"internal_node_id":"0.0-9.0"},{"phase":0,"sequence":2,"avg":176,"response":175,"trial_type":"training_avg","trial_index":10,"time_elapsed":771382,"internal_node_id":"0.0-10.0"},{"trial_type":"number-animation","trial_index":11,"time_elapsed":778212,"internal_node_id":"0.0-11.0"},{"phase":0,"sequence":3,"avg":178,"response":180,"trial_type":"training_avg","trial_index":12,"time_elapsed":782333,"internal_node_id":"0.0-12.0"},{"trial_type":"number-animation","trial_index":13,"time_elapsed":787977,"internal_node_id":"0.0-13.0"},{"phase":0,"sequence":4,"avg":179,"response":175,"trial_type":"training_avg","trial_index":14,"time_elapsed":791854,"internal_node_id":"0.0-14.0"},{"responses":[{"value":1,"offby":1,"category":"$140 - $250","category_index":0},{"value":2,"offby":2,"category":"$151 - $160","category_index":1},{"value":3,"offby":-1,"category":"$161 - $170","category_index":2},{"value":3,"offby":-3,"category":"$171 - $180","category_index":3},{"value":6,"offby":-1,"category":"$181 - $190","category_index":4},{"value":3,"offby":0,"category":"$191 - $200","category_index":5},{"value":2,"offby":2,"category":"$201 - $210","category_index":6}],"phase":0,"number":0,"trial_type":"bar-choose","trial_index":15,"time_elapsed":828260,"internal_node_id":"0.0-15.0"},{"rt":1385,"url":"\/tickets\/\/utils\/testing.html","trial_type":"html","trial_index":16,"time_elapsed":830829,"internal_node_id":"0.0-16.0"},{"phase":0,"order":[10,27,39,45,44,12,48,5,23,1,14,2,9,7,26,47,20,19,30,36,0,4,25,40,32,22,3,29,31,49,33,24,11,37,15,46,6,28,13,41,16,34,42,8,21,38,43,35,17,18],"trial_type":"store_order","trial_index":17,"time_elapsed":831830,"internal_node_id":"0.0-17.0"},{"result":165,"points":2,"place":1,"phase":0,"sequence":-1,"prices":[184,180,224,165,181,199,185,193,218,126],"times":[2274,515,231,982],"next_num":4,"trial_type":"ticket-choose","trial_index":18,"time_elapsed":838811,"internal_node_id":"0.0-18.0"},{"rt":2064,"url":"\/tickets\/utils\/testing_after.html","trial_type":"html","trial_index":19,"time_elapsed":842048,"internal_node_id":"0.0-19.0"},{"result":166,"points":3,"place":0,"phase":0,"sequence":0,"prices":[175,180,170,195,179,184,178,174,166,185],"times":[2217,514,610,695,646,540,603,728,1024],"next_num":9,"trial_type":"ticket-choose","trial_index":20,"time_elapsed":854380,"internal_node_id":"0.0-20.0"},{"result":183,"points":1,"place":4,"phase":0,"sequence":1,"prices":[168,188,171,181,184,196,180,194,195,183],"times":[39975,521,613,524,580,1189,643,795,702,1061],"next_num":10,"trial_type":"ticket-choose","trial_index":21,"time_elapsed":904769,"internal_node_id":"0.0-21.0"},{"result":171,"points":1,"place":2,"phase":0,"sequence":2,"prices":[195,177,197,179,171,173,175,156,163,204],"times":[701,486,576,850,813],"next_num":5,"trial_type":"ticket-choose","trial_index":22,"time_elapsed":910930,"internal_node_id":"0.0-22.0"},{"result":162,"points":3,"place":0,"phase":0,"sequence":3,"prices":[179,174,172,162,202,184,165,197,185,169],"times":[1125,479,774,871],"next_num":4,"trial_type":"ticket-choose","trial_index":23,"time_elapsed":916887,"internal_node_id":"0.0-23.0"},{"result":155,"points":2,"place":1,"phase":0,"sequence":4,"prices":[175,150,164,155,171,199,158,180,184,196],"times":[493,649,636,600],"next_num":4,"trial_type":"ticket-choose","trial_index":24,"time_elapsed":921634,"internal_node_id":"0.0-24.0"},{"result":170,"points":2,"place":1,"phase":0,"sequence":5,"prices":[176,180,178,194,179,183,170,173,165,184],"times":[880,702,588,629,651,751,781],"next_num":7,"trial_type":"ticket-choose","trial_index":25,"time_elapsed":929538,"internal_node_id":"0.0-25.0"},{"result":171,"points":3,"place":0,"phase":0,"sequence":6,"prices":[193,173,175,182,179,198,181,171,176,187],"times":[670,863,719,582,605,549,548,962],"next_num":8,"trial_type":"ticket-choose","trial_index":26,"time_elapsed":938642,"internal_node_id":"0.0-26.0"},{"result":169,"points":2,"place":1,"phase":0,"sequence":7,"prices":[175,179,177,193,178,182,169,172,164,183],"times":[572,529,610,557,565,613,901],"next_num":7,"trial_type":"ticket-choose","trial_index":27,"time_elapsed":945884,"internal_node_id":"0.0-27.0"},{"result":168,"points":2,"place":1,"phase":0,"sequence":8,"prices":[173,178,176,193,177,182,168,172,164,183],"times":[671,739,625,631,614,737,895],"next_num":7,"trial_type":"ticket-choose","trial_index":28,"time_elapsed":953765,"internal_node_id":"0.0-28.0"},{"result":169,"points":2,"place":1,"phase":0,"sequence":9,"prices":[175,179,169,193,178,182,177,172,164,183],"times":[970,992,1489],"next_num":3,"trial_type":"ticket-choose","trial_index":29,"time_elapsed":959456,"internal_node_id":"0.0-29.0"},{"result":170,"points":2,"place":1,"phase":0,"sequence":10,"prices":[175,180,178,195,179,184,170,174,166,185],"times":[662,807,654,613,867,753,1231],"next_num":7,"trial_type":"ticket-choose","trial_index":30,"time_elapsed":967995,"internal_node_id":"0.0-30.0"},{"result":165,"points":3,"place":0,"phase":0,"sequence":11,"prices":[174,179,169,194,178,183,177,173,165,184],"times":[928,876,954,588,566,614,609,584,837],"next_num":9,"trial_type":"ticket-choose","trial_index":31,"time_elapsed":977969,"internal_node_id":"0.0-31.0"},{"result":170,"points":2,"place":1,"phase":0,"sequence":12,"prices":[176,180,170,194,179,183,178,173,165,184],"times":[7090,613,918],"next_num":3,"trial_type":"ticket-choose","trial_index":32,"time_elapsed":988933,"internal_node_id":"0.0-32.0"},{"result":165,"points":3,"place":0,"phase":0,"sequence":13,"prices":[174,179,177,194,178,183,169,173,165,184],"times":[1267,657,538,554,546,551,525,914,705],"next_num":9,"trial_type":"ticket-choose","trial_index":33,"time_elapsed":1033189,"internal_node_id":"0.0-33.0"},{"result":165,"points":3,"place":0,"phase":0,"sequence":14,"prices":[165,187,173,177,186,196,176,191,192,181],"times":[1292],"next_num":1,"trial_type":"ticket-choose","trial_index":34,"time_elapsed":1037237,"internal_node_id":"0.0-34.0"},{"result":174,"points":2,"place":1,"phase":0,"sequence":15,"prices":[180,175,173,177,191,190,184,196,174,181],"times":[762,489,517,537,576,488,621,788,804],"next_num":9,"trial_type":"ticket-choose","trial_index":35,"time_elapsed":1046218,"internal_node_id":"0.0-35.0"},{"result":168,"points":2,"place":1,"phase":0,"sequence":16,"prices":[174,178,176,192,177,181,168,171,163,182],"times":[828,462,787,796,660,559,782],"next_num":7,"trial_type":"ticket-choose","trial_index":36,"time_elapsed":1054077,"internal_node_id":"0.0-36.0"},{"result":168,"points":2,"place":1,"phase":0,"sequence":17,"prices":[173,178,168,193,177,182,176,172,164,183],"times":[852,727,820],"next_num":3,"trial_type":"ticket-choose","trial_index":37,"time_elapsed":1058625,"internal_node_id":"0.0-37.0"},{"result":177,"points":1,"place":4,"phase":0,"sequence":18,"prices":[160,185,170,174,182,196,173,186,194,177],"times":[662,648,626,571,572,653,507,606,570,644],"next_num":10,"trial_type":"ticket-choose","trial_index":38,"time_elapsed":1069008,"internal_node_id":"0.0-38.0"},{"result":169,"points":1,"place":2,"phase":0,"sequence":19,"prices":[189,185,169,168,167,171,180,173,174,188],"times":[11796,524,887],"next_num":3,"trial_type":"ticket-choose","trial_index":39,"time_elapsed":1084439,"internal_node_id":"0.0-39.0"},{"result":164,"points":3,"place":0,"phase":0,"sequence":20,"prices":[175,179,169,193,178,182,177,172,164,183],"times":[766,561,1166,645,666,520,613,521,812],"next_num":9,"trial_type":"ticket-choose","trial_index":40,"time_elapsed":1094021,"internal_node_id":"0.0-40.0"},{"result":169,"points":2,"place":1,"phase":0,"sequence":21,"prices":[175,179,177,193,178,182,169,172,164,183],"times":[806,533,635,611,601,593,865],"next_num":7,"trial_type":"ticket-choose","trial_index":41,"time_elapsed":1101693,"internal_node_id":"0.0-41.0"},{"result":165,"points":2,"place":1,"phase":0,"sequence":22,"prices":[163,185,165,174,181,198,173,186,187,180],"times":[1498,731,815],"next_num":3,"trial_type":"ticket-choose","trial_index":42,"time_elapsed":1106806,"internal_node_id":"0.0-42.0"},{"result":167,"points":3,"place":0,"phase":0,"sequence":23,"prices":[179,174,199,178,196,167,170,184,177,190],"times":[610,537,552,581,571,725],"next_num":6,"trial_type":"ticket-choose","trial_index":43,"time_elapsed":1113124,"internal_node_id":"0.0-43.0"},{"result":172,"points":2,"place":1,"phase":0,"sequence":24,"prices":[171,180,172,174,179,188,173,183,186,175],"times":[595,872,1206],"next_num":3,"trial_type":"ticket-choose","trial_index":44,"time_elapsed":1117978,"internal_node_id":"0.0-44.0"},{"result":168,"points":2,"place":1,"phase":0,"sequence":25,"prices":[173,178,176,193,177,182,168,172,164,183],"times":[944,838,626,651,644,666,918],"next_num":7,"trial_type":"ticket-choose","trial_index":45,"time_elapsed":1126146,"internal_node_id":"0.0-45.0"},{"result":169,"points":2,"place":1,"phase":0,"sequence":26,"prices":[174,179,169,194,178,183,177,173,165,184],"times":[782,1207,889],"next_num":3,"trial_type":"ticket-choose","trial_index":46,"time_elapsed":1131119,"internal_node_id":"0.0-46.0"},{"result":172,"points":1,"place":2,"phase":0,"sequence":27,"prices":[166,190,170,173,178,203,172,192,198,174],"times":[1001,522,531,547,665,833,1173],"next_num":7,"trial_type":"ticket-choose","trial_index":47,"time_elapsed":1139364,"internal_node_id":"0.0-47.0"},{"result":157,"points":3,"place":0,"phase":0,"sequence":28,"prices":[157,184,163,174,181,190,168,187,189,177],"times":[855],"next_num":1,"trial_type":"ticket-choose","trial_index":48,"time_elapsed":1141930,"internal_node_id":"0.0-48.0"},{"result":170,"points":2,"place":1,"phase":0,"sequence":29,"prices":[175,189,193,170,179,165,180,186,177,184],"times":[510,778,772,1118],"next_num":4,"trial_type":"ticket-choose","trial_index":49,"time_elapsed":1147441,"internal_node_id":"0.0-49.0"},{"result":179,"points":1,"place":4,"phase":0,"sequence":30,"prices":[170,183,172,175,180,189,174,187,188,179],"times":[495,587,938,612,805,633,717,552,804,585],"next_num":10,"trial_type":"ticket-choose","trial_index":50,"time_elapsed":1157898,"internal_node_id":"0.0-50.0"},{"result":161,"points":3,"place":0,"phase":0,"sequence":31,"prices":[161,180,170,174,178,198,173,182,188,176],"times":[918],"next_num":1,"trial_type":"ticket-choose","trial_index":51,"time_elapsed":1160555,"internal_node_id":"0.0-51.0"},{"result":170,"points":2,"place":1,"phase":0,"sequence":32,"prices":[175,180,170,195,179,184,178,174,166,185],"times":[977,621,754],"next_num":3,"trial_type":"ticket-choose","trial_index":52,"time_elapsed":1165022,"internal_node_id":"0.0-52.0"},{"result":168,"points":2,"place":1,"phase":0,"sequence":33,"prices":[181,175,182,168,183,173,153,170,193,179],"times":[718,672,555,778],"next_num":4,"trial_type":"ticket-choose","trial_index":53,"time_elapsed":1170012,"internal_node_id":"0.0-53.0"},{"result":175,"points":1,"place":3,"phase":0,"sequence":34,"prices":[175,180,178,195,179,184,170,174,166,185],"times":[1066],"next_num":1,"trial_type":"ticket-choose","trial_index":54,"time_elapsed":1172850,"internal_node_id":"0.0-54.0"},{"result":166,"points":3,"place":0,"phase":0,"sequence":35,"prices":[179,186,197,201,166,187,188,193,190,177],"times":[567,522,579,629,739],"next_num":5,"trial_type":"ticket-choose","trial_index":55,"time_elapsed":1178349,"internal_node_id":"0.0-55.0"},{"result":169,"points":2,"place":1,"phase":0,"sequence":36,"prices":[174,179,177,194,178,183,169,173,165,184],"times":[715,630,588,604,552,683,758],"next_num":7,"trial_type":"ticket-choose","trial_index":56,"time_elapsed":1185827,"internal_node_id":"0.0-56.0"},{"result":159,"points":3,"place":0,"phase":0,"sequence":37,"prices":[159,178,170,174,176,194,173,182,185,175],"times":[840],"next_num":1,"trial_type":"ticket-choose","trial_index":57,"time_elapsed":1188305,"internal_node_id":"0.0-57.0"},{"result":170,"points":2,"place":1,"phase":0,"sequence":38,"prices":[176,180,178,194,179,183,170,173,165,184],"times":[560,623,813,825,802,685,767],"next_num":7,"trial_type":"ticket-choose","trial_index":58,"time_elapsed":1196721,"internal_node_id":"0.0-58.0"},{"result":165,"points":3,"place":0,"phase":0,"sequence":39,"prices":[180,165,177,193,186,196,187,169,171,182],"times":[745,681],"next_num":2,"trial_type":"ticket-choose","trial_index":59,"time_elapsed":1200082,"internal_node_id":"0.0-59.0"},{"result":168,"points":2,"place":1,"phase":0,"sequence":40,"prices":[174,178,168,192,177,181,176,171,163,182],"times":[753,545,712],"next_num":3,"trial_type":"ticket-choose","trial_index":60,"time_elapsed":1204191,"internal_node_id":"0.0-60.0"},{"result":165,"points":2,"place":1,"phase":0,"sequence":41,"prices":[181,180,191,186,165,197,159,167,194,185],"times":[593,551,589,520,772],"next_num":5,"trial_type":"ticket-choose","trial_index":61,"time_elapsed":1209794,"internal_node_id":"0.0-61.0"},{"result":175,"points":1,"place":3,"phase":0,"sequence":42,"prices":[175,193,175,160,180,170,175,205,177,167],"times":[594,581,898],"next_num":3,"trial_type":"ticket-choose","trial_index":62,"time_elapsed":1214020,"internal_node_id":"0.0-62.0"},{"result":179,"points":0,"place":5,"phase":0,"sequence":43,"prices":[176,180,170,194,179,183,178,173,165,184],"times":[1117,564,772,638,958],"next_num":5,"trial_type":"ticket-choose","trial_index":63,"time_elapsed":1220646,"internal_node_id":"0.0-63.0"},{"result":168,"points":2,"place":1,"phase":0,"sequence":44,"prices":[174,178,176,192,177,181,168,171,163,182],"times":[694,483,574,617,688,619,718],"next_num":7,"trial_type":"ticket-choose","trial_index":64,"time_elapsed":1227960,"internal_node_id":"0.0-64.0"},{"result":170,"points":3,"place":0,"phase":0,"sequence":45,"prices":[181,179,199,188,170,172,178,187,191,177],"times":[666,587,608,719,1464],"next_num":5,"trial_type":"ticket-choose","trial_index":65,"time_elapsed":1234551,"internal_node_id":"0.0-65.0"},{"result":157,"points":2,"place":1,"phase":0,"sequence":46,"prices":[188,191,179,157,181,164,166,156,175,182],"times":[8954,728,885,740],"next_num":4,"trial_type":"ticket-choose","trial_index":66,"time_elapsed":1248147,"internal_node_id":"0.0-66.0"},{"result":154,"points":3,"place":0,"phase":0,"sequence":47,"prices":[188,179,154,183,173,170,177,160,169,175],"times":[608,609,824],"next_num":3,"trial_type":"ticket-choose","trial_index":67,"time_elapsed":1252457,"internal_node_id":"0.0-67.0"},{"result":168,"points":2,"place":1,"phase":0,"sequence":48,"prices":[174,178,168,192,177,181,176,171,163,182],"times":[502,528,790],"next_num":3,"trial_type":"ticket-choose","trial_index":68,"time_elapsed":1256625,"internal_node_id":"0.0-68.0"},{"result":168,"points":2,"place":1,"phase":0,"sequence":49,"prices":[173,178,168,193,177,182,176,172,164,183],"times":[573,462,683],"next_num":3,"trial_type":"ticket-choose","trial_index":69,"time_elapsed":1260461,"internal_node_id":"0.0-69.0"},{"responses":[{"value":0,"offby":0,"category":"$140 - $250","category_index":0},{"value":1,"offby":1,"category":"$151 - $160","category_index":1},{"value":5,"offby":1,"category":"$161 - $170","category_index":2},{"value":11,"offby":5,"category":"$171 - $180","category_index":3},{"value":3,"offby":-4,"category":"$181 - $190","category_index":4},{"value":0,"offby":-3,"category":"$191 - $200","category_index":5},{"value":0,"offby":0,"category":"$201 - $210","category_index":6}],"phase":0,"number":1,"trial_type":"bar-choose","trial_index":70,"time_elapsed":1276502,"internal_node_id":"0.0-70.0"},{"rt":4654,"url":"\/tickets\/utils\/start2.html","trial_type":"html","trial_index":71,"time_elapsed":1282432,"internal_node_id":"0.0-71.0"},{"trial_type":"number-animation","trial_index":72,"time_elapsed":1289875,"internal_node_id":"0.0-72.0"},{"phase":1,"sequence":0,"avg":166,"response":130,"trial_type":"training_avg","trial_index":73,"time_elapsed":1294880,"internal_node_id":"0.0-73.0"},{"trial_type":"number-animation","trial_index":74,"time_elapsed":1301259,"internal_node_id":"0.0-74.0"},{"phase":1,"sequence":1,"avg":198,"response":147,"trial_type":"training_avg","trial_index":75,"time_elapsed":1307235,"internal_node_id":"0.0-75.0"},{"trial_type":"number-animation","trial_index":76,"time_elapsed":1313423,"internal_node_id":"0.0-76.0"},{"phase":1,"sequence":2,"avg":177,"response":181,"trial_type":"training_avg","trial_index":77,"time_elapsed":1319342,"internal_node_id":"0.0-77.0"},{"trial_type":"number-animation","trial_index":78,"time_elapsed":1325739,"internal_node_id":"0.0-78.0"},{"phase":1,"sequence":3,"avg":190,"response":200,"trial_type":"training_avg","trial_index":79,"time_elapsed":1330513,"internal_node_id":"0.0-79.0"},{"trial_type":"number-animation","trial_index":80,"time_elapsed":1337409,"internal_node_id":"0.0-80.0"},{"phase":1,"sequence":4,"avg":201,"response":196,"trial_type":"training_avg","trial_index":81,"time_elapsed":1347006,"internal_node_id":"0.0-81.0"},{"responses":[{"value":0,"offby":-1,"category":"$30 - $75","category_index":0},{"value":0,"offby":-2,"category":"$76 - $120","category_index":1},{"value":4,"offby":0,"category":"$121 - $165","category_index":2},{"value":9,"offby":3,"category":"$166 - $210","category_index":3},{"value":4,"offby":-2,"category":"$211 - $255","category_index":4},{"value":3,"offby":2,"category":"$256 - $300","category_index":5},{"value":0,"offby":0,"category":"$301 - $345","category_index":6}],"phase":1,"number":0,"trial_type":"bar-choose","trial_index":82,"time_elapsed":1362445,"internal_node_id":"0.0-82.0"},{"rt":2268,"url":"\/tickets\/utils\/testing2.html","trial_type":"html","trial_index":83,"time_elapsed":1365948,"internal_node_id":"0.0-83.0"},{"phase":1,"order":[35,5,37,18,31,19,27,22,6,44,39,36,24,9,49,32,25,12,21,23,15,10,38,16,40,17,29,7,48,13,46,20,8,14,3,1,33,42,26,11,30,45,2,34,0,28,43,41,47,4],"trial_type":"store_order","trial_index":84,"time_elapsed":1366950,"internal_node_id":"0.0-84.0"},{"result":51,"points":3,"place":0,"phase":1,"sequence":0,"prices":[221,175,51,196,146,130,166,80,126,156],"times":[6615,851,704],"next_num":3,"trial_type":"ticket-choose","trial_index":85,"time_elapsed":1377438,"internal_node_id":"0.0-85.0"},{"result":156,"points":1,"place":3,"phase":1,"sequence":1,"prices":[156,176,165,246,171,190,126,141,101,196],"times":[1302],"next_num":1,"trial_type":"ticket-choose","trial_index":86,"time_elapsed":1380620,"internal_node_id":"0.0-86.0"},{"result":156,"points":1,"place":4,"phase":1,"sequence":2,"prices":[186,156,191,120,195,145,45,130,246,176],"times":[721,1332],"next_num":2,"trial_type":"ticket-choose","trial_index":87,"time_elapsed":1384711,"internal_node_id":"0.0-87.0"},{"result":120,"points":2,"place":1,"phase":1,"sequence":3,"prices":[146,171,120,245,165,191,160,140,100,196],"times":[555,570,909],"next_num":3,"trial_type":"ticket-choose","trial_index":88,"time_elapsed":1388916,"internal_node_id":"0.0-88.0"},{"result":66,"points":3,"place":0,"phase":1,"sequence":4,"prices":[66,201,96,150,185,230,121,216,225,165],"times":[683],"next_num":1,"trial_type":"ticket-choose","trial_index":89,"time_elapsed":1391316,"internal_node_id":"0.0-89.0"},{"result":121,"points":2,"place":1,"phase":1,"sequence":5,"prices":[146,170,121,245,166,190,161,141,100,195],"times":[1424,1186,938],"next_num":3,"trial_type":"ticket-choose","trial_index":90,"time_elapsed":1396936,"internal_node_id":"0.0-90.0"},{"result":196,"points":1,"place":4,"phase":1,"sequence":6,"prices":[120,221,135,185,200,261,181,251,255,196],"times":[964,533,1148,494,609,560,740,557,483,795],"next_num":10,"trial_type":"ticket-choose","trial_index":91,"time_elapsed":1407636,"internal_node_id":"0.0-91.0"},{"result":120,"points":2,"place":1,"phase":1,"sequence":7,"prices":[145,171,161,245,165,191,120,140,100,196],"times":[1137,916,595,881,641,617,1012],"next_num":7,"trial_type":"ticket-choose","trial_index":92,"time_elapsed":1416490,"internal_node_id":"0.0-92.0"},{"result":126,"points":2,"place":1,"phase":1,"sequence":8,"prices":[150,175,166,251,170,196,126,145,105,201],"times":[814,511,589,619,707,585,1015],"next_num":7,"trial_type":"ticket-choose","trial_index":93,"time_elapsed":1424410,"internal_node_id":"0.0-93.0"},{"result":30,"points":3,"place":0,"phase":1,"sequence":9,"prices":[155,30,101,55,136,276,70,181,200,261],"times":[1196,760],"next_num":2,"trial_type":"ticket-choose","trial_index":94,"time_elapsed":1428263,"internal_node_id":"0.0-94.0"},{"result":145,"points":1,"place":3,"phase":1,"sequence":10,"prices":[255,166,266,175,136,145,155,61,96,301],"times":[527,806,647,585,831,1246],"next_num":6,"trial_type":"ticket-choose","trial_index":95,"time_elapsed":1436142,"internal_node_id":"0.0-95.0"},{"result":125,"points":1,"place":2,"phase":1,"sequence":11,"prices":[226,205,125,120,115,135,180,145,150,220],"times":[892,534,1466],"next_num":3,"trial_type":"ticket-choose","trial_index":96,"time_elapsed":1441173,"internal_node_id":"0.0-96.0"},{"result":86,"points":3,"place":0,"phase":1,"sequence":12,"prices":[86,180,130,151,170,271,145,191,220,160],"times":[702],"next_num":1,"trial_type":"ticket-choose","trial_index":97,"time_elapsed":1443574,"internal_node_id":"0.0-97.0"},{"result":105,"points":3,"place":0,"phase":1,"sequence":13,"prices":[160,180,130,251,176,195,170,146,105,200],"times":[704,577,913,572,636,613,566,1244,742],"next_num":9,"trial_type":"ticket-choose","trial_index":98,"time_elapsed":1453537,"internal_node_id":"0.0-98.0"},{"result":106,"points":3,"place":0,"phase":1,"sequence":14,"prices":[155,225,245,130,176,106,180,211,165,200],"times":[901,543,552,852,731,638],"next_num":6,"trial_type":"ticket-choose","trial_index":99,"time_elapsed":1460449,"internal_node_id":"0.0-99.0"},{"result":155,"points":1,"place":4,"phase":1,"sequence":15,"prices":[135,180,141,151,175,220,145,196,211,155],"times":[669,577,1044,609,548,542,589,555,533,988],"next_num":10,"trial_type":"ticket-choose","trial_index":100,"time_elapsed":1471185,"internal_node_id":"0.0-100.0"},{"result":95,"points":3,"place":0,"phase":1,"sequence":16,"prices":[95,205,106,151,186,271,145,210,215,181],"times":[1104],"next_num":1,"trial_type":"ticket-choose","trial_index":101,"time_elapsed":1474059,"internal_node_id":"0.0-101.0"},{"result":131,"points":2,"place":1,"phase":1,"sequence":17,"prices":[161,180,171,250,176,195,131,146,105,201],"times":[814,655,597,618,808,557,868],"next_num":7,"trial_type":"ticket-choose","trial_index":102,"time_elapsed":1482247,"internal_node_id":"0.0-102.0"},{"result":120,"points":2,"place":1,"phase":1,"sequence":18,"prices":[150,170,160,241,166,186,120,136,96,191],"times":[1136,592,496,574,528,666,776],"next_num":7,"trial_type":"ticket-choose","trial_index":103,"time_elapsed":1489946,"internal_node_id":"0.0-103.0"},{"result":120,"points":2,"place":1,"phase":1,"sequence":19,"prices":[145,170,160,245,165,190,120,141,100,195],"times":[789,566,709,868,523,619,1016],"next_num":7,"trial_type":"ticket-choose","trial_index":104,"time_elapsed":1498155,"internal_node_id":"0.0-104.0"},{"result":131,"points":2,"place":1,"phase":1,"sequence":20,"prices":[156,181,171,256,175,200,131,150,110,206],"times":[954,547,546,589,555,616,852],"next_num":7,"trial_type":"ticket-choose","trial_index":105,"time_elapsed":1505870,"internal_node_id":"0.0-105.0"},{"result":111,"points":3,"place":0,"phase":1,"sequence":21,"prices":[156,181,131,256,176,200,171,151,111,206],"times":[975,720,984,846,532,673,728,908,1075],"next_num":9,"trial_type":"ticket-choose","trial_index":106,"time_elapsed":1516800,"internal_node_id":"0.0-106.0"},{"result":130,"points":3,"place":0,"phase":1,"sequence":22,"prices":[185,175,276,221,130,141,171,216,235,165],"times":[996,617,559,516,964],"next_num":5,"trial_type":"ticket-choose","trial_index":107,"time_elapsed":1523389,"internal_node_id":"0.0-107.0"},{"result":121,"points":2,"place":1,"phase":1,"sequence":23,"prices":[150,171,121,241,165,185,160,136,95,191],"times":[580,521,1848],"next_num":3,"trial_type":"ticket-choose","trial_index":108,"time_elapsed":1528438,"internal_node_id":"0.0-108.0"},{"result":116,"points":3,"place":0,"phase":1,"sequence":24,"prices":[176,150,276,171,261,116,130,201,166,231],"times":[816,590,588,630,555,904],"next_num":6,"trial_type":"ticket-choose","trial_index":109,"time_elapsed":1535268,"internal_node_id":"0.0-109.0"},{"result":120,"points":2,"place":1,"phase":1,"sequence":25,"prices":[150,171,120,241,165,185,160,135,96,190],"times":[980,652,920],"next_num":3,"trial_type":"ticket-choose","trial_index":110,"time_elapsed":1539890,"internal_node_id":"0.0-110.0"},{"result":111,"points":3,"place":0,"phase":1,"sequence":26,"prices":[111,231,131,146,171,295,141,241,271,150],"times":[862],"next_num":1,"trial_type":"ticket-choose","trial_index":111,"time_elapsed":1542369,"internal_node_id":"0.0-111.0"},{"result":126,"points":2,"place":1,"phase":1,"sequence":27,"prices":[151,175,166,251,170,195,126,146,105,201],"times":[582,546,615,734,745,672,739],"next_num":7,"trial_type":"ticket-choose","trial_index":112,"time_elapsed":1550014,"internal_node_id":"0.0-112.0"},{"result":136,"points":3,"place":0,"phase":1,"sequence":28,"prices":[246,145,155,191,176,270,185,136,160,215],"times":[1040,522,504,556,536,551,614,868],"next_num":8,"trial_type":"ticket-choose","trial_index":113,"time_elapsed":1558348,"internal_node_id":"0.0-113.0"},{"result":131,"points":2,"place":1,"phase":1,"sequence":29,"prices":[160,180,170,251,176,195,131,146,105,200],"times":[1129,759,616,524,732,603,788],"next_num":7,"trial_type":"ticket-choose","trial_index":114,"time_elapsed":1566429,"internal_node_id":"0.0-114.0"},{"result":111,"points":3,"place":0,"phase":1,"sequence":30,"prices":[175,211,266,286,111,216,220,245,230,165],"times":[19628,591,516,523,825],"next_num":5,"trial_type":"ticket-choose","trial_index":115,"time_elapsed":1591251,"internal_node_id":"0.0-115.0"},{"result":121,"points":2,"place":1,"phase":1,"sequence":31,"prices":[150,170,160,240,166,185,121,136,95,191],"times":[37448,527,471,516,587,470,975],"next_num":7,"trial_type":"ticket-choose","trial_index":116,"time_elapsed":1635221,"internal_node_id":"0.0-116.0"},{"result":201,"points":0,"place":8,"phase":1,"sequence":32,"prices":[161,180,131,251,175,196,171,146,105,201],"times":[1971,444,769,474,442,541,537,509,485,1090],"next_num":10,"trial_type":"ticket-choose","trial_index":117,"time_elapsed":1646046,"internal_node_id":"0.0-117.0"},{"result":130,"points":2,"place":1,"phase":1,"sequence":33,"prices":[155,181,170,255,176,200,130,150,110,205],"times":[1463,585,544,584,561,3334,757],"next_num":7,"trial_type":"ticket-choose","trial_index":118,"time_elapsed":1656786,"internal_node_id":"0.0-118.0"},{"result":126,"points":2,"place":1,"phase":1,"sequence":34,"prices":[150,176,126,251,171,195,165,145,105,200],"times":[6737,656,808],"next_num":3,"trial_type":"ticket-choose","trial_index":119,"time_elapsed":1667256,"internal_node_id":"0.0-119.0"},{"result":125,"points":2,"place":1,"phase":1,"sequence":35,"prices":[156,175,125,245,170,190,165,140,101,196],"times":[673,567,912],"next_num":3,"trial_type":"ticket-choose","trial_index":120,"time_elapsed":1671528,"internal_node_id":"0.0-120.0"},{"result":150,"points":1,"place":2,"phase":1,"sequence":36,"prices":[130,195,141,155,181,226,150,216,221,175],"times":[736,504,1141,34487,513,683,843],"next_num":7,"trial_type":"ticket-choose","trial_index":121,"time_elapsed":1713587,"internal_node_id":"0.0-121.0"},{"result":81,"points":3,"place":0,"phase":1,"sequence":37,"prices":[155,245,155,81,180,130,156,306,166,115],"times":[4544,485,1473,823],"next_num":4,"trial_type":"ticket-choose","trial_index":122,"time_elapsed":1723516,"internal_node_id":"0.0-122.0"},{"result":105,"points":3,"place":0,"phase":1,"sequence":38,"prices":[105,216,146,165,210,260,161,235,241,185],"times":[3778],"next_num":1,"trial_type":"ticket-choose","trial_index":123,"time_elapsed":1729065,"internal_node_id":"0.0-123.0"},{"result":130,"points":2,"place":1,"phase":1,"sequence":39,"prices":[156,181,130,255,175,200,170,150,111,205],"times":[5228,527,818],"next_num":3,"trial_type":"ticket-choose","trial_index":124,"time_elapsed":1737733,"internal_node_id":"0.0-124.0"},{"result":81,"points":3,"place":0,"phase":1,"sequence":40,"prices":[81,205,130,151,191,261,145,210,250,165],"times":[740],"next_num":1,"trial_type":"ticket-choose","trial_index":125,"time_elapsed":1740320,"internal_node_id":"0.0-125.0"},{"result":91,"points":3,"place":0,"phase":1,"sequence":41,"prices":[176,150,141,91,290,201,106,266,206,126],"times":[1364,997,848,1194],"next_num":4,"trial_type":"ticket-choose","trial_index":126,"time_elapsed":1747457,"internal_node_id":"0.0-126.0"},{"result":126,"points":2,"place":1,"phase":1,"sequence":42,"prices":[151,176,126,251,170,196,165,145,105,201],"times":[611,495,821],"next_num":3,"trial_type":"ticket-choose","trial_index":127,"time_elapsed":1751467,"internal_node_id":"0.0-127.0"},{"result":106,"points":2,"place":1,"phase":1,"sequence":43,"prices":[185,180,235,210,106,266,76,115,250,205],"times":[512,459,631,543,805],"next_num":5,"trial_type":"ticket-choose","trial_index":128,"time_elapsed":1756874,"internal_node_id":"0.0-128.0"},{"result":126,"points":2,"place":1,"phase":1,"sequence":44,"prices":[156,175,126,246,170,190,165,140,100,196],"times":[608,585,828],"next_num":3,"trial_type":"ticket-choose","trial_index":129,"time_elapsed":1761237,"internal_node_id":"0.0-129.0"},{"result":75,"points":3,"place":0,"phase":1,"sequence":45,"prices":[75,171,131,151,161,250,145,190,206,156],"times":[754],"next_num":1,"trial_type":"ticket-choose","trial_index":130,"time_elapsed":1763629,"internal_node_id":"0.0-130.0"},{"result":65,"points":2,"place":1,"phase":1,"sequence":46,"prices":[220,236,176,65,185,101,110,61,156,191],"times":[463,498,625,729],"next_num":4,"trial_type":"ticket-choose","trial_index":131,"time_elapsed":1768212,"internal_node_id":"0.0-131.0"},{"result":106,"points":3,"place":0,"phase":1,"sequence":47,"prices":[180,106,166,245,211,261,215,125,135,190],"times":[582,899],"next_num":2,"trial_type":"ticket-choose","trial_index":132,"time_elapsed":1771751,"internal_node_id":"0.0-132.0"},{"result":150,"points":2,"place":1,"phase":1,"sequence":48,"prices":[181,156,145,165,236,231,201,260,150,185],"times":[498,535,639,536,547,556,588,506,814],"next_num":9,"trial_type":"ticket-choose","trial_index":133,"time_elapsed":1780324,"internal_node_id":"0.0-133.0"},{"result":125,"points":2,"place":1,"phase":1,"sequence":49,"prices":[155,175,166,245,171,190,125,140,101,196],"times":[755,539,679,532,547,674,958],"next_num":7,"trial_type":"ticket-choose","trial_index":134,"time_elapsed":1787976,"internal_node_id":"0.0-134.0"},{"responses":[{"value":0,"offby":-1,"category":"$30 - $75","category_index":0},{"value":0,"offby":-2,"category":"$76 - $120","category_index":1},{"value":4,"offby":0,"category":"$121 - $165","category_index":2},{"value":6,"offby":0,"category":"$166 - $210","category_index":3},{"value":8,"offby":2,"category":"$211 - $255","category_index":4},{"value":2,"offby":1,"category":"$256 - $300","category_index":5},{"value":0,"offby":0,"category":"$301 - $345","category_index":6}],"phase":1,"number":1,"trial_type":"bar-choose","trial_index":135,"time_elapsed":1798843,"internal_node_id":"0.0-135.0"},{"special_comment":"No","trial_type":"special_sequence","trial_index":136,"time_elapsed":1804560,"internal_node_id":"0.0-136.0"},{"during":"Nothing","bonus":288,"trial_type":"final","trial_index":137,"time_elapsed":1853608,"internal_node_id":"0.0-137.0"}],"bonus":288}