{"start_time":"2017-02-21 10:48:42","end_time":"2017-02-21 11:11:04","points_phase0":108,"points_phase1":111,"phase_order":0,"age":37,"gender":"m","tries":1,"during":"Nothing","worker_id":"A1M1F4BFYRK6JP","assignment_id":"3SB4CE2TJWOX6LE1XEZRW9FG0LXXAI","data":[{"rt":10971,"url":"\/tickets\/utils\/consent.html","trial_type":"html","trial_index":0,"time_elapsed":11138,"internal_node_id":"0.0-0.0"},{"age":37,"gender":"m","trial_type":"age","trial_index":1,"time_elapsed":19654,"internal_node_id":"0.0-1.0"},{"worker_id":"A1M1F4BFYRK6JP","trial_type":"workerid","trial_index":2,"time_elapsed":25080,"internal_node_id":"0.0-2.0"},{"tries":1,"trial_type":"instructions_check","trial_index":3,"time_elapsed":79533,"internal_node_id":"0.0-3.0"},{"rt":37861,"url":"\/tickets\/utils\/start.html","trial_type":"html","trial_index":4,"time_elapsed":118530,"internal_node_id":"0.0-4.0"},{"trial_type":"number-animation","trial_index":5,"time_elapsed":133385,"internal_node_id":"0.0-5.0"},{"phase":0,"sequence":0,"avg":181,"response":180,"trial_type":"training_avg","trial_index":6,"time_elapsed":142441,"internal_node_id":"0.0-6.0"},{"trial_type":"number-animation","trial_index":7,"time_elapsed":157545,"internal_node_id":"0.0-7.0"},{"phase":0,"sequence":1,"avg":188,"response":181,"trial_type":"training_avg","trial_index":8,"time_elapsed":164728,"internal_node_id":"0.0-8.0"},{"trial_type":"number-animation","trial_index":9,"time_elapsed":182363,"internal_node_id":"0.0-9.0"},{"phase":0,"sequence":2,"avg":188,"response":185,"trial_type":"training_avg","trial_index":10,"time_elapsed":189005,"internal_node_id":"0.0-10.0"},{"trial_type":"number-animation","trial_index":11,"time_elapsed":199163,"internal_node_id":"0.0-11.0"},{"phase":0,"sequence":3,"avg":177,"response":165,"trial_type":"training_avg","trial_index":12,"time_elapsed":205636,"internal_node_id":"0.0-12.0"},{"trial_type":"number-animation","trial_index":13,"time_elapsed":217896,"internal_node_id":"0.0-13.0"},{"phase":0,"sequence":4,"avg":182,"response":175,"trial_type":"training_avg","trial_index":14,"time_elapsed":223898,"internal_node_id":"0.0-14.0"},{"responses":[{"value":1,"offby":1,"category":"$106 - $134","category_index":0},{"value":2,"offby":1,"category":"$135 - $150","category_index":1},{"value":3,"offby":0,"category":"$151 - $165","category_index":2},{"value":5,"offby":-1,"category":"$166 - $180","category_index":3},{"value":6,"offby":0,"category":"$181 - $195","category_index":4},{"value":2,"offby":-1,"category":"$196 - $210","category_index":5},{"value":1,"offby":0,"category":"$211 - $225","category_index":6}],"phase":0,"number":0,"trial_type":"bar-choose","trial_index":15,"time_elapsed":295188,"internal_node_id":"0.0-15.0"},{"rt":16391,"url":"\/tickets\/\/utils\/testing.html","trial_type":"html","trial_index":16,"time_elapsed":312712,"internal_node_id":"0.0-16.0"},{"phase":0,"order":[30,48,45,21,7,12,40,39,38,32,44,46,19,27,22,13,24,49,18,1,34,5,11,29,2,43,8,17,0,15,26,42,10,31,37,47,28,16,23,36,14,6,33,9,4,25,41,3,20,35],"trial_type":"store_order","trial_index":17,"time_elapsed":313715,"internal_node_id":"0.0-17.0"},{"result":126,"points":3,"place":0,"phase":0,"sequence":-1,"prices":[184,180,224,165,181,199,185,193,218,126],"times":[2430,908,814,1234,690,728,775,815,809,2129],"next_num":10,"trial_type":"ticket-choose","trial_index":18,"time_elapsed":329656,"internal_node_id":"0.0-18.0"},{"rt":51066,"url":"\/tickets\/utils\/testing_after.html","trial_type":"html","trial_index":19,"time_elapsed":381867,"internal_node_id":"0.0-19.0"},{"result":176,"points":1,"place":4,"phase":0,"sequence":0,"prices":[157,191,165,175,182,203,170,195,200,176],"times":[2895,510,487,488,551,557,523,579,599,872],"next_num":10,"trial_type":"ticket-choose","trial_index":20,"time_elapsed":395061,"internal_node_id":"0.0-20.0"},{"result":147,"points":3,"place":0,"phase":0,"sequence":1,"prices":[181,215,169,147,182,193,177,184,176,179],"times":[1159,649,2947,1686],"next_num":4,"trial_type":"ticket-choose","trial_index":21,"time_elapsed":405650,"internal_node_id":"0.0-21.0"},{"result":164,"points":3,"place":0,"phase":0,"sequence":2,"prices":[212,192,188,184,167,193,189,164,176,170],"times":[1128,539,534,506,892,579,511,1178],"next_num":8,"trial_type":"ticket-choose","trial_index":22,"time_elapsed":415185,"internal_node_id":"0.0-22.0"},{"result":158,"points":2,"place":1,"phase":0,"sequence":3,"prices":[175,186,177,209,181,188,158,167,208,154],"times":[1137,617,949,584,587,614,1044],"next_num":7,"trial_type":"ticket-choose","trial_index":23,"time_elapsed":424139,"internal_node_id":"0.0-23.0"},{"result":163,"points":2,"place":1,"phase":0,"sequence":4,"prices":[175,186,176,224,179,187,163,165,153,210],"times":[1830,544,957,647,740,616,1324],"next_num":7,"trial_type":"ticket-choose","trial_index":24,"time_elapsed":434083,"internal_node_id":"0.0-24.0"},{"result":167,"points":2,"place":1,"phase":0,"sequence":5,"prices":[174,186,178,217,181,188,167,168,208,156],"times":[1230,599,568,579,538,618,1101],"next_num":7,"trial_type":"ticket-choose","trial_index":25,"time_elapsed":442577,"internal_node_id":"0.0-25.0"},{"result":150,"points":3,"place":0,"phase":0,"sequence":6,"prices":[189,150,175,160,188,207,158,194,178,199],"times":[1122,1135],"next_num":2,"trial_type":"ticket-choose","trial_index":26,"time_elapsed":447346,"internal_node_id":"0.0-26.0"},{"result":167,"points":2,"place":1,"phase":0,"sequence":7,"prices":[189,167,180,197,165,168,172,213,178,171],"times":[1016,1411],"next_num":2,"trial_type":"ticket-choose","trial_index":27,"time_elapsed":452107,"internal_node_id":"0.0-27.0"},{"result":168,"points":1,"place":2,"phase":0,"sequence":8,"prices":[168,199,196,198,185,195,227,163,177,166],"times":[1315],"next_num":1,"trial_type":"ticket-choose","trial_index":28,"time_elapsed":455543,"internal_node_id":"0.0-28.0"},{"result":161,"points":3,"place":0,"phase":0,"sequence":9,"prices":[161,193,167,187,190,224,174,194,195,188],"times":[1219],"next_num":1,"trial_type":"ticket-choose","trial_index":29,"time_elapsed":459232,"internal_node_id":"0.0-29.0"},{"result":159,"points":1,"place":2,"phase":0,"sequence":10,"prices":[180,159,149,175,185,141,163,174,178,207],"times":[806,930],"next_num":2,"trial_type":"ticket-choose","trial_index":30,"time_elapsed":463564,"internal_node_id":"0.0-30.0"},{"result":158,"points":3,"place":0,"phase":0,"sequence":11,"prices":[210,184,226,193,215,158,199,175,176,208],"times":[891,699,758,656,584,1014],"next_num":6,"trial_type":"ticket-choose","trial_index":31,"time_elapsed":471451,"internal_node_id":"0.0-31.0"},{"result":158,"points":2,"place":1,"phase":0,"sequence":12,"prices":[176,185,158,217,180,186,177,166,209,154],"times":[1093,536,944],"next_num":3,"trial_type":"ticket-choose","trial_index":32,"time_elapsed":476329,"internal_node_id":"0.0-32.0"},{"result":186,"points":1,"place":4,"phase":0,"sequence":13,"prices":[168,192,171,178,188,217,172,195,197,186],"times":[1543,556,525,535,522,587,551,542,641,580],"next_num":11,"trial_type":"ticket-choose","trial_index":33,"time_elapsed":486921,"internal_node_id":"0.0-33.0"},{"result":158,"points":2,"place":1,"phase":0,"sequence":14,"prices":[176,187,177,225,181,187,158,165,208,153],"times":[993,531,851,628,570,569,1016],"next_num":7,"trial_type":"ticket-choose","trial_index":34,"time_elapsed":495344,"internal_node_id":"0.0-34.0"},{"result":167,"points":2,"place":1,"phase":0,"sequence":15,"prices":[175,185,178,215,181,186,167,168,208,156],"times":[1733,571,600,633,581,614,1285],"next_num":7,"trial_type":"ticket-choose","trial_index":35,"time_elapsed":504614,"internal_node_id":"0.0-35.0"},{"result":161,"points":3,"place":0,"phase":0,"sequence":16,"prices":[161,193,175,181,185,224,180,199,218,184],"times":[1349],"next_num":1,"trial_type":"ticket-choose","trial_index":36,"time_elapsed":508004,"internal_node_id":"0.0-36.0"},{"result":163,"points":1,"place":2,"phase":0,"sequence":17,"prices":[183,163,185,180,166,148,160,186,176,184],"times":[1213,1406],"next_num":2,"trial_type":"ticket-choose","trial_index":37,"time_elapsed":512873,"internal_node_id":"0.0-37.0"},{"result":158,"points":2,"place":1,"phase":0,"sequence":18,"prices":[176,187,158,210,181,187,177,165,208,153],"times":[1352,535,943],"next_num":3,"trial_type":"ticket-choose","trial_index":38,"time_elapsed":518161,"internal_node_id":"0.0-38.0"},{"result":163,"points":2,"place":1,"phase":0,"sequence":19,"prices":[175,187,163,209,180,188,176,165,154,208],"times":[3657,517,998],"next_num":3,"trial_type":"ticket-choose","trial_index":39,"time_elapsed":525772,"internal_node_id":"0.0-39.0"},{"result":155,"points":2,"place":1,"phase":0,"sequence":20,"prices":[181,155,148,161,168,187,172,199,176,194],"times":[1164,1084],"next_num":2,"trial_type":"ticket-choose","trial_index":40,"time_elapsed":531557,"internal_node_id":"0.0-40.0"},{"result":163,"points":2,"place":1,"phase":0,"sequence":21,"prices":[175,187,176,209,180,188,163,165,154,208],"times":[1960,647,673,552,590,582,1062],"next_num":7,"trial_type":"ticket-choose","trial_index":41,"time_elapsed":540826,"internal_node_id":"0.0-41.0"},{"result":167,"points":2,"place":1,"phase":0,"sequence":22,"prices":[175,187,167,212,179,187,178,169,208,153],"times":[3875,498,1098],"next_num":3,"trial_type":"ticket-choose","trial_index":42,"time_elapsed":549537,"internal_node_id":"0.0-42.0"},{"result":150,"points":3,"place":0,"phase":0,"sequence":23,"prices":[150,185,154,161,173,199,155,188,191,168],"times":[4626],"next_num":1,"trial_type":"ticket-choose","trial_index":43,"time_elapsed":556098,"internal_node_id":"0.0-43.0"},{"result":163,"points":2,"place":1,"phase":0,"sequence":24,"prices":[174,186,163,212,181,187,176,166,153,209],"times":[3316,532,977],"next_num":3,"trial_type":"ticket-choose","trial_index":44,"time_elapsed":563361,"internal_node_id":"0.0-44.0"},{"result":157,"points":3,"place":0,"phase":0,"sequence":25,"prices":[201,187,157,184,198,179,188,185,178,170],"times":[936,631,965],"next_num":3,"trial_type":"ticket-choose","trial_index":45,"time_elapsed":568378,"internal_node_id":"0.0-45.0"},{"result":167,"points":2,"place":1,"phase":0,"sequence":26,"prices":[174,186,167,211,181,188,178,168,208,156],"times":[3457,671,1194],"next_num":3,"trial_type":"ticket-choose","trial_index":46,"time_elapsed":576082,"internal_node_id":"0.0-46.0"},{"result":158,"points":2,"place":1,"phase":0,"sequence":27,"prices":[175,186,158,209,181,188,177,167,208,154],"times":[1188,591,994],"next_num":3,"trial_type":"ticket-choose","trial_index":47,"time_elapsed":581161,"internal_node_id":"0.0-47.0"},{"result":163,"points":2,"place":1,"phase":0,"sequence":28,"prices":[176,186,163,214,179,187,176,166,153,208],"times":[1374,1228,952],"next_num":3,"trial_type":"ticket-choose","trial_index":48,"time_elapsed":587050,"internal_node_id":"0.0-48.0"},{"result":167,"points":2,"place":1,"phase":0,"sequence":29,"prices":[175,187,178,209,179,187,167,169,208,153],"times":[1627,571,605,590,596,539,1260],"next_num":7,"trial_type":"ticket-choose","trial_index":49,"time_elapsed":596256,"internal_node_id":"0.0-49.0"},{"result":152,"points":3,"place":0,"phase":0,"sequence":30,"prices":[152,200,158,173,182,207,161,202,204,180],"times":[1027],"next_num":1,"trial_type":"ticket-choose","trial_index":50,"time_elapsed":599289,"internal_node_id":"0.0-50.0"},{"result":143,"points":3,"place":0,"phase":0,"sequence":31,"prices":[222,173,202,197,143,205,198,183,178,186],"times":[866,612,607,552,984],"next_num":5,"trial_type":"ticket-choose","trial_index":51,"time_elapsed":605627,"internal_node_id":"0.0-51.0"},{"result":169,"points":1,"place":2,"phase":0,"sequence":32,"prices":[175,186,167,225,179,187,178,169,209,153],"times":[934,601,3029,652,542,594,552,1381],"next_num":8,"trial_type":"ticket-choose","trial_index":52,"time_elapsed":617563,"internal_node_id":"0.0-52.0"},{"result":148,"points":3,"place":0,"phase":0,"sequence":33,"prices":[148,171,150,163,167,220,162,186,187,165],"times":[1197],"next_num":1,"trial_type":"ticket-choose","trial_index":53,"time_elapsed":621009,"internal_node_id":"0.0-53.0"},{"result":163,"points":2,"place":1,"phase":0,"sequence":34,"prices":[198,193,169,163,202,182,152,164,177,171],"times":[1072,681,901,1231],"next_num":4,"trial_type":"ticket-choose","trial_index":54,"time_elapsed":627435,"internal_node_id":"0.0-54.0"},{"result":152,"points":3,"place":0,"phase":0,"sequence":35,"prices":[200,181,203,152,175,171,160,154,176,191],"times":[1152,698,598,914],"next_num":4,"trial_type":"ticket-choose","trial_index":55,"time_elapsed":633562,"internal_node_id":"0.0-55.0"},{"result":185,"points":1,"place":4,"phase":0,"sequence":36,"prices":[169,196,170,184,187,211,171,201,202,185],"times":[2681,592,561,574,602,628,631,591,661,1438],"next_num":10,"trial_type":"ticket-choose","trial_index":56,"time_elapsed":646498,"internal_node_id":"0.0-56.0"},{"result":158,"points":2,"place":1,"phase":0,"sequence":37,"prices":[175,186,158,211,180,187,177,166,209,153],"times":[1111,621,980],"next_num":3,"trial_type":"ticket-choose","trial_index":57,"time_elapsed":651513,"internal_node_id":"0.0-57.0"},{"result":158,"points":2,"place":1,"phase":0,"sequence":38,"prices":[176,185,177,218,180,186,158,166,209,154],"times":[983,591,546,520,737,467,919],"next_num":7,"trial_type":"ticket-choose","trial_index":58,"time_elapsed":659576,"internal_node_id":"0.0-58.0"},{"result":165,"points":2,"place":1,"phase":0,"sequence":39,"prices":[188,200,165,172,198,174,177,154,177,180],"times":[1038,657,1083],"next_num":3,"trial_type":"ticket-choose","trial_index":59,"time_elapsed":664680,"internal_node_id":"0.0-59.0"},{"result":153,"points":3,"place":0,"phase":0,"sequence":40,"prices":[175,186,178,212,179,187,167,169,209,153],"times":[720,605,609,594,535,587,690,921,635,1388],"next_num":10,"trial_type":"ticket-choose","trial_index":60,"time_elapsed":676105,"internal_node_id":"0.0-60.0"},{"result":163,"points":2,"place":1,"phase":0,"sequence":41,"prices":[174,186,176,217,181,187,163,166,153,209],"times":[968,522,575,590,588,620,1036],"next_num":7,"trial_type":"ticket-choose","trial_index":61,"time_elapsed":684274,"internal_node_id":"0.0-61.0"},{"result":159,"points":3,"place":0,"phase":0,"sequence":42,"prices":[159,183,166,168,173,205,167,187,191,170],"times":[1605],"next_num":1,"trial_type":"ticket-choose","trial_index":62,"time_elapsed":687920,"internal_node_id":"0.0-62.0"},{"result":167,"points":2,"place":1,"phase":0,"sequence":43,"prices":[175,185,167,224,181,186,178,168,208,156],"times":[1016,515,908],"next_num":3,"trial_type":"ticket-choose","trial_index":63,"time_elapsed":692705,"internal_node_id":"0.0-63.0"},{"result":163,"points":2,"place":1,"phase":0,"sequence":44,"prices":[176,186,176,210,179,187,163,166,153,208],"times":[824,615,976,668,691,609,1027],"next_num":7,"trial_type":"ticket-choose","trial_index":64,"time_elapsed":701443,"internal_node_id":"0.0-64.0"},{"result":156,"points":3,"place":0,"phase":0,"sequence":45,"prices":[156,201,162,166,185,214,165,202,204,179],"times":[1548],"next_num":1,"trial_type":"ticket-choose","trial_index":65,"time_elapsed":704953,"internal_node_id":"0.0-65.0"},{"result":155,"points":2,"place":1,"phase":0,"sequence":46,"prices":[201,207,155,158,156,165,167,135,178,177],"times":[1686,640,1127],"next_num":3,"trial_type":"ticket-choose","trial_index":66,"time_elapsed":712082,"internal_node_id":"0.0-66.0"},{"result":163,"points":2,"place":1,"phase":0,"sequence":47,"prices":[175,186,163,211,179,187,176,165,153,210],"times":[1055,627,1020],"next_num":3,"trial_type":"ticket-choose","trial_index":67,"time_elapsed":717106,"internal_node_id":"0.0-67.0"},{"result":158,"points":2,"place":1,"phase":0,"sequence":48,"prices":[175,186,177,221,180,187,158,166,209,153],"times":[1081,514,568,582,582,613,1221],"next_num":7,"trial_type":"ticket-choose","trial_index":68,"time_elapsed":725650,"internal_node_id":"0.0-68.0"},{"result":154,"points":2,"place":1,"phase":0,"sequence":49,"prices":[168,154,172,185,195,144,184,211,177,227],"times":[874,916],"next_num":2,"trial_type":"ticket-choose","trial_index":69,"time_elapsed":729706,"internal_node_id":"0.0-69.0"},{"responses":[{"value":1,"offby":1,"category":"$106 - $134","category_index":0},{"value":1,"offby":0,"category":"$135 - $150","category_index":1},{"value":2,"offby":-1,"category":"$151 - $165","category_index":2},{"value":4,"offby":-2,"category":"$166 - $180","category_index":3},{"value":5,"offby":-1,"category":"$181 - $195","category_index":4},{"value":4,"offby":1,"category":"$196 - $210","category_index":5},{"value":3,"offby":2,"category":"$211 - $225","category_index":6}],"phase":0,"number":1,"trial_type":"bar-choose","trial_index":70,"time_elapsed":778302,"internal_node_id":"0.0-70.0"},{"rt":16202,"url":"\/tickets\/utils\/start2.html","trial_type":"html","trial_index":71,"time_elapsed":795673,"internal_node_id":"0.0-71.0"},{"trial_type":"number-animation","trial_index":72,"time_elapsed":813442,"internal_node_id":"0.0-72.0"},{"phase":1,"sequence":0,"avg":182,"response":190,"trial_type":"training_avg","trial_index":73,"time_elapsed":821534,"internal_node_id":"0.0-73.0"},{"trial_type":"number-animation","trial_index":74,"time_elapsed":831610,"internal_node_id":"0.0-74.0"},{"phase":1,"sequence":1,"avg":188,"response":195,"trial_type":"training_avg","trial_index":75,"time_elapsed":837850,"internal_node_id":"0.0-75.0"},{"trial_type":"number-animation","trial_index":76,"time_elapsed":847475,"internal_node_id":"0.0-76.0"},{"phase":1,"sequence":2,"avg":176,"response":178,"trial_type":"training_avg","trial_index":77,"time_elapsed":859011,"internal_node_id":"0.0-77.0"},{"trial_type":"number-animation","trial_index":78,"time_elapsed":868862,"internal_node_id":"0.0-78.0"},{"phase":1,"sequence":3,"avg":180,"response":178,"trial_type":"training_avg","trial_index":79,"time_elapsed":875539,"internal_node_id":"0.0-79.0"},{"trial_type":"number-animation","trial_index":80,"time_elapsed":884355,"internal_node_id":"0.0-80.0"},{"phase":1,"sequence":4,"avg":174,"response":168,"trial_type":"training_avg","trial_index":81,"time_elapsed":890698,"internal_node_id":"0.0-81.0"},{"responses":[{"value":0,"offby":-1,"category":"$90 - $120","category_index":0},{"value":1,"offby":-2,"category":"$121 - $145","category_index":1},{"value":2,"offby":-1,"category":"$146 - $170","category_index":2},{"value":5,"offby":-1,"category":"$171 - $195","category_index":3},{"value":6,"offby":2,"category":"$196 - $220","category_index":4},{"value":4,"offby":2,"category":"$221 - $245","category_index":5},{"value":2,"offby":1,"category":"$246 - $270","category_index":6}],"phase":1,"number":0,"trial_type":"bar-choose","trial_index":82,"time_elapsed":926451,"internal_node_id":"0.0-82.0"},{"rt":29188,"url":"\/tickets\/utils\/testing2.html","trial_type":"html","trial_index":83,"time_elapsed":956788,"internal_node_id":"0.0-83.0"},{"phase":1,"order":[19,24,8,26,15,2,7,37,34,25,14,4,1,44,40,42,41,23,18,35,48,13,30,20,6,33,46,10,3,5,29,22,21,47,16,43,36,11,27,39,9,38,31,32,12,28,49,45,0,17],"trial_type":"store_order","trial_index":84,"time_elapsed":957806,"internal_node_id":"0.0-84.0"},{"result":136,"points":2,"place":1,"phase":1,"sequence":0,"prices":[172,190,136,270,179,192,174,152,237,129],"times":[3458,545,1231],"next_num":3,"trial_type":"ticket-choose","trial_index":85,"time_elapsed":965699,"internal_node_id":"0.0-85.0"},{"result":142,"points":3,"place":0,"phase":1,"sequence":1,"prices":[142,207,171,182,190,269,180,218,256,188],"times":[1353],"next_num":1,"trial_type":"ticket-choose","trial_index":86,"time_elapsed":969131,"internal_node_id":"0.0-86.0"},{"result":154,"points":2,"place":1,"phase":1,"sequence":2,"prices":[168,192,154,237,182,196,176,156,235,133],"times":[1050,574,982],"next_num":3,"trial_type":"ticket-choose","trial_index":87,"time_elapsed":974035,"internal_node_id":"0.0-87.0"},{"result":124,"points":3,"place":0,"phase":1,"sequence":3,"prices":[124,220,136,165,185,234,143,225,228,179],"times":[910],"next_num":1,"trial_type":"ticket-choose","trial_index":88,"time_elapsed":976866,"internal_node_id":"0.0-88.0"},{"result":154,"points":2,"place":1,"phase":1,"sequence":4,"prices":[170,193,176,245,178,194,154,159,236,126],"times":[774,548,546,639,705,556,990],"next_num":7,"trial_type":"ticket-choose","trial_index":89,"time_elapsed":984760,"internal_node_id":"0.0-89.0"},{"result":146,"points":2,"place":1,"phase":1,"sequence":5,"prices":[168,191,146,252,183,193,172,153,126,238],"times":[1047,570,920],"next_num":3,"trial_type":"ticket-choose","trial_index":90,"time_elapsed":989546,"internal_node_id":"0.0-90.0"},{"result":146,"points":2,"place":1,"phase":1,"sequence":6,"prices":[171,191,172,268,179,194,146,150,127,239],"times":[1634,626,632,706,693,583,1143],"next_num":7,"trial_type":"ticket-choose","trial_index":91,"time_elapsed":998907,"internal_node_id":"0.0-91.0"},{"result":158,"points":1,"place":3,"phase":1,"sequence":7,"prices":[216,206,158,145,224,185,124,149,175,162],"times":[1147,763,5294],"next_num":3,"trial_type":"ticket-choose","trial_index":92,"time_elapsed":1008578,"internal_node_id":"0.0-92.0"},{"result":130,"points":2,"place":1,"phase":1,"sequence":8,"prices":[181,130,116,142,157,193,165,218,173,207],"times":[1369,887],"next_num":2,"trial_type":"ticket-choose","trial_index":93,"time_elapsed":1013146,"internal_node_id":"0.0-93.0"},{"result":132,"points":3,"place":0,"phase":1,"sequence":9,"prices":[132,222,144,153,190,248,151,224,228,179],"times":[960],"next_num":1,"trial_type":"ticket-choose","trial_index":94,"time_elapsed":1016001,"internal_node_id":"0.0-94.0"},{"result":154,"points":2,"place":1,"phase":1,"sequence":10,"prices":[169,192,176,244,178,194,154,159,237,125],"times":[883,550,555,547,720,581,1191],"next_num":7,"trial_type":"ticket-choose","trial_index":95,"time_elapsed":1024207,"internal_node_id":"0.0-95.0"},{"result":146,"points":2,"place":1,"phase":1,"sequence":11,"prices":[172,191,176,272,179,194,146,152,126,235],"times":[891,591,533,561,651,637,1004],"next_num":7,"trial_type":"ticket-choose","trial_index":96,"time_elapsed":1032346,"internal_node_id":"0.0-96.0"},{"result":146,"points":2,"place":1,"phase":1,"sequence":12,"prices":[169,193,146,237,180,196,172,150,129,236],"times":[971,533,908],"next_num":3,"trial_type":"ticket-choose","trial_index":97,"time_elapsed":1037102,"internal_node_id":"0.0-97.0"},{"result":138,"points":1,"place":2,"phase":1,"sequence":13,"prices":[181,138,118,170,190,101,146,169,175,233],"times":[813,927],"next_num":2,"trial_type":"ticket-choose","trial_index":98,"time_elapsed":1041028,"internal_node_id":"0.0-98.0"},{"result":119,"points":3,"place":0,"phase":1,"sequence":14,"prices":[198,119,169,141,195,233,136,208,177,217],"times":[896,930],"next_num":2,"trial_type":"ticket-choose","trial_index":99,"time_elapsed":1044947,"internal_node_id":"0.0-99.0"},{"result":105,"points":3,"place":0,"phase":1,"sequence":15,"prices":[263,165,224,214,105,230,215,185,177,193],"times":[839,633,621,565,972],"next_num":5,"trial_type":"ticket-choose","trial_index":100,"time_elapsed":1051969,"internal_node_id":"0.0-100.0"},{"result":131,"points":2,"place":1,"phase":1,"sequence":16,"prices":[221,234,131,136,132,149,154,90,176,173],"times":[894,475,820],"next_num":3,"trial_type":"ticket-choose","trial_index":101,"time_elapsed":1056454,"internal_node_id":"0.0-101.0"},{"result":136,"points":2,"place":1,"phase":1,"sequence":17,"prices":[173,191,174,270,180,193,136,153,239,129],"times":[714,683,622,538,577,604,971],"next_num":7,"trial_type":"ticket-choose","trial_index":102,"time_elapsed":1064369,"internal_node_id":"0.0-102.0"},{"result":136,"points":2,"place":1,"phase":1,"sequence":18,"prices":[173,194,136,239,182,200,174,150,236,127],"times":[903,678,978],"next_num":3,"trial_type":"ticket-choose","trial_index":103,"time_elapsed":1069210,"internal_node_id":"0.0-103.0"},{"result":129,"points":2,"place":1,"phase":1,"sequence":19,"prices":[155,129,164,189,210,108,187,241,174,275],"times":[788,974],"next_num":2,"trial_type":"ticket-choose","trial_index":104,"time_elapsed":1073113,"internal_node_id":"0.0-104.0"},{"result":114,"points":3,"place":0,"phase":1,"sequence":20,"prices":[182,249,159,114,184,205,175,189,172,178],"times":[739,570,692,954],"next_num":4,"trial_type":"ticket-choose","trial_index":105,"time_elapsed":1078618,"internal_node_id":"0.0-105.0"},{"result":154,"points":2,"place":1,"phase":1,"sequence":21,"prices":[170,190,176,251,183,192,154,157,236,131],"times":[1054,692,655,614,605,585,2455],"next_num":7,"trial_type":"ticket-choose","trial_index":106,"time_elapsed":1088514,"internal_node_id":"0.0-106.0"},{"result":135,"points":3,"place":0,"phase":1,"sequence":22,"prices":[135,202,150,169,183,225,160,211,220,172],"times":[1053],"next_num":1,"trial_type":"ticket-choose","trial_index":107,"time_elapsed":1091661,"internal_node_id":"0.0-107.0"},{"result":136,"points":2,"place":1,"phase":1,"sequence":23,"prices":[169,192,174,246,180,195,136,152,238,126],"times":[704,550,542,575,580,602,1042],"next_num":7,"trial_type":"ticket-choose","trial_index":108,"time_elapsed":1099489,"internal_node_id":"0.0-108.0"},{"result":146,"points":2,"place":1,"phase":1,"sequence":24,"prices":[168,191,172,240,183,193,146,151,125,238],"times":[1187,590,546,581,596,626,1104],"next_num":7,"trial_type":"ticket-choose","trial_index":109,"time_elapsed":1107930,"internal_node_id":"0.0-109.0"},{"result":137,"points":3,"place":0,"phase":1,"sequence":25,"prices":[137,187,152,156,166,231,155,194,202,160],"times":[1619],"next_num":1,"trial_type":"ticket-choose","trial_index":110,"time_elapsed":1111377,"internal_node_id":"0.0-110.0"},{"result":136,"points":3,"place":0,"phase":1,"sequence":26,"prices":[240,188,273,207,250,136,217,170,171,236],"times":[1077,576,514,555,611,978],"next_num":6,"trial_type":"ticket-choose","trial_index":111,"time_elapsed":1118875,"internal_node_id":"0.0-111.0"},{"result":154,"points":2,"place":1,"phase":1,"sequence":27,"prices":[169,193,154,255,178,194,176,158,239,126],"times":[744,617,2395],"next_num":3,"trial_type":"ticket-choose","trial_index":112,"time_elapsed":1124897,"internal_node_id":"0.0-112.0"},{"result":146,"points":2,"place":1,"phase":1,"sequence":28,"prices":[170,193,146,268,178,195,172,149,126,241],"times":[691,658,983],"next_num":3,"trial_type":"ticket-choose","trial_index":113,"time_elapsed":1129632,"internal_node_id":"0.0-113.0"},{"result":146,"points":2,"place":1,"phase":1,"sequence":29,"prices":[171,195,172,242,179,196,146,150,128,235],"times":[662,531,611,695,634,599,1081],"next_num":7,"trial_type":"ticket-choose","trial_index":114,"time_elapsed":1137748,"internal_node_id":"0.0-114.0"},{"result":121,"points":3,"place":0,"phase":1,"sequence":30,"prices":[121,191,128,141,166,217,129,196,202,157],"times":[901],"next_num":1,"trial_type":"ticket-choose","trial_index":115,"time_elapsed":1140570,"internal_node_id":"0.0-115.0"},{"result":136,"points":2,"place":1,"phase":1,"sequence":31,"prices":[172,194,174,243,182,193,136,150,237,126],"times":[697,551,541,551,546,528,951],"next_num":7,"trial_type":"ticket-choose","trial_index":116,"time_elapsed":1148001,"internal_node_id":"0.0-116.0"},{"result":136,"points":2,"place":1,"phase":1,"sequence":32,"prices":[170,192,174,242,181,196,136,153,236,128],"times":[927,566,531,576,640,525,898],"next_num":7,"trial_type":"ticket-choose","trial_index":117,"time_elapsed":1156171,"internal_node_id":"0.0-117.0"},{"result":124,"points":3,"place":0,"phase":1,"sequence":33,"prices":[219,183,227,124,176,161,140,129,171,201],"times":[715,608,548,865],"next_num":4,"trial_type":"ticket-choose","trial_index":118,"time_elapsed":1161353,"internal_node_id":"0.0-118.0"},{"result":136,"points":2,"place":1,"phase":1,"sequence":34,"prices":[171,192,136,265,180,194,174,152,239,127],"times":[740,541,1440],"next_num":3,"trial_type":"ticket-choose","trial_index":119,"time_elapsed":1166329,"internal_node_id":"0.0-119.0"},{"result":135,"points":3,"place":0,"phase":1,"sequence":35,"prices":[221,193,135,188,217,179,196,190,175,159],"times":[695,564,1001],"next_num":3,"trial_type":"ticket-choose","trial_index":120,"time_elapsed":1170938,"internal_node_id":"0.0-120.0"},{"result":128,"points":3,"place":0,"phase":1,"sequence":36,"prices":[196,221,149,164,216,167,175,128,176,181],"times":[823,558,965,532,575,564,585,1001],"next_num":8,"trial_type":"ticket-choose","trial_index":121,"time_elapsed":1179868,"internal_node_id":"0.0-121.0"},{"result":158,"points":1,"place":2,"phase":1,"sequence":37,"prices":[169,194,154,271,178,201,176,158,236,127],"times":[753,564,1459,537,3551,532,557,1600],"next_num":8,"trial_type":"ticket-choose","trial_index":122,"time_elapsed":1192896,"internal_node_id":"0.0-122.0"},{"result":192,"points":1,"place":4,"phase":1,"sequence":38,"prices":[157,205,161,175,197,254,165,210,214,192],"times":[1015,518,492,520,516,566,553,578,627,626],"next_num":11,"trial_type":"ticket-choose","trial_index":123,"time_elapsed":1202880,"internal_node_id":"0.0-123.0"},{"result":153,"points":2,"place":1,"phase":1,"sequence":39,"prices":[197,153,181,215,150,155,164,247,177,162],"times":[973,1078],"next_num":2,"trial_type":"ticket-choose","trial_index":124,"time_elapsed":1206976,"internal_node_id":"0.0-124.0"},{"result":154,"points":2,"place":1,"phase":1,"sequence":40,"prices":[169,191,154,268,183,197,176,155,236,133],"times":[587,546,1454],"next_num":3,"trial_type":"ticket-choose","trial_index":125,"time_elapsed":1211866,"internal_node_id":"0.0-125.0"},{"result":146,"points":3,"place":0,"phase":1,"sequence":41,"prices":[156,218,212,216,191,210,275,146,174,152],"times":[760,502,447,457,499,548,561,1444],"next_num":8,"trial_type":"ticket-choose","trial_index":126,"time_elapsed":1220609,"internal_node_id":"0.0-126.0"},{"result":117,"points":3,"place":0,"phase":1,"sequence":42,"prices":[117,161,120,147,153,259,144,191,195,149],"times":[982],"next_num":1,"trial_type":"ticket-choose","trial_index":127,"time_elapsed":1223497,"internal_node_id":"0.0-127.0"},{"result":143,"points":3,"place":0,"phase":1,"sequence":43,"prices":[143,206,153,194,201,267,168,208,210,196],"times":[785],"next_num":1,"trial_type":"ticket-choose","trial_index":128,"time_elapsed":1226025,"internal_node_id":"0.0-128.0"},{"result":154,"points":2,"place":1,"phase":1,"sequence":44,"prices":[168,192,176,242,183,197,154,156,237,132],"times":[753,488,483,507,555,545,1584],"next_num":7,"trial_type":"ticket-choose","trial_index":129,"time_elapsed":1233991,"internal_node_id":"0.0-129.0"},{"result":189,"points":1,"place":4,"phase":1,"sequence":45,"prices":[157,213,159,187,194,242,161,222,225,189],"times":[719,478,552,518,557,568,1552,513,507,595],"next_num":11,"trial_type":"ticket-choose","trial_index":130,"time_elapsed":1244481,"internal_node_id":"0.0-130.0"},{"result":146,"points":1,"place":2,"phase":1,"sequence":46,"prices":[186,146,191,179,152,116,140,201,172,187],"times":[1153,1411],"next_num":2,"trial_type":"ticket-choose","trial_index":131,"time_elapsed":1249105,"internal_node_id":"0.0-131.0"},{"result":154,"points":2,"place":1,"phase":1,"sequence":47,"prices":[244,203,196,189,154,206,197,149,171,159],"times":[4402,4093,566,490,1181],"next_num":5,"trial_type":"ticket-choose","trial_index":132,"time_elapsed":1262530,"internal_node_id":"0.0-132.0"},{"result":146,"points":2,"place":1,"phase":1,"sequence":48,"prices":[173,191,146,242,178,194,172,152,126,235],"times":[1037,537,1020],"next_num":3,"trial_type":"ticket-choose","trial_index":133,"time_elapsed":1267458,"internal_node_id":"0.0-133.0"},{"result":128,"points":3,"place":0,"phase":1,"sequence":49,"prices":[171,192,136,243,182,195,174,154,236,128],"times":[1127,572,1199,841,458,491,629,717,608,752],"next_num":10,"trial_type":"ticket-choose","trial_index":134,"time_elapsed":1278675,"internal_node_id":"0.0-134.0"},{"responses":[{"value":2,"offby":1,"category":"$90 - $120","category_index":0},{"value":3,"offby":0,"category":"$121 - $145","category_index":1},{"value":3,"offby":0,"category":"$146 - $170","category_index":2},{"value":3,"offby":-3,"category":"$171 - $195","category_index":3},{"value":3,"offby":-1,"category":"$196 - $220","category_index":4},{"value":4,"offby":2,"category":"$221 - $245","category_index":5},{"value":2,"offby":1,"category":"$246 - $270","category_index":6}],"phase":1,"number":1,"trial_type":"bar-choose","trial_index":135,"time_elapsed":1305650,"internal_node_id":"0.0-135.0"},{"special_comment":"Idid not.","trial_type":"special_sequence","trial_index":136,"time_elapsed":1314047,"internal_node_id":"0.0-136.0"},{"during":"Nothing","bonus":292,"trial_type":"final","trial_index":137,"time_elapsed":1339050,"internal_node_id":"0.0-137.0"}],"bonus":292}