{"start_time":"2017-02-24 16:43:05","end_time":"2017-02-24 17:00:54","points_phase0":114,"points_phase1":110,"phase_order":1,"age":36,"gender":"m","tries":1,"during":"Nothing","worker_id":"A1MYLQQL8BBOYT","assignment_id":"3VE8AYVF8NQ2NBU10M9RUB9E6AC8F9","data":[{"rt":8807,"url":"\/tickets\/utils\/consent.html","trial_type":"html","trial_index":0,"time_elapsed":8963,"internal_node_id":"0.0-0.0"},{"age":36,"gender":"m","trial_type":"age","trial_index":1,"time_elapsed":12399,"internal_node_id":"0.0-1.0"},{"worker_id":"A1MYLQQL8BBOYT","trial_type":"workerid","trial_index":2,"time_elapsed":20899,"internal_node_id":"0.0-2.0"},{"tries":1,"trial_type":"instructions_check","trial_index":3,"time_elapsed":32644,"internal_node_id":"0.0-3.0"},{"rt":5752,"url":"\/tickets\/utils\/start.html","trial_type":"html","trial_index":4,"time_elapsed":39565,"internal_node_id":"0.0-4.0"},{"trial_type":"number-animation","trial_index":5,"time_elapsed":58613,"internal_node_id":"0.0-5.0"},{"phase":0,"sequence":0,"avg":166,"response":159,"trial_type":"training_avg","trial_index":6,"time_elapsed":72445,"internal_node_id":"0.0-6.0"},{"trial_type":"number-animation","trial_index":7,"time_elapsed":87405,"internal_node_id":"0.0-7.0"},{"phase":0,"sequence":1,"avg":198,"response":197,"trial_type":"training_avg","trial_index":8,"time_elapsed":94643,"internal_node_id":"0.0-8.0"},{"trial_type":"number-animation","trial_index":9,"time_elapsed":108507,"internal_node_id":"0.0-9.0"},{"phase":0,"sequence":2,"avg":177,"response":200,"trial_type":"training_avg","trial_index":10,"time_elapsed":114793,"internal_node_id":"0.0-10.0"},{"trial_type":"number-animation","trial_index":11,"time_elapsed":127570,"internal_node_id":"0.0-11.0"},{"phase":0,"sequence":3,"avg":190,"response":166,"trial_type":"training_avg","trial_index":12,"time_elapsed":132673,"internal_node_id":"0.0-12.0"},{"trial_type":"number-animation","trial_index":13,"time_elapsed":143768,"internal_node_id":"0.0-13.0"},{"phase":0,"sequence":4,"avg":201,"response":220,"trial_type":"training_avg","trial_index":14,"time_elapsed":149832,"internal_node_id":"0.0-14.0"},{"responses":[{"value":1,"offby":0,"category":"$30 - $75","category_index":0},{"value":3,"offby":1,"category":"$76 - $120","category_index":1},{"value":6,"offby":2,"category":"$121 - $165","category_index":2},{"value":7,"offby":1,"category":"$166 - $210","category_index":3},{"value":2,"offby":-4,"category":"$211 - $255","category_index":4},{"value":1,"offby":0,"category":"$256 - $300","category_index":5},{"value":0,"offby":0,"category":"$301 - $345","category_index":6}],"phase":0,"number":0,"trial_type":"bar-choose","trial_index":15,"time_elapsed":206379,"internal_node_id":"0.0-15.0"},{"rt":10538,"url":"\/tickets\/\/utils\/testing.html","trial_type":"html","trial_index":16,"time_elapsed":218116,"internal_node_id":"0.0-16.0"},{"phase":0,"order":[40,25,18,2,15,37,28,26,36,1,45,8,12,43,14,41,5,47,34,11,24,10,39,30,13,21,9,33,44,19,23,48,20,42,22,17,6,27,4,49,7,3,31,32,29,46,0,35,16,38],"trial_type":"store_order","trial_index":17,"time_elapsed":219117,"internal_node_id":"0.0-17.0"},{"result":126,"points":3,"place":0,"phase":0,"sequence":-1,"prices":[184,180,224,165,181,199,185,193,218,126],"times":[1687,884,744,1139,815,1686,3178,902,839,1313],"next_num":10,"trial_type":"ticket-choose","trial_index":18,"time_elapsed":236401,"internal_node_id":"0.0-18.0"},{"rt":9647,"url":"\/tickets\/utils\/testing_after.html","trial_type":"html","trial_index":19,"time_elapsed":247218,"internal_node_id":"0.0-19.0"},{"result":105,"points":3,"place":0,"phase":0,"sequence":0,"prices":[105,216,146,165,210,260,161,235,241,185],"times":[1644],"next_num":1,"trial_type":"ticket-choose","trial_index":20,"time_elapsed":251432,"internal_node_id":"0.0-20.0"},{"result":136,"points":1,"place":2,"phase":0,"sequence":1,"prices":[255,166,266,175,136,145,155,61,96,301],"times":[1286,885,679,726,949],"next_num":5,"trial_type":"ticket-choose","trial_index":21,"time_elapsed":259130,"internal_node_id":"0.0-21.0"},{"result":125,"points":1,"place":2,"phase":0,"sequence":2,"prices":[226,205,125,120,115,135,180,145,150,220],"times":[1048,655,902],"next_num":3,"trial_type":"ticket-choose","trial_index":22,"time_elapsed":264567,"internal_node_id":"0.0-22.0"},{"result":130,"points":3,"place":0,"phase":0,"sequence":3,"prices":[185,175,276,221,130,141,171,216,235,165],"times":[866,663,607,629,1053],"next_num":5,"trial_type":"ticket-choose","trial_index":23,"time_elapsed":271575,"internal_node_id":"0.0-23.0"},{"result":126,"points":2,"place":1,"phase":0,"sequence":4,"prices":[151,175,166,251,170,195,126,146,105,201],"times":[2431,679,655,624,672,846,988],"next_num":7,"trial_type":"ticket-choose","trial_index":24,"time_elapsed":281749,"internal_node_id":"0.0-24.0"},{"result":126,"points":2,"place":1,"phase":0,"sequence":5,"prices":[156,176,165,246,171,190,126,141,101,196],"times":[2477,624,632,655,608,758,893],"next_num":7,"trial_type":"ticket-choose","trial_index":25,"time_elapsed":291717,"internal_node_id":"0.0-25.0"},{"result":130,"points":3,"place":0,"phase":0,"sequence":6,"prices":[130,195,141,155,181,226,150,216,221,175],"times":[3348],"next_num":1,"trial_type":"ticket-choose","trial_index":26,"time_elapsed":297001,"internal_node_id":"0.0-26.0"},{"result":65,"points":2,"place":1,"phase":0,"sequence":7,"prices":[220,236,176,65,185,101,110,61,156,191],"times":[907,601,592,837],"next_num":4,"trial_type":"ticket-choose","trial_index":27,"time_elapsed":302652,"internal_node_id":"0.0-27.0"},{"result":106,"points":3,"place":0,"phase":0,"sequence":8,"prices":[180,106,166,245,211,261,215,125,135,190],"times":[960,1027],"next_num":2,"trial_type":"ticket-choose","trial_index":28,"time_elapsed":307025,"internal_node_id":"0.0-28.0"},{"result":126,"points":2,"place":1,"phase":0,"sequence":9,"prices":[156,175,126,246,170,190,165,140,100,196],"times":[1375,615,909],"next_num":3,"trial_type":"ticket-choose","trial_index":29,"time_elapsed":312358,"internal_node_id":"0.0-29.0"},{"result":125,"points":2,"place":1,"phase":0,"sequence":10,"prices":[156,175,125,245,170,190,165,140,101,196],"times":[944,576,840],"next_num":3,"trial_type":"ticket-choose","trial_index":30,"time_elapsed":317080,"internal_node_id":"0.0-30.0"},{"result":86,"points":3,"place":0,"phase":0,"sequence":11,"prices":[86,180,130,151,170,271,145,191,220,160],"times":[1000],"next_num":1,"trial_type":"ticket-choose","trial_index":31,"time_elapsed":320112,"internal_node_id":"0.0-31.0"},{"result":120,"points":2,"place":1,"phase":0,"sequence":12,"prices":[145,170,160,245,165,190,120,141,100,195],"times":[1413,600,568,679,591,806,870],"next_num":7,"trial_type":"ticket-choose","trial_index":32,"time_elapsed":328810,"internal_node_id":"0.0-32.0"},{"result":131,"points":2,"place":1,"phase":0,"sequence":13,"prices":[161,180,171,250,176,195,131,146,105,201],"times":[1707,617,552,655,631,678,1003],"next_num":7,"trial_type":"ticket-choose","trial_index":33,"time_elapsed":337857,"internal_node_id":"0.0-33.0"},{"result":121,"points":2,"place":1,"phase":0,"sequence":14,"prices":[150,171,121,241,165,185,160,136,95,191],"times":[827,512,1226],"next_num":3,"trial_type":"ticket-choose","trial_index":34,"time_elapsed":342778,"internal_node_id":"0.0-34.0"},{"result":121,"points":2,"place":1,"phase":0,"sequence":15,"prices":[146,170,121,245,166,190,161,141,100,195],"times":[721,512,1067],"next_num":3,"trial_type":"ticket-choose","trial_index":35,"time_elapsed":347468,"internal_node_id":"0.0-35.0"},{"result":81,"points":3,"place":0,"phase":0,"sequence":16,"prices":[155,245,155,81,180,130,156,306,166,115],"times":[1025,529,917,814],"next_num":4,"trial_type":"ticket-choose","trial_index":36,"time_elapsed":353214,"internal_node_id":"0.0-36.0"},{"result":120,"points":2,"place":1,"phase":0,"sequence":17,"prices":[186,156,191,120,195,145,45,130,246,176],"times":[700,791,497,861],"next_num":4,"trial_type":"ticket-choose","trial_index":37,"time_elapsed":358524,"internal_node_id":"0.0-37.0"},{"result":126,"points":2,"place":1,"phase":0,"sequence":18,"prices":[150,176,126,251,171,195,165,145,105,200],"times":[819,774,815],"next_num":3,"trial_type":"ticket-choose","trial_index":38,"time_elapsed":363373,"internal_node_id":"0.0-38.0"},{"result":150,"points":2,"place":1,"phase":0,"sequence":19,"prices":[181,156,145,165,236,231,201,260,150,185],"times":[1040,663,933,526,624,537,552,647,1449],"next_num":9,"trial_type":"ticket-choose","trial_index":39,"time_elapsed":373991,"internal_node_id":"0.0-39.0"},{"result":95,"points":3,"place":0,"phase":0,"sequence":20,"prices":[95,205,106,151,186,271,145,210,215,181],"times":[834],"next_num":1,"trial_type":"ticket-choose","trial_index":40,"time_elapsed":376722,"internal_node_id":"0.0-40.0"},{"result":130,"points":2,"place":1,"phase":0,"sequence":21,"prices":[155,225,245,130,176,106,180,211,165,200],"times":[758,529,498,1965],"next_num":4,"trial_type":"ticket-choose","trial_index":41,"time_elapsed":383063,"internal_node_id":"0.0-41.0"},{"result":130,"points":2,"place":1,"phase":0,"sequence":22,"prices":[160,180,130,251,176,195,170,146,105,200],"times":[866,472,861],"next_num":3,"trial_type":"ticket-choose","trial_index":42,"time_elapsed":387578,"internal_node_id":"0.0-42.0"},{"result":125,"points":2,"place":1,"phase":0,"sequence":23,"prices":[155,175,166,245,171,190,125,140,101,196],"times":[747,758,679,506,678,552,838],"next_num":7,"trial_type":"ticket-choose","trial_index":43,"time_elapsed":395388,"internal_node_id":"0.0-43.0"},{"result":131,"points":2,"place":1,"phase":0,"sequence":24,"prices":[156,181,171,256,175,200,131,150,110,206],"times":[727,512,537,576,640,537,758],"next_num":7,"trial_type":"ticket-choose","trial_index":44,"time_elapsed":402792,"internal_node_id":"0.0-44.0"},{"result":136,"points":3,"place":0,"phase":0,"sequence":25,"prices":[246,145,155,191,176,270,185,136,160,215],"times":[745,592,561,568,640,577,704,806],"next_num":8,"trial_type":"ticket-choose","trial_index":45,"time_elapsed":411300,"internal_node_id":"0.0-45.0"},{"result":131,"points":2,"place":1,"phase":0,"sequence":26,"prices":[161,180,131,251,175,196,171,146,105,201],"times":[883,504,798],"next_num":3,"trial_type":"ticket-choose","trial_index":46,"time_elapsed":415706,"internal_node_id":"0.0-46.0"},{"result":106,"points":2,"place":1,"phase":0,"sequence":27,"prices":[185,180,235,210,106,266,76,115,250,205],"times":[851,615,561,536,773],"next_num":5,"trial_type":"ticket-choose","trial_index":47,"time_elapsed":421705,"internal_node_id":"0.0-47.0"},{"result":120,"points":2,"place":1,"phase":0,"sequence":28,"prices":[150,171,120,241,165,185,160,135,96,190],"times":[756,966,1442],"next_num":3,"trial_type":"ticket-choose","trial_index":48,"time_elapsed":427062,"internal_node_id":"0.0-48.0"},{"result":81,"points":3,"place":0,"phase":0,"sequence":29,"prices":[81,205,130,151,191,261,145,210,250,165],"times":[739],"next_num":1,"trial_type":"ticket-choose","trial_index":49,"time_elapsed":429539,"internal_node_id":"0.0-49.0"},{"result":66,"points":3,"place":0,"phase":0,"sequence":30,"prices":[66,201,96,150,185,230,121,216,225,165],"times":[724],"next_num":1,"trial_type":"ticket-choose","trial_index":50,"time_elapsed":432023,"internal_node_id":"0.0-50.0"},{"result":120,"points":2,"place":1,"phase":0,"sequence":31,"prices":[146,171,120,245,165,191,160,140,100,196],"times":[551,482,1370],"next_num":3,"trial_type":"ticket-choose","trial_index":51,"time_elapsed":436578,"internal_node_id":"0.0-51.0"},{"result":116,"points":3,"place":0,"phase":0,"sequence":32,"prices":[176,150,276,171,261,116,130,201,166,231],"times":[1011,791,496,497,505,718],"next_num":6,"trial_type":"ticket-choose","trial_index":52,"time_elapsed":443467,"internal_node_id":"0.0-52.0"},{"result":120,"points":2,"place":1,"phase":0,"sequence":33,"prices":[150,170,160,241,166,186,120,136,96,191],"times":[643,434,458,466,663,489,711],"next_num":7,"trial_type":"ticket-choose","trial_index":53,"time_elapsed":450340,"internal_node_id":"0.0-53.0"},{"result":121,"points":2,"place":1,"phase":0,"sequence":34,"prices":[150,170,160,240,166,185,121,136,95,191],"times":[1143,401,744,481,950,489,687],"next_num":7,"trial_type":"ticket-choose","trial_index":54,"time_elapsed":458268,"internal_node_id":"0.0-54.0"},{"result":111,"points":3,"place":0,"phase":0,"sequence":35,"prices":[175,211,266,286,111,216,220,245,230,165],"times":[809,647,441,513,719],"next_num":5,"trial_type":"ticket-choose","trial_index":55,"time_elapsed":464014,"internal_node_id":"0.0-55.0"},{"result":130,"points":2,"place":1,"phase":0,"sequence":36,"prices":[155,181,170,255,176,200,130,150,110,205],"times":[723,496,536,489,512,543,859],"next_num":7,"trial_type":"ticket-choose","trial_index":56,"time_elapsed":471284,"internal_node_id":"0.0-56.0"},{"result":131,"points":2,"place":1,"phase":0,"sequence":37,"prices":[156,181,131,256,176,200,171,151,111,206],"times":[565,479,831],"next_num":3,"trial_type":"ticket-choose","trial_index":57,"time_elapsed":475306,"internal_node_id":"0.0-57.0"},{"result":51,"points":3,"place":0,"phase":0,"sequence":38,"prices":[221,175,51,196,146,130,166,80,126,156],"times":[645,487,759],"next_num":3,"trial_type":"ticket-choose","trial_index":58,"time_elapsed":479298,"internal_node_id":"0.0-58.0"},{"result":91,"points":3,"place":0,"phase":0,"sequence":39,"prices":[176,150,141,91,290,201,106,266,206,126],"times":[550,488,552,718],"next_num":4,"trial_type":"ticket-choose","trial_index":59,"time_elapsed":483949,"internal_node_id":"0.0-59.0"},{"result":150,"points":1,"place":4,"phase":0,"sequence":40,"prices":[111,231,131,146,171,295,141,241,271,150],"times":[454,519,1003,670,480,537,877,521,489,624],"next_num":10,"trial_type":"ticket-choose","trial_index":60,"time_elapsed":494258,"internal_node_id":"0.0-60.0"},{"result":130,"points":2,"place":1,"phase":0,"sequence":41,"prices":[156,181,130,255,175,200,170,150,111,205],"times":[878,631,775],"next_num":3,"trial_type":"ticket-choose","trial_index":61,"time_elapsed":498671,"internal_node_id":"0.0-61.0"},{"result":75,"points":3,"place":0,"phase":0,"sequence":42,"prices":[75,171,131,151,161,250,145,190,206,156],"times":[777],"next_num":1,"trial_type":"ticket-choose","trial_index":62,"time_elapsed":501091,"internal_node_id":"0.0-62.0"},{"result":120,"points":2,"place":1,"phase":0,"sequence":43,"prices":[145,171,161,245,165,191,120,140,100,196],"times":[612,449,477,490,497,511,846],"next_num":7,"trial_type":"ticket-choose","trial_index":63,"time_elapsed":507932,"internal_node_id":"0.0-63.0"},{"result":131,"points":2,"place":1,"phase":0,"sequence":44,"prices":[160,180,170,251,176,195,131,146,105,200],"times":[911,472,482,472,577,495,736],"next_num":7,"trial_type":"ticket-choose","trial_index":64,"time_elapsed":515067,"internal_node_id":"0.0-64.0"},{"result":126,"points":2,"place":1,"phase":0,"sequence":45,"prices":[150,175,166,251,170,196,126,145,105,201],"times":[1135,457,490,583,538,687,759],"next_num":7,"trial_type":"ticket-choose","trial_index":65,"time_elapsed":522694,"internal_node_id":"0.0-65.0"},{"result":141,"points":2,"place":1,"phase":0,"sequence":46,"prices":[135,180,141,151,175,220,145,196,211,155],"times":[3079,457,893],"next_num":3,"trial_type":"ticket-choose","trial_index":66,"time_elapsed":529352,"internal_node_id":"0.0-66.0"},{"result":30,"points":3,"place":0,"phase":0,"sequence":47,"prices":[155,30,101,55,136,276,70,181,200,261],"times":[810,719],"next_num":2,"trial_type":"ticket-choose","trial_index":67,"time_elapsed":532789,"internal_node_id":"0.0-67.0"},{"result":120,"points":3,"place":0,"phase":0,"sequence":48,"prices":[120,221,135,185,200,261,181,251,255,196],"times":[834],"next_num":1,"trial_type":"ticket-choose","trial_index":68,"time_elapsed":535385,"internal_node_id":"0.0-68.0"},{"result":126,"points":2,"place":1,"phase":0,"sequence":49,"prices":[151,176,126,251,170,196,165,145,105,201],"times":[698,498,717],"next_num":3,"trial_type":"ticket-choose","trial_index":69,"time_elapsed":539480,"internal_node_id":"0.0-69.0"},{"responses":[{"value":1,"offby":0,"category":"$30 - $75","category_index":0},{"value":1,"offby":-1,"category":"$76 - $120","category_index":1},{"value":3,"offby":-1,"category":"$121 - $165","category_index":2},{"value":5,"offby":-1,"category":"$166 - $210","category_index":3},{"value":4,"offby":-2,"category":"$211 - $255","category_index":4},{"value":1,"offby":0,"category":"$256 - $300","category_index":5},{"value":0,"offby":0,"category":"$301 - $345","category_index":6}],"phase":0,"number":1,"trial_type":"bar-choose","trial_index":70,"time_elapsed":587558,"internal_node_id":"0.0-70.0"},{"rt":7832,"url":"\/tickets\/utils\/start2.html","trial_type":"html","trial_index":71,"time_elapsed":596558,"internal_node_id":"0.0-71.0"},{"trial_type":"number-animation","trial_index":72,"time_elapsed":605431,"internal_node_id":"0.0-72.0"},{"phase":1,"sequence":0,"avg":180,"response":175,"trial_type":"training_avg","trial_index":73,"time_elapsed":610272,"internal_node_id":"0.0-73.0"},{"trial_type":"number-animation","trial_index":74,"time_elapsed":619319,"internal_node_id":"0.0-74.0"},{"phase":1,"sequence":1,"avg":178,"response":178,"trial_type":"training_avg","trial_index":75,"time_elapsed":623827,"internal_node_id":"0.0-75.0"},{"trial_type":"number-animation","trial_index":76,"time_elapsed":632613,"internal_node_id":"0.0-76.0"},{"phase":1,"sequence":2,"avg":176,"response":175,"trial_type":"training_avg","trial_index":77,"time_elapsed":636692,"internal_node_id":"0.0-77.0"},{"trial_type":"number-animation","trial_index":78,"time_elapsed":645049,"internal_node_id":"0.0-78.0"},{"phase":1,"sequence":3,"avg":178,"response":179,"trial_type":"training_avg","trial_index":79,"time_elapsed":649223,"internal_node_id":"0.0-79.0"},{"trial_type":"number-animation","trial_index":80,"time_elapsed":657548,"internal_node_id":"0.0-80.0"},{"phase":1,"sequence":4,"avg":179,"response":180,"trial_type":"training_avg","trial_index":81,"time_elapsed":661230,"internal_node_id":"0.0-81.0"},{"responses":[{"value":0,"offby":0,"category":"$140 - $250","category_index":0},{"value":0,"offby":0,"category":"$151 - $160","category_index":1},{"value":3,"offby":-1,"category":"$161 - $170","category_index":2},{"value":7,"offby":1,"category":"$171 - $180","category_index":3},{"value":7,"offby":0,"category":"$181 - $190","category_index":4},{"value":3,"offby":0,"category":"$191 - $200","category_index":5},{"value":0,"offby":0,"category":"$201 - $210","category_index":6}],"phase":1,"number":0,"trial_type":"bar-choose","trial_index":82,"time_elapsed":687976,"internal_node_id":"0.0-82.0"},{"rt":10757,"url":"\/tickets\/utils\/testing2.html","trial_type":"html","trial_index":83,"time_elapsed":699904,"internal_node_id":"0.0-83.0"},{"phase":1,"order":[26,39,36,38,7,5,33,43,41,0,1,24,23,12,16,19,42,37,3,47,25,49,9,4,15,48,8,34,17,30,31,18,40,21,20,46,14,10,35,45,29,11,28,22,13,6,32,44,27,2],"trial_type":"store_order","trial_index":84,"time_elapsed":700905,"internal_node_id":"0.0-84.0"},{"result":167,"points":3,"place":0,"phase":1,"sequence":0,"prices":[179,174,199,178,196,167,170,184,177,190],"times":[1713,758,766,934,860,728],"next_num":6,"trial_type":"ticket-choose","trial_index":85,"time_elapsed":709603,"internal_node_id":"0.0-85.0"},{"result":163,"points":3,"place":0,"phase":1,"sequence":1,"prices":[163,185,165,174,181,198,173,186,187,180],"times":[833],"next_num":1,"trial_type":"ticket-choose","trial_index":86,"time_elapsed":712174,"internal_node_id":"0.0-86.0"},{"result":168,"points":2,"place":1,"phase":1,"sequence":2,"prices":[173,178,168,193,177,182,176,172,164,183],"times":[864,497,830],"next_num":3,"trial_type":"ticket-choose","trial_index":87,"time_elapsed":716513,"internal_node_id":"0.0-87.0"},{"result":169,"points":2,"place":1,"phase":1,"sequence":3,"prices":[174,179,169,194,178,183,177,173,165,184],"times":[787,487,671],"next_num":3,"trial_type":"ticket-choose","trial_index":88,"time_elapsed":720665,"internal_node_id":"0.0-88.0"},{"result":166,"points":3,"place":0,"phase":1,"sequence":4,"prices":[175,180,178,195,179,184,170,174,166,185],"times":[650,490,472,514,622,742,1211,887,710],"next_num":9,"trial_type":"ticket-choose","trial_index":89,"time_elapsed":730355,"internal_node_id":"0.0-89.0"},{"result":168,"points":2,"place":1,"phase":1,"sequence":5,"prices":[181,175,182,168,183,173,153,170,193,179],"times":[805,641,529,701],"next_num":4,"trial_type":"ticket-choose","trial_index":90,"time_elapsed":735362,"internal_node_id":"0.0-90.0"},{"result":159,"points":3,"place":0,"phase":1,"sequence":6,"prices":[159,178,170,174,176,194,173,182,185,175],"times":[891],"next_num":1,"trial_type":"ticket-choose","trial_index":91,"time_elapsed":737981,"internal_node_id":"0.0-91.0"},{"result":165,"points":3,"place":0,"phase":1,"sequence":7,"prices":[165,187,173,177,186,196,176,191,192,181],"times":[1032],"next_num":1,"trial_type":"ticket-choose","trial_index":92,"time_elapsed":740719,"internal_node_id":"0.0-92.0"},{"result":169,"points":1,"place":2,"phase":1,"sequence":8,"prices":[189,185,169,168,167,171,180,173,174,188],"times":[620,511,726],"next_num":3,"trial_type":"ticket-choose","trial_index":93,"time_elapsed":744965,"internal_node_id":"0.0-93.0"},{"result":169,"points":2,"place":1,"phase":1,"sequence":9,"prices":[175,179,169,193,178,182,177,172,164,183],"times":[660,464,1774],"next_num":3,"trial_type":"ticket-choose","trial_index":94,"time_elapsed":750029,"internal_node_id":"0.0-94.0"},{"result":162,"points":3,"place":0,"phase":1,"sequence":10,"prices":[179,174,172,162,202,184,165,197,185,169],"times":[787,479,797,662],"next_num":4,"trial_type":"ticket-choose","trial_index":95,"time_elapsed":755068,"internal_node_id":"0.0-95.0"},{"result":173,"points":1,"place":2,"phase":1,"sequence":11,"prices":[176,180,170,194,179,183,178,173,165,184],"times":[1509,543,489,536,519,568,782,742],"next_num":8,"trial_type":"ticket-choose","trial_index":96,"time_elapsed":763981,"internal_node_id":"0.0-96.0"},{"result":170,"points":2,"place":1,"phase":1,"sequence":12,"prices":[176,180,178,194,179,183,170,173,165,184],"times":[826,513,512,504,496,560,806],"next_num":7,"trial_type":"ticket-choose","trial_index":97,"time_elapsed":771354,"internal_node_id":"0.0-97.0"},{"result":157,"points":2,"place":1,"phase":1,"sequence":13,"prices":[188,191,179,157,181,164,166,156,175,182],"times":[715,473,527,750],"next_num":4,"trial_type":"ticket-choose","trial_index":98,"time_elapsed":776155,"internal_node_id":"0.0-98.0"},{"result":170,"points":2,"place":1,"phase":1,"sequence":14,"prices":[175,180,178,195,179,184,170,174,166,185],"times":[604,504,486,528,736,631,1106],"next_num":7,"trial_type":"ticket-choose","trial_index":99,"time_elapsed":783783,"internal_node_id":"0.0-99.0"},{"result":165,"points":3,"place":0,"phase":1,"sequence":15,"prices":[180,165,177,193,186,196,187,169,171,182],"times":[675,741],"next_num":2,"trial_type":"ticket-choose","trial_index":100,"time_elapsed":787140,"internal_node_id":"0.0-100.0"},{"result":169,"points":2,"place":1,"phase":1,"sequence":16,"prices":[175,179,177,193,178,182,169,172,164,183],"times":[846,506,512,559,505,614,720],"next_num":7,"trial_type":"ticket-choose","trial_index":101,"time_elapsed":794393,"internal_node_id":"0.0-101.0"},{"result":181,"points":0,"place":5,"phase":1,"sequence":17,"prices":[180,175,173,177,191,190,184,196,174,181],"times":[666,512,480,568,495,488,631,600,988,845],"next_num":10,"trial_type":"ticket-choose","trial_index":102,"time_elapsed":804386,"internal_node_id":"0.0-102.0"},{"result":165,"points":2,"place":1,"phase":1,"sequence":18,"prices":[181,180,191,186,165,197,159,167,194,185],"times":[801,528,496,552,805],"next_num":5,"trial_type":"ticket-choose","trial_index":103,"time_elapsed":810123,"internal_node_id":"0.0-103.0"},{"result":170,"points":2,"place":1,"phase":1,"sequence":19,"prices":[175,180,170,195,179,184,178,174,166,185],"times":[844,457,726],"next_num":3,"trial_type":"ticket-choose","trial_index":104,"time_elapsed":814211,"internal_node_id":"0.0-104.0"},{"result":161,"points":3,"place":0,"phase":1,"sequence":20,"prices":[161,180,170,174,178,198,173,182,188,176],"times":[683],"next_num":1,"trial_type":"ticket-choose","trial_index":105,"time_elapsed":816623,"internal_node_id":"0.0-105.0"},{"result":174,"points":1,"place":2,"phase":1,"sequence":21,"prices":[175,180,170,195,179,184,178,174,166,185],"times":[643,465,473,631,671,765,680,734],"next_num":8,"trial_type":"ticket-choose","trial_index":106,"time_elapsed":824845,"internal_node_id":"0.0-106.0"},{"result":171,"points":1,"place":2,"phase":1,"sequence":22,"prices":[195,177,197,179,171,173,175,156,163,204],"times":[770,719,567,812,656],"next_num":5,"trial_type":"ticket-choose","trial_index":107,"time_elapsed":830893,"internal_node_id":"0.0-107.0"},{"result":160,"points":3,"place":0,"phase":1,"sequence":23,"prices":[160,185,170,174,182,196,173,186,194,177],"times":[682],"next_num":1,"trial_type":"ticket-choose","trial_index":108,"time_elapsed":833265,"internal_node_id":"0.0-108.0"},{"result":170,"points":2,"place":1,"phase":1,"sequence":24,"prices":[176,180,178,194,179,183,170,173,165,184],"times":[564,559,488,537,551,592,727],"next_num":7,"trial_type":"ticket-choose","trial_index":109,"time_elapsed":840258,"internal_node_id":"0.0-109.0"},{"result":168,"points":2,"place":1,"phase":1,"sequence":25,"prices":[174,178,176,192,177,181,168,171,163,182],"times":[632,448,703,495,703,488,759],"next_num":7,"trial_type":"ticket-choose","trial_index":110,"time_elapsed":847448,"internal_node_id":"0.0-110.0"},{"result":173,"points":1,"place":2,"phase":1,"sequence":26,"prices":[176,180,170,194,179,183,178,173,165,184],"times":[635,521,481,455,631,513,694,1751],"next_num":8,"trial_type":"ticket-choose","trial_index":111,"time_elapsed":856280,"internal_node_id":"0.0-111.0"},{"result":170,"points":3,"place":0,"phase":1,"sequence":27,"prices":[170,183,172,175,180,189,174,187,188,179],"times":[786],"next_num":1,"trial_type":"ticket-choose","trial_index":112,"time_elapsed":858781,"internal_node_id":"0.0-112.0"},{"result":150,"points":3,"place":0,"phase":1,"sequence":28,"prices":[175,150,164,155,171,199,158,180,184,196],"times":[845,718],"next_num":2,"trial_type":"ticket-choose","trial_index":113,"time_elapsed":862202,"internal_node_id":"0.0-113.0"},{"result":168,"points":2,"place":1,"phase":1,"sequence":29,"prices":[173,178,168,193,177,182,176,172,164,183],"times":[736,464,720],"next_num":3,"trial_type":"ticket-choose","trial_index":114,"time_elapsed":866256,"internal_node_id":"0.0-114.0"},{"result":168,"points":2,"place":1,"phase":1,"sequence":30,"prices":[173,178,176,193,177,182,168,172,164,183],"times":[677,511,654,584,630,535,624],"next_num":7,"trial_type":"ticket-choose","trial_index":115,"time_elapsed":873439,"internal_node_id":"0.0-115.0"},{"result":171,"points":3,"place":0,"phase":1,"sequence":31,"prices":[193,173,175,182,179,198,181,171,176,187],"times":[596,925,521,512,544,552,781,709],"next_num":8,"trial_type":"ticket-choose","trial_index":116,"time_elapsed":881741,"internal_node_id":"0.0-116.0"},{"result":168,"points":2,"place":1,"phase":1,"sequence":32,"prices":[174,178,176,192,177,181,168,171,163,182],"times":[1539,505,512,528,584,598,736],"next_num":7,"trial_type":"ticket-choose","trial_index":117,"time_elapsed":889660,"internal_node_id":"0.0-117.0"},{"result":160,"points":3,"place":0,"phase":1,"sequence":33,"prices":[175,193,175,160,180,170,175,205,177,167],"times":[651,488,521,734],"next_num":4,"trial_type":"ticket-choose","trial_index":118,"time_elapsed":894344,"internal_node_id":"0.0-118.0"},{"result":168,"points":2,"place":1,"phase":1,"sequence":34,"prices":[173,178,176,193,177,182,168,172,164,183],"times":[794,489,529,527,583,481,695],"next_num":7,"trial_type":"ticket-choose","trial_index":119,"time_elapsed":902653,"internal_node_id":"0.0-119.0"},{"result":171,"points":1,"place":2,"phase":1,"sequence":35,"prices":[174,178,168,192,177,181,176,171,163,182],"times":[716,450,415,861,576,537,1202,694],"next_num":8,"trial_type":"ticket-choose","trial_index":120,"time_elapsed":911304,"internal_node_id":"0.0-120.0"},{"result":169,"points":2,"place":1,"phase":1,"sequence":36,"prices":[174,179,177,194,178,183,169,173,165,184],"times":[700,449,614,504,711,623,774],"next_num":7,"trial_type":"ticket-choose","trial_index":121,"time_elapsed":918675,"internal_node_id":"0.0-121.0"},{"result":168,"points":3,"place":0,"phase":1,"sequence":37,"prices":[168,188,171,181,184,196,180,194,195,183],"times":[651],"next_num":1,"trial_type":"ticket-choose","trial_index":122,"time_elapsed":921009,"internal_node_id":"0.0-122.0"},{"result":169,"points":2,"place":1,"phase":1,"sequence":38,"prices":[175,179,177,193,178,182,169,172,164,183],"times":[621,446,513,496,503,528,679],"next_num":7,"trial_type":"ticket-choose","trial_index":123,"time_elapsed":927707,"internal_node_id":"0.0-123.0"},{"result":170,"points":2,"place":1,"phase":1,"sequence":39,"prices":[175,189,193,170,179,165,180,186,177,184],"times":[628,480,464,774],"next_num":4,"trial_type":"ticket-choose","trial_index":124,"time_elapsed":932421,"internal_node_id":"0.0-124.0"},{"result":169,"points":2,"place":1,"phase":1,"sequence":40,"prices":[174,179,177,194,178,183,169,173,165,184],"times":[562,512,439,464,473,575,686],"next_num":7,"trial_type":"ticket-choose","trial_index":125,"time_elapsed":939080,"internal_node_id":"0.0-125.0"},{"result":169,"points":2,"place":1,"phase":1,"sequence":41,"prices":[174,179,169,194,178,183,177,173,165,184],"times":[3168,600,766],"next_num":3,"trial_type":"ticket-choose","trial_index":126,"time_elapsed":945746,"internal_node_id":"0.0-126.0"},{"result":157,"points":3,"place":0,"phase":1,"sequence":42,"prices":[157,184,163,174,181,190,168,187,189,177],"times":[683],"next_num":1,"trial_type":"ticket-choose","trial_index":127,"time_elapsed":948095,"internal_node_id":"0.0-127.0"},{"result":175,"points":1,"place":4,"phase":1,"sequence":43,"prices":[171,180,172,174,179,188,173,183,186,175],"times":[747,489,687,527,473,474,2281,504,511,536],"next_num":10,"trial_type":"ticket-choose","trial_index":128,"time_elapsed":958991,"internal_node_id":"0.0-128.0"},{"result":166,"points":3,"place":0,"phase":1,"sequence":44,"prices":[166,190,170,173,178,203,172,192,198,174],"times":[715],"next_num":1,"trial_type":"ticket-choose","trial_index":129,"time_elapsed":961443,"internal_node_id":"0.0-129.0"},{"result":166,"points":3,"place":0,"phase":1,"sequence":45,"prices":[179,186,197,201,166,187,188,193,190,177],"times":[668,581,496,542,766],"next_num":5,"trial_type":"ticket-choose","trial_index":130,"time_elapsed":967046,"internal_node_id":"0.0-130.0"},{"result":169,"points":2,"place":1,"phase":1,"sequence":46,"prices":[175,179,169,193,178,182,177,172,164,183],"times":[610,441,678],"next_num":3,"trial_type":"ticket-choose","trial_index":131,"time_elapsed":970887,"internal_node_id":"0.0-131.0"},{"result":154,"points":3,"place":0,"phase":1,"sequence":47,"prices":[188,179,154,183,173,170,177,160,169,175],"times":[801,869,734],"next_num":3,"trial_type":"ticket-choose","trial_index":132,"time_elapsed":975395,"internal_node_id":"0.0-132.0"},{"result":168,"points":2,"place":1,"phase":1,"sequence":48,"prices":[174,178,168,192,177,181,176,171,163,182],"times":[784,472,688],"next_num":3,"trial_type":"ticket-choose","trial_index":133,"time_elapsed":979467,"internal_node_id":"0.0-133.0"},{"result":170,"points":3,"place":0,"phase":1,"sequence":49,"prices":[181,179,199,188,170,172,178,187,191,177],"times":[746,720,544,512,830],"next_num":5,"trial_type":"ticket-choose","trial_index":134,"time_elapsed":985403,"internal_node_id":"0.0-134.0"},{"responses":[{"value":0,"offby":0,"category":"$140 - $250","category_index":0},{"value":1,"offby":1,"category":"$151 - $160","category_index":1},{"value":2,"offby":-2,"category":"$161 - $170","category_index":2},{"value":6,"offby":0,"category":"$171 - $180","category_index":3},{"value":6,"offby":-1,"category":"$181 - $190","category_index":4},{"value":4,"offby":1,"category":"$191 - $200","category_index":5},{"value":1,"offby":1,"category":"$201 - $210","category_index":6}],"phase":1,"number":1,"trial_type":"bar-choose","trial_index":135,"time_elapsed":1024809,"internal_node_id":"0.0-135.0"},{"special_comment":"No,but asking me a question like this makes me think that I should have!","trial_type":"special_sequence","trial_index":136,"time_elapsed":1049935,"internal_node_id":"0.0-136.0"},{"during":"Nothing","bonus":300,"trial_type":"final","trial_index":137,"time_elapsed":1066859,"internal_node_id":"0.0-137.0"}],"bonus":300}