{"start_time":"2017-02-22 11:50:03","end_time":"2017-02-22 12:32:23","points_phase0":114,"points_phase1":116,"phase_order":0,"age":53,"gender":"f","tries":1,"during":"Nothing","worker_id":"A1NVJB5O4H7ZCJ","assignment_id":"3KV0LJBBH3EEBQ1ELIJ4GIOSTQPRMY","data":[{"rt":644245,"url":"\/tickets\/utils\/consent.html","trial_type":"html","trial_index":0,"time_elapsed":644436,"internal_node_id":"0.0-0.0"},{"age":53,"gender":"f","trial_type":"age","trial_index":1,"time_elapsed":650527,"internal_node_id":"0.0-1.0"},{"worker_id":"A1NVJB5O4H7ZCJ","trial_type":"workerid","trial_index":2,"time_elapsed":668055,"internal_node_id":"0.0-2.0"},{"tries":1,"trial_type":"instructions_check","trial_index":3,"time_elapsed":704506,"internal_node_id":"0.0-3.0"},{"rt":9033,"url":"\/tickets\/utils\/start.html","trial_type":"html","trial_index":4,"time_elapsed":714739,"internal_node_id":"0.0-4.0"},{"trial_type":"number-animation","trial_index":5,"time_elapsed":753164,"internal_node_id":"0.0-5.0"},{"phase":0,"sequence":0,"avg":181,"response":181,"trial_type":"training_avg","trial_index":6,"time_elapsed":797593,"internal_node_id":"0.0-6.0"},{"trial_type":"number-animation","trial_index":7,"time_elapsed":839279,"internal_node_id":"0.0-7.0"},{"phase":0,"sequence":1,"avg":188,"response":188,"trial_type":"training_avg","trial_index":8,"time_elapsed":852660,"internal_node_id":"0.0-8.0"},{"trial_type":"number-animation","trial_index":9,"time_elapsed":883116,"internal_node_id":"0.0-9.0"},{"phase":0,"sequence":2,"avg":188,"response":188,"trial_type":"training_avg","trial_index":10,"time_elapsed":895856,"internal_node_id":"0.0-10.0"},{"trial_type":"number-animation","trial_index":11,"time_elapsed":931071,"internal_node_id":"0.0-11.0"},{"phase":0,"sequence":3,"avg":177,"response":177,"trial_type":"training_avg","trial_index":12,"time_elapsed":942986,"internal_node_id":"0.0-12.0"},{"trial_type":"number-animation","trial_index":13,"time_elapsed":985621,"internal_node_id":"0.0-13.0"},{"phase":0,"sequence":4,"avg":182,"response":182,"trial_type":"training_avg","trial_index":14,"time_elapsed":994917,"internal_node_id":"0.0-14.0"},{"responses":[{"value":2,"offby":2,"category":"$106 - $134","category_index":0},{"value":2,"offby":1,"category":"$135 - $150","category_index":1},{"value":3,"offby":0,"category":"$151 - $165","category_index":2},{"value":8,"offby":2,"category":"$166 - $180","category_index":3},{"value":3,"offby":-3,"category":"$181 - $195","category_index":4},{"value":2,"offby":-1,"category":"$196 - $210","category_index":5},{"value":0,"offby":-1,"category":"$211 - $225","category_index":6}],"phase":0,"number":0,"trial_type":"bar-choose","trial_index":15,"time_elapsed":1106018,"internal_node_id":"0.0-15.0"},{"rt":11012,"url":"\/tickets\/\/utils\/testing.html","trial_type":"html","trial_index":16,"time_elapsed":1118203,"internal_node_id":"0.0-16.0"},{"phase":0,"order":[42,36,24,4,17,19,7,23,26,47,5,32,9,44,15,48,49,41,37,6,28,0,39,27,11,45,21,29,34,8,22,33,20,46,16,12,2,1,18,30,10,31,13,35,25,40,38,43,14,3],"trial_type":"store_order","trial_index":17,"time_elapsed":1119204,"internal_node_id":"0.0-17.0"},{"result":165,"points":2,"place":1,"phase":0,"sequence":-1,"prices":[184,180,224,165,181,199,185,193,218,126],"times":[8583,1342,820,2118],"next_num":4,"trial_type":"ticket-choose","trial_index":18,"time_elapsed":1135637,"internal_node_id":"0.0-18.0"},{"rt":23715,"url":"\/tickets\/utils\/testing_after.html","trial_type":"html","trial_index":19,"time_elapsed":1160512,"internal_node_id":"0.0-19.0"},{"result":143,"points":3,"place":0,"phase":0,"sequence":0,"prices":[222,173,202,197,143,205,198,183,178,186],"times":[6556,1327,866,724,1535],"next_num":5,"trial_type":"ticket-choose","trial_index":20,"time_elapsed":1176218,"internal_node_id":"0.0-20.0"},{"result":154,"points":3,"place":0,"phase":0,"sequence":1,"prices":[188,200,165,172,198,174,177,154,177,180],"times":[2923,837,717,821,678,686,732,2806],"next_num":8,"trial_type":"ticket-choose","trial_index":21,"time_elapsed":1190508,"internal_node_id":"0.0-21.0"},{"result":184,"points":1,"place":4,"phase":0,"sequence":2,"prices":[161,193,175,181,185,224,180,199,218,184],"times":[3561,1693,702,1910,2733,685,838,1774,1039,2197],"next_num":11,"trial_type":"ticket-choose","trial_index":22,"time_elapsed":1213158,"internal_node_id":"0.0-22.0"},{"result":176,"points":1,"place":3,"phase":0,"sequence":3,"prices":[176,186,176,210,179,187,163,166,153,208],"times":[2419,677,2350],"next_num":3,"trial_type":"ticket-choose","trial_index":23,"time_elapsed":1221824,"internal_node_id":"0.0-23.0"},{"result":158,"points":2,"place":1,"phase":0,"sequence":4,"prices":[175,186,158,209,181,188,177,167,208,154],"times":[1362,573,4711],"next_num":3,"trial_type":"ticket-choose","trial_index":24,"time_elapsed":1231385,"internal_node_id":"0.0-24.0"},{"result":154,"points":3,"place":0,"phase":0,"sequence":5,"prices":[176,185,158,217,180,186,177,166,209,154],"times":[896,605,1030,638,596,590,590,1318,695,1436],"next_num":10,"trial_type":"ticket-choose","trial_index":25,"time_elapsed":1244194,"internal_node_id":"0.0-25.0"},{"result":163,"points":2,"place":1,"phase":0,"sequence":6,"prices":[175,186,176,224,179,187,163,165,153,210],"times":[1251,2702,613,4050,938,1059,4481],"next_num":7,"trial_type":"ticket-choose","trial_index":26,"time_elapsed":1263236,"internal_node_id":"0.0-26.0"},{"result":158,"points":2,"place":1,"phase":0,"sequence":7,"prices":[176,185,177,218,180,186,158,166,209,154],"times":[1011,580,462,517,534,605,2279],"next_num":7,"trial_type":"ticket-choose","trial_index":27,"time_elapsed":1272669,"internal_node_id":"0.0-27.0"},{"result":180,"points":1,"place":4,"phase":0,"sequence":8,"prices":[152,200,158,173,182,207,161,202,204,180],"times":[858,925,549,582,534,535,581,583,596,2431],"next_num":10,"trial_type":"ticket-choose","trial_index":28,"time_elapsed":1285575,"internal_node_id":"0.0-28.0"},{"result":152,"points":3,"place":0,"phase":0,"sequence":9,"prices":[200,181,203,152,175,171,160,154,176,191],"times":[1297,655,565,1339],"next_num":4,"trial_type":"ticket-choose","trial_index":29,"time_elapsed":1292968,"internal_node_id":"0.0-29.0"},{"result":163,"points":2,"place":1,"phase":0,"sequence":10,"prices":[175,187,176,209,180,188,163,165,154,208],"times":[1187,805,1469,612,598,582,5415],"next_num":7,"trial_type":"ticket-choose","trial_index":30,"time_elapsed":1307184,"internal_node_id":"0.0-30.0"},{"result":188,"points":1,"place":4,"phase":0,"sequence":11,"prices":[161,193,167,187,190,224,174,194,195,188],"times":[786,757,534,661,551,557,493,645,1046,2039],"next_num":10,"trial_type":"ticket-choose","trial_index":31,"time_elapsed":1319515,"internal_node_id":"0.0-31.0"},{"result":167,"points":2,"place":1,"phase":0,"sequence":12,"prices":[175,185,167,224,181,186,178,168,208,156],"times":[1378,590,2102],"next_num":3,"trial_type":"ticket-choose","trial_index":32,"time_elapsed":1326532,"internal_node_id":"0.0-32.0"},{"result":159,"points":1,"place":2,"phase":0,"sequence":13,"prices":[180,159,149,175,185,141,163,174,178,207],"times":[1760,1187],"next_num":2,"trial_type":"ticket-choose","trial_index":33,"time_elapsed":1332324,"internal_node_id":"0.0-33.0"},{"result":169,"points":1,"place":2,"phase":0,"sequence":14,"prices":[175,187,178,209,179,187,167,169,208,153],"times":[1034,557,540,661,661,749,2246,1541],"next_num":8,"trial_type":"ticket-choose","trial_index":34,"time_elapsed":1344182,"internal_node_id":"0.0-34.0"},{"result":147,"points":3,"place":0,"phase":0,"sequence":15,"prices":[181,215,169,147,182,193,177,184,176,179],"times":[786,372,734,1231],"next_num":4,"trial_type":"ticket-choose","trial_index":35,"time_elapsed":1350095,"internal_node_id":"0.0-35.0"},{"result":166,"points":1,"place":3,"phase":0,"sequence":16,"prices":[183,163,185,180,166,148,160,186,176,184],"times":[1042,4320,557,503,1303],"next_num":5,"trial_type":"ticket-choose","trial_index":36,"time_elapsed":1360943,"internal_node_id":"0.0-36.0"},{"result":155,"points":2,"place":1,"phase":0,"sequence":17,"prices":[201,207,155,158,156,165,167,135,178,177],"times":[906,493,1400],"next_num":3,"trial_type":"ticket-choose","trial_index":37,"time_elapsed":1366255,"internal_node_id":"0.0-37.0"},{"result":152,"points":3,"place":0,"phase":0,"sequence":18,"prices":[198,193,169,163,202,182,152,164,177,171],"times":[713,564,550,601,621,755,1338],"next_num":7,"trial_type":"ticket-choose","trial_index":38,"time_elapsed":1374818,"internal_node_id":"0.0-38.0"},{"result":163,"points":2,"place":1,"phase":0,"sequence":19,"prices":[174,186,176,217,181,187,163,166,153,209],"times":[2192,733,565,1950,894,2404,1165],"next_num":7,"trial_type":"ticket-choose","trial_index":39,"time_elapsed":1388082,"internal_node_id":"0.0-39.0"},{"result":185,"points":1,"place":4,"phase":0,"sequence":20,"prices":[169,196,170,184,187,211,171,201,202,185],"times":[927,933,526,558,589,590,656,1062,903,1373],"next_num":10,"trial_type":"ticket-choose","trial_index":40,"time_elapsed":1400285,"internal_node_id":"0.0-40.0"},{"result":163,"points":2,"place":1,"phase":0,"sequence":21,"prices":[176,186,163,214,179,187,176,166,153,208],"times":[1106,669,2101],"next_num":3,"trial_type":"ticket-choose","trial_index":41,"time_elapsed":1406693,"internal_node_id":"0.0-41.0"},{"result":165,"points":3,"place":0,"phase":0,"sequence":22,"prices":[189,167,180,197,165,168,172,213,178,171],"times":[1121,1251,655,623,1535],"next_num":5,"trial_type":"ticket-choose","trial_index":42,"time_elapsed":1414718,"internal_node_id":"0.0-42.0"},{"result":186,"points":1,"place":4,"phase":0,"sequence":23,"prices":[168,192,171,178,188,217,172,195,197,186],"times":[2881,653,590,524,638,614,630,605,1005,1629],"next_num":10,"trial_type":"ticket-choose","trial_index":43,"time_elapsed":1428991,"internal_node_id":"0.0-43.0"},{"result":167,"points":2,"place":1,"phase":0,"sequence":24,"prices":[175,187,167,212,179,187,178,169,208,153],"times":[2316,591,1794],"next_num":3,"trial_type":"ticket-choose","trial_index":44,"time_elapsed":1436288,"internal_node_id":"0.0-44.0"},{"result":164,"points":3,"place":0,"phase":0,"sequence":25,"prices":[212,192,188,184,167,193,189,164,176,170],"times":[1123,483,621,493,510,526,581,1102],"next_num":8,"trial_type":"ticket-choose","trial_index":45,"time_elapsed":1445425,"internal_node_id":"0.0-45.0"},{"result":158,"points":2,"place":1,"phase":0,"sequence":26,"prices":[175,186,177,209,181,188,158,167,208,154],"times":[748,707,597,669,572,637,1364],"next_num":7,"trial_type":"ticket-choose","trial_index":46,"time_elapsed":1454043,"internal_node_id":"0.0-46.0"},{"result":150,"points":3,"place":0,"phase":0,"sequence":27,"prices":[150,185,154,161,173,199,155,188,191,168],"times":[3296],"next_num":1,"trial_type":"ticket-choose","trial_index":47,"time_elapsed":1459947,"internal_node_id":"0.0-47.0"},{"result":155,"points":2,"place":1,"phase":0,"sequence":28,"prices":[181,155,148,161,168,187,172,199,176,194],"times":[1136,1182],"next_num":2,"trial_type":"ticket-choose","trial_index":48,"time_elapsed":1464564,"internal_node_id":"0.0-48.0"},{"result":156,"points":3,"place":0,"phase":0,"sequence":29,"prices":[174,186,167,211,181,188,178,168,208,156],"times":[1071,620,623,711,574,598,750,1728,788,1420],"next_num":10,"trial_type":"ticket-choose","trial_index":49,"time_elapsed":1477796,"internal_node_id":"0.0-49.0"},{"result":158,"points":2,"place":1,"phase":0,"sequence":30,"prices":[176,187,177,225,181,187,158,165,208,153],"times":[971,3998,5097,508,507,534,1667],"next_num":7,"trial_type":"ticket-choose","trial_index":50,"time_elapsed":1495134,"internal_node_id":"0.0-50.0"},{"result":159,"points":3,"place":0,"phase":0,"sequence":31,"prices":[159,183,166,168,173,205,167,187,191,170],"times":[1874],"next_num":1,"trial_type":"ticket-choose","trial_index":51,"time_elapsed":1499464,"internal_node_id":"0.0-51.0"},{"result":158,"points":2,"place":1,"phase":0,"sequence":32,"prices":[175,186,177,221,180,187,158,166,209,153],"times":[899,570,486,689,871,814,1318],"next_num":7,"trial_type":"ticket-choose","trial_index":52,"time_elapsed":1508649,"internal_node_id":"0.0-52.0"},{"result":158,"points":3,"place":0,"phase":0,"sequence":33,"prices":[210,184,226,193,215,158,199,175,176,208],"times":[768,638,445,494,493,2622],"next_num":6,"trial_type":"ticket-choose","trial_index":53,"time_elapsed":1517297,"internal_node_id":"0.0-53.0"},{"result":158,"points":2,"place":1,"phase":0,"sequence":34,"prices":[175,186,158,211,180,187,177,166,209,153],"times":[716,368,1378],"next_num":3,"trial_type":"ticket-choose","trial_index":54,"time_elapsed":1522206,"internal_node_id":"0.0-54.0"},{"result":156,"points":3,"place":0,"phase":0,"sequence":35,"prices":[174,186,178,217,181,188,167,168,208,156],"times":[855,580,454,551,579,502,455,1629,565,1206],"next_num":11,"trial_type":"ticket-choose","trial_index":55,"time_elapsed":1535668,"internal_node_id":"0.0-55.0"},{"result":153,"points":3,"place":0,"phase":0,"sequence":36,"prices":[174,186,163,212,181,187,176,166,153,209],"times":[8566,709,541,565,469,429,477,2398,926],"next_num":9,"trial_type":"ticket-choose","trial_index":56,"time_elapsed":1555387,"internal_node_id":"0.0-56.0"},{"result":163,"points":2,"place":1,"phase":0,"sequence":37,"prices":[175,187,163,209,180,188,176,165,154,208],"times":[15424,1147,1635],"next_num":3,"trial_type":"ticket-choose","trial_index":57,"time_elapsed":1576266,"internal_node_id":"0.0-57.0"},{"result":158,"points":2,"place":1,"phase":0,"sequence":38,"prices":[176,187,158,210,181,187,177,165,208,153],"times":[882,516,1311],"next_num":3,"trial_type":"ticket-choose","trial_index":58,"time_elapsed":1581739,"internal_node_id":"0.0-58.0"},{"result":157,"points":3,"place":0,"phase":0,"sequence":39,"prices":[157,191,165,175,182,203,170,195,200,176],"times":[1809],"next_num":1,"trial_type":"ticket-choose","trial_index":59,"time_elapsed":1585767,"internal_node_id":"0.0-59.0"},{"result":153,"points":3,"place":0,"phase":0,"sequence":40,"prices":[175,186,167,225,179,187,178,169,209,153],"times":[757,753,1947,701,732,635,573,686,652,1430],"next_num":10,"trial_type":"ticket-choose","trial_index":60,"time_elapsed":1598644,"internal_node_id":"0.0-60.0"},{"result":148,"points":3,"place":0,"phase":0,"sequence":41,"prices":[148,171,150,163,167,220,162,186,187,165],"times":[1622],"next_num":1,"trial_type":"ticket-choose","trial_index":61,"time_elapsed":1602573,"internal_node_id":"0.0-61.0"},{"result":156,"points":3,"place":0,"phase":0,"sequence":42,"prices":[175,185,178,215,181,186,167,168,208,156],"times":[1990,507,1115,669,708,797,923,958,766,1467],"next_num":10,"trial_type":"ticket-choose","trial_index":62,"time_elapsed":1618126,"internal_node_id":"0.0-62.0"},{"result":154,"points":2,"place":1,"phase":0,"sequence":43,"prices":[168,154,172,185,195,144,184,211,177,227],"times":[1004,1347],"next_num":2,"trial_type":"ticket-choose","trial_index":63,"time_elapsed":1623198,"internal_node_id":"0.0-63.0"},{"result":156,"points":3,"place":0,"phase":0,"sequence":44,"prices":[156,201,162,166,185,214,165,202,204,179],"times":[1803],"next_num":1,"trial_type":"ticket-choose","trial_index":64,"time_elapsed":1627065,"internal_node_id":"0.0-64.0"},{"result":150,"points":3,"place":0,"phase":0,"sequence":45,"prices":[189,150,175,160,188,207,158,194,178,199],"times":[591,1348],"next_num":2,"trial_type":"ticket-choose","trial_index":65,"time_elapsed":1631759,"internal_node_id":"0.0-65.0"},{"result":166,"points":2,"place":1,"phase":0,"sequence":46,"prices":[168,199,196,198,185,195,227,163,177,166],"times":[877,510,470,475,493,484,613,1895,1198,1116],"next_num":10,"trial_type":"ticket-choose","trial_index":66,"time_elapsed":1644212,"internal_node_id":"0.0-66.0"},{"result":157,"points":3,"place":0,"phase":0,"sequence":47,"prices":[201,187,157,184,198,179,188,185,178,170],"times":[5035,484,1605],"next_num":3,"trial_type":"ticket-choose","trial_index":67,"time_elapsed":1654071,"internal_node_id":"0.0-67.0"},{"result":153,"points":3,"place":0,"phase":0,"sequence":48,"prices":[175,186,178,212,179,187,167,169,209,153],"times":[942,422,540,911,462,480,615,539,909,1084],"next_num":10,"trial_type":"ticket-choose","trial_index":68,"time_elapsed":1665576,"internal_node_id":"0.0-68.0"},{"result":153,"points":3,"place":0,"phase":0,"sequence":49,"prices":[175,186,163,211,179,187,176,165,153,210],"times":[1035,526,797,743,476,981,572,1406,1311],"next_num":9,"trial_type":"ticket-choose","trial_index":69,"time_elapsed":1677617,"internal_node_id":"0.0-69.0"},{"responses":[{"value":3,"offby":3,"category":"$106 - $134","category_index":0},{"value":2,"offby":1,"category":"$135 - $150","category_index":1},{"value":5,"offby":2,"category":"$151 - $165","category_index":2},{"value":6,"offby":0,"category":"$166 - $180","category_index":3},{"value":2,"offby":-4,"category":"$181 - $195","category_index":4},{"value":1,"offby":-2,"category":"$196 - $210","category_index":5},{"value":1,"offby":0,"category":"$211 - $225","category_index":6}],"phase":0,"number":1,"trial_type":"bar-choose","trial_index":70,"time_elapsed":1741482,"internal_node_id":"0.0-70.0"},{"rt":4631,"url":"\/tickets\/utils\/start2.html","trial_type":"html","trial_index":71,"time_elapsed":1747281,"internal_node_id":"0.0-71.0"},{"trial_type":"number-animation","trial_index":72,"time_elapsed":1763107,"internal_node_id":"0.0-72.0"},{"phase":1,"sequence":0,"avg":182,"response":184,"trial_type":"training_avg","trial_index":73,"time_elapsed":1772157,"internal_node_id":"0.0-73.0"},{"trial_type":"number-animation","trial_index":74,"time_elapsed":1800621,"internal_node_id":"0.0-74.0"},{"phase":1,"sequence":1,"avg":188,"response":188,"trial_type":"training_avg","trial_index":75,"time_elapsed":1812777,"internal_node_id":"0.0-75.0"},{"trial_type":"number-animation","trial_index":76,"time_elapsed":1835524,"internal_node_id":"0.0-76.0"},{"phase":1,"sequence":2,"avg":176,"response":186,"trial_type":"training_avg","trial_index":77,"time_elapsed":1846201,"internal_node_id":"0.0-77.0"},{"trial_type":"number-animation","trial_index":78,"time_elapsed":1875695,"internal_node_id":"0.0-78.0"},{"phase":1,"sequence":3,"avg":180,"response":180,"trial_type":"training_avg","trial_index":79,"time_elapsed":1884364,"internal_node_id":"0.0-79.0"},{"trial_type":"number-animation","trial_index":80,"time_elapsed":1922328,"internal_node_id":"0.0-80.0"},{"phase":1,"sequence":4,"avg":174,"response":174,"trial_type":"training_avg","trial_index":81,"time_elapsed":1931511,"internal_node_id":"0.0-81.0"},{"responses":[{"value":0,"offby":-1,"category":"$90 - $120","category_index":0},{"value":3,"offby":0,"category":"$121 - $145","category_index":1},{"value":8,"offby":5,"category":"$146 - $170","category_index":2},{"value":5,"offby":-1,"category":"$171 - $195","category_index":3},{"value":3,"offby":-1,"category":"$196 - $220","category_index":4},{"value":0,"offby":-2,"category":"$221 - $245","category_index":5},{"value":0,"offby":-1,"category":"$246 - $270","category_index":6}],"phase":1,"number":0,"trial_type":"bar-choose","trial_index":82,"time_elapsed":1960755,"internal_node_id":"0.0-82.0"},{"rt":18195,"url":"\/tickets\/utils\/testing2.html","trial_type":"html","trial_index":83,"time_elapsed":1980204,"internal_node_id":"0.0-83.0"},{"phase":1,"order":[35,16,2,33,13,26,44,43,48,31,9,27,37,18,24,23,36,47,20,4,32,28,39,41,34,22,46,21,45,14,25,10,38,49,19,8,7,12,6,42,40,15,5,0,1,30,29,11,17,3],"trial_type":"store_order","trial_index":84,"time_elapsed":1981206,"internal_node_id":"0.0-84.0"},{"result":129,"points":2,"place":1,"phase":1,"sequence":0,"prices":[155,129,164,189,210,108,187,241,174,275],"times":[4517,1677],"next_num":2,"trial_type":"ticket-choose","trial_index":85,"time_elapsed":1990215,"internal_node_id":"0.0-85.0"},{"result":127,"points":3,"place":0,"phase":1,"sequence":1,"prices":[171,192,136,265,180,194,174,152,239,127],"times":[748,340,420,448,380,430,446,438,469,1686],"next_num":10,"trial_type":"ticket-choose","trial_index":86,"time_elapsed":2000047,"internal_node_id":"0.0-86.0"},{"result":238,"points":0,"place":8,"phase":1,"sequence":2,"prices":[168,191,146,252,183,193,172,153,126,238],"times":[511,302,435,472,958,517,686,660,440,573],"next_num":11,"trial_type":"ticket-choose","trial_index":87,"time_elapsed":2009768,"internal_node_id":"0.0-87.0"},{"result":160,"points":1,"place":4,"phase":1,"sequence":3,"prices":[137,187,152,156,166,231,155,194,202,160],"times":[1337,454,364,397,445,381,533,461,1062,1323],"next_num":10,"trial_type":"ticket-choose","trial_index":88,"time_elapsed":2020538,"internal_node_id":"0.0-88.0"},{"result":131,"points":3,"place":0,"phase":1,"sequence":4,"prices":[170,190,176,251,183,192,154,157,236,131],"times":[601,453,412,446,1124,493,765,573,540,1215],"next_num":10,"trial_type":"ticket-choose","trial_index":89,"time_elapsed":2031162,"internal_node_id":"0.0-89.0"},{"result":124,"points":3,"place":0,"phase":1,"sequence":5,"prices":[124,220,136,165,185,234,143,225,228,179],"times":[1771],"next_num":1,"trial_type":"ticket-choose","trial_index":90,"time_elapsed":2034995,"internal_node_id":"0.0-90.0"},{"result":101,"points":3,"place":0,"phase":1,"sequence":6,"prices":[181,138,118,170,190,101,146,169,175,233],"times":[567,229,532,547,277,1262],"next_num":6,"trial_type":"ticket-choose","trial_index":91,"time_elapsed":2041572,"internal_node_id":"0.0-91.0"},{"result":159,"points":2,"place":1,"phase":1,"sequence":7,"prices":[221,193,135,188,217,179,196,190,175,159],"times":[942,641,331,582,758,491,500,559,926,1453],"next_num":10,"trial_type":"ticket-choose","trial_index":92,"time_elapsed":2052725,"internal_node_id":"0.0-92.0"},{"result":178,"points":1,"place":4,"phase":1,"sequence":8,"prices":[182,249,159,114,184,205,175,189,172,178],"times":[770,345,420,468,478,839,638,716,614,934],"next_num":10,"trial_type":"ticket-choose","trial_index":93,"time_elapsed":2063398,"internal_node_id":"0.0-93.0"},{"result":117,"points":3,"place":0,"phase":1,"sequence":9,"prices":[117,161,120,147,153,259,144,191,195,149],"times":[1640],"next_num":1,"trial_type":"ticket-choose","trial_index":94,"time_elapsed":2067183,"internal_node_id":"0.0-94.0"},{"result":133,"points":3,"place":0,"phase":1,"sequence":10,"prices":[169,191,154,268,183,197,176,155,236,133],"times":[799,476,531,511,487,461,502,653,644,1081],"next_num":10,"trial_type":"ticket-choose","trial_index":95,"time_elapsed":2077159,"internal_node_id":"0.0-95.0"},{"result":192,"points":1,"place":4,"phase":1,"sequence":11,"prices":[157,205,161,175,197,254,165,210,214,192],"times":[729,492,558,494,557,934,539,589,509,544],"next_num":11,"trial_type":"ticket-choose","trial_index":96,"time_elapsed":2087272,"internal_node_id":"0.0-96.0"},{"result":145,"points":2,"place":1,"phase":1,"sequence":12,"prices":[216,206,158,145,224,185,124,149,175,162],"times":[1038,390,372,1566],"next_num":4,"trial_type":"ticket-choose","trial_index":97,"time_elapsed":2093331,"internal_node_id":"0.0-97.0"},{"result":127,"points":3,"place":0,"phase":1,"sequence":13,"prices":[173,194,136,239,182,200,174,150,236,127],"times":[529,267,438,509,574,525,693,509,517,1396],"next_num":10,"trial_type":"ticket-choose","trial_index":98,"time_elapsed":2125283,"internal_node_id":"0.0-98.0"},{"result":188,"points":1,"place":4,"phase":1,"sequence":14,"prices":[142,207,171,182,190,269,180,218,256,188],"times":[768,381,599,460,613,493,502,478,774,1214],"next_num":10,"trial_type":"ticket-choose","trial_index":99,"time_elapsed":2135629,"internal_node_id":"0.0-99.0"},{"result":136,"points":2,"place":1,"phase":1,"sequence":15,"prices":[173,191,174,270,180,193,136,153,239,129],"times":[682,565,478,464,661,580,2027],"next_num":7,"trial_type":"ticket-choose","trial_index":100,"time_elapsed":2144638,"internal_node_id":"0.0-100.0"},{"result":128,"points":3,"place":0,"phase":1,"sequence":16,"prices":[196,221,149,164,216,167,175,128,176,181],"times":[748,541,2132,565,589,646,565,1235],"next_num":8,"trial_type":"ticket-choose","trial_index":101,"time_elapsed":2155696,"internal_node_id":"0.0-101.0"},{"result":129,"points":2,"place":1,"phase":1,"sequence":17,"prices":[219,183,227,124,176,161,140,129,171,201],"times":[659,364,480,470,357,413,381,1415],"next_num":8,"trial_type":"ticket-choose","trial_index":102,"time_elapsed":2163696,"internal_node_id":"0.0-102.0"},{"result":136,"points":2,"place":1,"phase":1,"sequence":18,"prices":[169,192,174,246,180,195,136,152,238,126],"times":[647,476,412,430,414,1445,1626],"next_num":7,"trial_type":"ticket-choose","trial_index":103,"time_elapsed":2172506,"internal_node_id":"0.0-103.0"},{"result":126,"points":3,"place":0,"phase":1,"sequence":19,"prices":[172,191,176,272,179,194,146,152,126,235],"times":[585,295,439,453,492,436,735,444,1331],"next_num":9,"trial_type":"ticket-choose","trial_index":104,"time_elapsed":2181474,"internal_node_id":"0.0-104.0"},{"result":196,"points":1,"place":4,"phase":1,"sequence":20,"prices":[143,206,153,194,201,267,168,208,210,196],"times":[667,511,445,539,566,577,458,507,1076,1224],"next_num":10,"trial_type":"ticket-choose","trial_index":105,"time_elapsed":2191996,"internal_node_id":"0.0-105.0"},{"result":189,"points":1,"place":4,"phase":1,"sequence":21,"prices":[157,213,159,187,194,242,161,222,225,189],"times":[690,462,406,535,470,479,746,479,523,1346],"next_num":10,"trial_type":"ticket-choose","trial_index":106,"time_elapsed":2202124,"internal_node_id":"0.0-106.0"},{"result":153,"points":2,"place":1,"phase":1,"sequence":22,"prices":[197,153,181,215,150,155,164,247,177,162],"times":[557,1763],"next_num":2,"trial_type":"ticket-choose","trial_index":107,"time_elapsed":2206790,"internal_node_id":"0.0-107.0"},{"result":131,"points":2,"place":1,"phase":1,"sequence":23,"prices":[221,234,131,136,132,149,154,90,176,173],"times":[717,493,1594],"next_num":3,"trial_type":"ticket-choose","trial_index":108,"time_elapsed":2211886,"internal_node_id":"0.0-108.0"},{"result":116,"points":3,"place":0,"phase":1,"sequence":24,"prices":[181,130,116,142,157,193,165,218,173,207],"times":[618,444,1500],"next_num":3,"trial_type":"ticket-choose","trial_index":109,"time_elapsed":2216822,"internal_node_id":"0.0-109.0"},{"result":136,"points":2,"place":1,"phase":1,"sequence":25,"prices":[172,194,174,243,182,193,136,150,237,126],"times":[1009,498,532,1348,612,590,1665],"next_num":7,"trial_type":"ticket-choose","trial_index":110,"time_elapsed":2226336,"internal_node_id":"0.0-110.0"},{"result":136,"points":3,"place":0,"phase":1,"sequence":26,"prices":[240,188,273,207,250,136,217,170,171,236],"times":[5431,460,5598,397,742,1879],"next_num":6,"trial_type":"ticket-choose","trial_index":111,"time_elapsed":2243980,"internal_node_id":"0.0-111.0"},{"result":136,"points":2,"place":1,"phase":1,"sequence":27,"prices":[170,192,174,242,181,196,136,153,236,128],"times":[578,469,615,716,865,432,1773],"next_num":7,"trial_type":"ticket-choose","trial_index":112,"time_elapsed":2255419,"internal_node_id":"0.0-112.0"},{"result":159,"points":1,"place":2,"phase":1,"sequence":28,"prices":[244,203,196,189,154,206,197,149,171,159],"times":[893,283,454,470,487,549,574,493,749,1369],"next_num":10,"trial_type":"ticket-choose","trial_index":113,"time_elapsed":2265812,"internal_node_id":"0.0-113.0"},{"result":154,"points":2,"place":1,"phase":1,"sequence":29,"prices":[169,192,176,244,178,194,154,159,237,125],"times":[694,527,453,444,453,475,1515],"next_num":7,"trial_type":"ticket-choose","trial_index":114,"time_elapsed":2273694,"internal_node_id":"0.0-114.0"},{"result":132,"points":3,"place":0,"phase":1,"sequence":30,"prices":[132,222,144,153,190,248,151,224,228,179],"times":[1735],"next_num":1,"trial_type":"ticket-choose","trial_index":115,"time_elapsed":2277735,"internal_node_id":"0.0-115.0"},{"result":126,"points":3,"place":0,"phase":1,"sequence":31,"prices":[169,193,154,255,178,194,176,158,239,126],"times":[592,522,429,495,530,648,492,750,1084,1652],"next_num":10,"trial_type":"ticket-choose","trial_index":116,"time_elapsed":2289094,"internal_node_id":"0.0-116.0"},{"result":146,"points":3,"place":0,"phase":1,"sequence":32,"prices":[156,218,212,216,191,210,275,146,174,152],"times":[1031,474,463,461,517,468,427,1718],"next_num":8,"trial_type":"ticket-choose","trial_index":117,"time_elapsed":2298247,"internal_node_id":"0.0-117.0"},{"result":152,"points":1,"place":3,"phase":1,"sequence":33,"prices":[186,146,191,179,152,116,140,201,172,187],"times":[557,428,524,445,2183],"next_num":5,"trial_type":"ticket-choose","trial_index":118,"time_elapsed":2305329,"internal_node_id":"0.0-118.0"},{"result":152,"points":1,"place":2,"phase":1,"sequence":34,"prices":[172,190,136,270,179,192,174,152,237,129],"times":[501,470,437,541,396,558,637,1938],"next_num":8,"trial_type":"ticket-choose","trial_index":119,"time_elapsed":2314474,"internal_node_id":"0.0-119.0"},{"result":133,"points":3,"place":0,"phase":1,"sequence":35,"prices":[168,192,154,237,182,196,176,156,235,133],"times":[789,630,669,572,524,580,503,694,1246,1664],"next_num":10,"trial_type":"ticket-choose","trial_index":120,"time_elapsed":2326339,"internal_node_id":"0.0-120.0"},{"result":146,"points":2,"place":1,"phase":1,"sequence":36,"prices":[171,191,172,268,179,194,146,150,127,239],"times":[711,627,588,533,580,613,1887],"next_num":7,"trial_type":"ticket-choose","trial_index":121,"time_elapsed":2335093,"internal_node_id":"0.0-121.0"},{"result":132,"points":3,"place":0,"phase":1,"sequence":37,"prices":[168,192,176,242,183,197,154,156,237,132],"times":[974,549,525,519,494,483,482,1033,945,1392],"next_num":10,"trial_type":"ticket-choose","trial_index":122,"time_elapsed":2346407,"internal_node_id":"0.0-122.0"},{"result":125,"points":3,"place":0,"phase":1,"sequence":38,"prices":[168,191,172,240,183,193,146,151,125,238],"times":[835,623,358,541,597,492,814,2327,1766],"next_num":9,"trial_type":"ticket-choose","trial_index":123,"time_elapsed":2358492,"internal_node_id":"0.0-123.0"},{"result":105,"points":3,"place":0,"phase":1,"sequence":39,"prices":[263,165,224,214,105,230,215,185,177,193],"times":[6528,1131,508,436,1622],"next_num":5,"trial_type":"ticket-choose","trial_index":124,"time_elapsed":2371663,"internal_node_id":"0.0-124.0"},{"result":119,"points":3,"place":0,"phase":1,"sequence":40,"prices":[198,119,169,141,195,233,136,208,177,217],"times":[2617,1547],"next_num":2,"trial_type":"ticket-choose","trial_index":125,"time_elapsed":2378166,"internal_node_id":"0.0-125.0"},{"result":126,"points":3,"place":0,"phase":1,"sequence":41,"prices":[170,193,176,245,178,194,154,159,236,126],"times":[520,502,492,478,501,662,1341,990,776,1434],"next_num":10,"trial_type":"ticket-choose","trial_index":126,"time_elapsed":2389843,"internal_node_id":"0.0-126.0"},{"result":128,"points":3,"place":0,"phase":1,"sequence":42,"prices":[171,195,172,242,179,196,146,150,128,235],"times":[568,445,453,486,491,623,909,533,1488],"next_num":9,"trial_type":"ticket-choose","trial_index":127,"time_elapsed":2399596,"internal_node_id":"0.0-127.0"},{"result":146,"points":2,"place":1,"phase":1,"sequence":43,"prices":[173,191,146,242,178,194,172,152,126,235],"times":[697,855,1675],"next_num":3,"trial_type":"ticket-choose","trial_index":128,"time_elapsed":2405444,"internal_node_id":"0.0-128.0"},{"result":129,"points":3,"place":0,"phase":1,"sequence":44,"prices":[169,193,146,237,180,196,172,150,129,236],"times":[705,437,599,451,391,782,518,925,1537],"next_num":9,"trial_type":"ticket-choose","trial_index":129,"time_elapsed":2415773,"internal_node_id":"0.0-129.0"},{"result":135,"points":3,"place":0,"phase":1,"sequence":45,"prices":[135,202,150,169,183,225,160,211,220,172],"times":[3722],"next_num":1,"trial_type":"ticket-choose","trial_index":130,"time_elapsed":2421806,"internal_node_id":"0.0-130.0"},{"result":121,"points":3,"place":0,"phase":1,"sequence":46,"prices":[121,191,128,141,166,217,129,196,202,157],"times":[1617],"next_num":1,"trial_type":"ticket-choose","trial_index":131,"time_elapsed":2426695,"internal_node_id":"0.0-131.0"},{"result":127,"points":3,"place":0,"phase":1,"sequence":47,"prices":[169,194,154,271,178,201,176,158,236,127],"times":[1556,549,478,562,499,564,557,1691,542,1498],"next_num":10,"trial_type":"ticket-choose","trial_index":132,"time_elapsed":2439400,"internal_node_id":"0.0-132.0"},{"result":128,"points":3,"place":0,"phase":1,"sequence":48,"prices":[171,192,136,243,182,195,174,154,236,128],"times":[933,348,388,510,510,582,540,574,613,1448],"next_num":10,"trial_type":"ticket-choose","trial_index":133,"time_elapsed":2450747,"internal_node_id":"0.0-133.0"},{"result":126,"points":3,"place":0,"phase":1,"sequence":49,"prices":[170,193,146,268,178,195,172,149,126,241],"times":[2710,454,486,716,461,575,838,684,1379],"next_num":9,"trial_type":"ticket-choose","trial_index":134,"time_elapsed":2463118,"internal_node_id":"0.0-134.0"},{"responses":[{"value":0,"offby":-1,"category":"$90 - $120","category_index":0},{"value":4,"offby":1,"category":"$121 - $145","category_index":1},{"value":2,"offby":-1,"category":"$146 - $170","category_index":2},{"value":4,"offby":-2,"category":"$171 - $195","category_index":3},{"value":6,"offby":2,"category":"$196 - $220","category_index":4},{"value":4,"offby":2,"category":"$221 - $245","category_index":5},{"value":0,"offby":-1,"category":"$246 - $270","category_index":6}],"phase":1,"number":1,"trial_type":"bar-choose","trial_index":135,"time_elapsed":2501395,"internal_node_id":"0.0-135.0"},{"special_comment":"nonot really","trial_type":"special_sequence","trial_index":136,"time_elapsed":2515012,"internal_node_id":"0.0-136.0"},{"during":"Nothing","bonus":308,"trial_type":"final","trial_index":137,"time_elapsed":2537465,"internal_node_id":"0.0-137.0"}],"bonus":308}