{"start_time":"2017-02-24 16:52:28","end_time":"2017-02-24 17:09:21","points_phase0":112,"points_phase1":108,"phase_order":0,"age":32,"gender":"m","tries":1,"during":"Nothing","worker_id":"A1OQ3KL56KMQSU","assignment_id":"3DIP6YHAPDLAHXU55BPLCTOEU9X8ER","data":[{"rt":7507,"url":"\/tickets\/utils\/consent.html","trial_type":"html","trial_index":0,"time_elapsed":7641,"internal_node_id":"0.0-0.0"},{"age":32,"gender":"m","trial_type":"age","trial_index":1,"time_elapsed":13713,"internal_node_id":"0.0-1.0"},{"worker_id":"A1OQ3KL56KMQSU","trial_type":"workerid","trial_index":2,"time_elapsed":20106,"internal_node_id":"0.0-2.0"},{"tries":1,"trial_type":"instructions_check","trial_index":3,"time_elapsed":45223,"internal_node_id":"0.0-3.0"},{"rt":5019,"url":"\/tickets\/utils\/start.html","trial_type":"html","trial_index":4,"time_elapsed":51360,"internal_node_id":"0.0-4.0"},{"trial_type":"number-animation","trial_index":5,"time_elapsed":67440,"internal_node_id":"0.0-5.0"},{"phase":0,"sequence":0,"avg":180,"response":181,"trial_type":"training_avg","trial_index":6,"time_elapsed":79853,"internal_node_id":"0.0-6.0"},{"trial_type":"number-animation","trial_index":7,"time_elapsed":93259,"internal_node_id":"0.0-7.0"},{"phase":0,"sequence":1,"avg":178,"response":178,"trial_type":"training_avg","trial_index":8,"time_elapsed":99221,"internal_node_id":"0.0-8.0"},{"trial_type":"number-animation","trial_index":9,"time_elapsed":107905,"internal_node_id":"0.0-9.0"},{"phase":0,"sequence":2,"avg":176,"response":174,"trial_type":"training_avg","trial_index":10,"time_elapsed":111895,"internal_node_id":"0.0-10.0"},{"trial_type":"number-animation","trial_index":11,"time_elapsed":125823,"internal_node_id":"0.0-11.0"},{"phase":0,"sequence":3,"avg":178,"response":181,"trial_type":"training_avg","trial_index":12,"time_elapsed":131401,"internal_node_id":"0.0-12.0"},{"trial_type":"number-animation","trial_index":13,"time_elapsed":138577,"internal_node_id":"0.0-13.0"},{"phase":0,"sequence":4,"avg":179,"response":179,"trial_type":"training_avg","trial_index":14,"time_elapsed":143093,"internal_node_id":"0.0-14.0"},{"responses":[{"value":0,"offby":0,"category":"$140 - $250","category_index":0},{"value":0,"offby":0,"category":"$151 - $160","category_index":1},{"value":6,"offby":2,"category":"$161 - $170","category_index":2},{"value":11,"offby":5,"category":"$171 - $180","category_index":3},{"value":3,"offby":-4,"category":"$181 - $190","category_index":4},{"value":0,"offby":-3,"category":"$191 - $200","category_index":5},{"value":0,"offby":0,"category":"$201 - $210","category_index":6}],"phase":0,"number":0,"trial_type":"bar-choose","trial_index":15,"time_elapsed":180358,"internal_node_id":"0.0-15.0"},{"rt":14995,"url":"\/tickets\/\/utils\/testing.html","trial_type":"html","trial_index":16,"time_elapsed":196468,"internal_node_id":"0.0-16.0"},{"phase":0,"order":[32,38,44,7,47,10,26,36,34,12,29,46,6,41,30,33,28,40,14,21,22,39,17,45,48,31,9,3,49,24,35,20,11,1,25,37,2,13,0,19,5,16,8,18,4,27,15,42,23,43],"trial_type":"store_order","trial_index":17,"time_elapsed":197478,"internal_node_id":"0.0-17.0"},{"result":165,"points":2,"place":1,"phase":0,"sequence":-1,"prices":[184,180,224,165,181,199,185,193,218,126],"times":[1432,891,788,1277],"next_num":4,"trial_type":"ticket-choose","trial_index":18,"time_elapsed":204697,"internal_node_id":"0.0-18.0"},{"rt":6553,"url":"\/tickets\/utils\/testing_after.html","trial_type":"html","trial_index":19,"time_elapsed":212406,"internal_node_id":"0.0-19.0"},{"result":173,"points":1,"place":2,"phase":0,"sequence":0,"prices":[171,180,172,174,179,188,173,183,186,175],"times":[9902,591,1702,962,767,619,1688],"next_num":7,"trial_type":"ticket-choose","trial_index":20,"time_elapsed":232220,"internal_node_id":"0.0-20.0"},{"result":170,"points":3,"place":0,"phase":0,"sequence":1,"prices":[181,179,199,188,170,172,178,187,191,177],"times":[949,721,595,573,1012],"next_num":5,"trial_type":"ticket-choose","trial_index":21,"time_elapsed":239036,"internal_node_id":"0.0-21.0"},{"result":164,"points":1,"place":3,"phase":0,"sequence":2,"prices":[175,150,164,155,171,199,158,180,184,196],"times":[975,608,1039],"next_num":3,"trial_type":"ticket-choose","trial_index":22,"time_elapsed":244174,"internal_node_id":"0.0-22.0"},{"result":169,"points":2,"place":1,"phase":0,"sequence":3,"prices":[174,179,177,194,178,183,169,173,165,184],"times":[549,547,640,690,620,663,1073],"next_num":7,"trial_type":"ticket-choose","trial_index":23,"time_elapsed":252076,"internal_node_id":"0.0-23.0"},{"result":181,"points":0,"place":5,"phase":0,"sequence":4,"prices":[180,175,173,177,191,190,184,196,174,181],"times":[816,505,563,726,689,592,643,726,665,922],"next_num":10,"trial_type":"ticket-choose","trial_index":24,"time_elapsed":262928,"internal_node_id":"0.0-24.0"},{"result":174,"points":1,"place":2,"phase":0,"sequence":5,"prices":[175,180,170,195,179,184,178,174,166,185],"times":[2016,561,619,705,638,668,761,890],"next_num":8,"trial_type":"ticket-choose","trial_index":25,"time_elapsed":273056,"internal_node_id":"0.0-25.0"},{"result":165,"points":3,"place":0,"phase":0,"sequence":6,"prices":[165,187,173,177,186,196,176,191,192,181],"times":[1005],"next_num":1,"trial_type":"ticket-choose","trial_index":26,"time_elapsed":276024,"internal_node_id":"0.0-26.0"},{"result":169,"points":1,"place":2,"phase":0,"sequence":7,"prices":[189,185,169,168,167,171,180,173,174,188],"times":[1268,591,856],"next_num":3,"trial_type":"ticket-choose","trial_index":27,"time_elapsed":281064,"internal_node_id":"0.0-27.0"},{"result":165,"points":2,"place":1,"phase":0,"sequence":8,"prices":[181,180,191,186,165,197,159,167,194,185],"times":[683,615,593,659,1074],"next_num":5,"trial_type":"ticket-choose","trial_index":28,"time_elapsed":287383,"internal_node_id":"0.0-28.0"},{"result":165,"points":3,"place":0,"phase":0,"sequence":9,"prices":[176,180,178,194,179,183,170,173,165,184],"times":[1023,606,565,563,601,788,538,574,1096],"next_num":9,"trial_type":"ticket-choose","trial_index":29,"time_elapsed":297204,"internal_node_id":"0.0-29.0"},{"result":166,"points":3,"place":0,"phase":0,"sequence":10,"prices":[166,190,170,173,178,203,172,192,198,174],"times":[2949],"next_num":1,"trial_type":"ticket-choose","trial_index":30,"time_elapsed":302330,"internal_node_id":"0.0-30.0"},{"result":166,"points":3,"place":0,"phase":0,"sequence":11,"prices":[179,186,197,201,166,187,188,193,190,177],"times":[767,537,615,717,869],"next_num":5,"trial_type":"ticket-choose","trial_index":31,"time_elapsed":308550,"internal_node_id":"0.0-31.0"},{"result":169,"points":2,"place":1,"phase":0,"sequence":12,"prices":[174,179,177,194,178,183,169,173,165,184],"times":[461,559,743,586,609,671,868],"next_num":7,"trial_type":"ticket-choose","trial_index":32,"time_elapsed":316114,"internal_node_id":"0.0-32.0"},{"result":165,"points":3,"place":0,"phase":0,"sequence":13,"prices":[180,165,177,193,186,196,187,169,171,182],"times":[600,891],"next_num":2,"trial_type":"ticket-choose","trial_index":33,"time_elapsed":319620,"internal_node_id":"0.0-33.0"},{"result":160,"points":3,"place":0,"phase":0,"sequence":14,"prices":[160,185,170,174,182,196,173,186,194,177],"times":[1104],"next_num":1,"trial_type":"ticket-choose","trial_index":34,"time_elapsed":322561,"internal_node_id":"0.0-34.0"},{"result":179,"points":1,"place":4,"phase":0,"sequence":15,"prices":[170,183,172,175,180,189,174,187,188,179],"times":[1005,507,586,570,574,783,595,650,995,675],"next_num":10,"trial_type":"ticket-choose","trial_index":35,"time_elapsed":333166,"internal_node_id":"0.0-35.0"},{"result":159,"points":3,"place":0,"phase":0,"sequence":16,"prices":[159,178,170,174,176,194,173,182,185,175],"times":[810],"next_num":1,"trial_type":"ticket-choose","trial_index":36,"time_elapsed":336048,"internal_node_id":"0.0-36.0"},{"result":167,"points":3,"place":0,"phase":0,"sequence":17,"prices":[179,174,199,178,196,167,170,184,177,190],"times":[767,535,638,577,642,969],"next_num":6,"trial_type":"ticket-choose","trial_index":37,"time_elapsed":343102,"internal_node_id":"0.0-37.0"},{"result":166,"points":3,"place":0,"phase":0,"sequence":18,"prices":[175,180,178,195,179,184,170,174,166,185],"times":[1461,1927,662,840,755,685,683,613,1354],"next_num":9,"trial_type":"ticket-choose","trial_index":38,"time_elapsed":355654,"internal_node_id":"0.0-38.0"},{"result":168,"points":2,"place":1,"phase":0,"sequence":19,"prices":[174,178,176,192,177,181,168,171,163,182],"times":[637,533,547,746,672,751,1036],"next_num":7,"trial_type":"ticket-choose","trial_index":39,"time_elapsed":363682,"internal_node_id":"0.0-39.0"},{"result":168,"points":2,"place":1,"phase":0,"sequence":20,"prices":[173,178,176,193,177,182,168,172,164,183],"times":[1814,534,597,657,606,616,1201],"next_num":7,"trial_type":"ticket-choose","trial_index":40,"time_elapsed":372848,"internal_node_id":"0.0-40.0"},{"result":156,"points":3,"place":0,"phase":0,"sequence":21,"prices":[195,177,197,179,171,173,175,156,163,204],"times":[597,819,589,532,1077,607,857,962],"next_num":8,"trial_type":"ticket-choose","trial_index":41,"time_elapsed":382200,"internal_node_id":"0.0-41.0"},{"result":168,"points":2,"place":1,"phase":0,"sequence":22,"prices":[174,178,168,192,177,181,176,171,163,182],"times":[623,523,884],"next_num":3,"trial_type":"ticket-choose","trial_index":42,"time_elapsed":386408,"internal_node_id":"0.0-42.0"},{"result":162,"points":3,"place":0,"phase":0,"sequence":23,"prices":[179,174,172,162,202,184,165,197,185,169],"times":[588,561,569,898],"next_num":4,"trial_type":"ticket-choose","trial_index":43,"time_elapsed":391418,"internal_node_id":"0.0-43.0"},{"result":187,"points":0,"place":7,"phase":0,"sequence":24,"prices":[193,173,175,182,179,198,181,171,176,187],"times":[613,581,1140,708,707,1038,613,1815,752,815],"next_num":10,"trial_type":"ticket-choose","trial_index":44,"time_elapsed":403824,"internal_node_id":"0.0-44.0"},{"result":157,"points":3,"place":0,"phase":0,"sequence":25,"prices":[157,184,163,174,181,190,168,187,189,177],"times":[1614],"next_num":1,"trial_type":"ticket-choose","trial_index":45,"time_elapsed":407251,"internal_node_id":"0.0-45.0"},{"result":173,"points":1,"place":2,"phase":0,"sequence":26,"prices":[176,180,170,194,179,183,178,173,165,184],"times":[1431,590,937,605,853,696,747,1108],"next_num":8,"trial_type":"ticket-choose","trial_index":46,"time_elapsed":417491,"internal_node_id":"0.0-46.0"},{"result":169,"points":2,"place":1,"phase":0,"sequence":27,"prices":[174,179,169,194,178,183,177,173,165,184],"times":[1822,646,905],"next_num":3,"trial_type":"ticket-choose","trial_index":47,"time_elapsed":423042,"internal_node_id":"0.0-47.0"},{"result":165,"points":3,"place":0,"phase":0,"sequence":28,"prices":[175,189,193,170,179,165,180,186,177,184],"times":[796,616,665,690,701,912],"next_num":6,"trial_type":"ticket-choose","trial_index":48,"time_elapsed":430286,"internal_node_id":"0.0-48.0"},{"result":161,"points":3,"place":0,"phase":0,"sequence":29,"prices":[161,180,170,174,178,198,173,182,188,176],"times":[1311],"next_num":1,"trial_type":"ticket-choose","trial_index":49,"time_elapsed":433443,"internal_node_id":"0.0-49.0"},{"result":154,"points":3,"place":0,"phase":0,"sequence":30,"prices":[188,179,154,183,173,170,177,160,169,175],"times":[639,864,894],"next_num":3,"trial_type":"ticket-choose","trial_index":50,"time_elapsed":438051,"internal_node_id":"0.0-50.0"},{"result":168,"points":2,"place":1,"phase":0,"sequence":31,"prices":[174,178,176,192,177,181,168,171,163,182],"times":[599,555,608,1119,1423,683,1609],"next_num":7,"trial_type":"ticket-choose","trial_index":51,"time_elapsed":447989,"internal_node_id":"0.0-51.0"},{"result":166,"points":3,"place":0,"phase":0,"sequence":32,"prices":[175,180,170,195,179,184,178,174,166,185],"times":[1107,561,500,539,630,628,611,562,1119],"next_num":9,"trial_type":"ticket-choose","trial_index":52,"time_elapsed":457671,"internal_node_id":"0.0-52.0"},{"result":169,"points":2,"place":1,"phase":0,"sequence":33,"prices":[175,179,169,193,178,182,177,172,164,183],"times":[525,504,983],"next_num":3,"trial_type":"ticket-choose","trial_index":53,"time_elapsed":461834,"internal_node_id":"0.0-53.0"},{"result":163,"points":3,"place":0,"phase":0,"sequence":34,"prices":[163,185,165,174,181,198,173,186,187,180],"times":[1091],"next_num":1,"trial_type":"ticket-choose","trial_index":54,"time_elapsed":464731,"internal_node_id":"0.0-54.0"},{"result":168,"points":2,"place":1,"phase":0,"sequence":35,"prices":[181,175,182,168,183,173,153,170,193,179],"times":[808,675,531,789],"next_num":4,"trial_type":"ticket-choose","trial_index":55,"time_elapsed":469949,"internal_node_id":"0.0-55.0"},{"result":169,"points":2,"place":1,"phase":0,"sequence":36,"prices":[174,179,169,194,178,183,177,173,165,184],"times":[485,525,1791],"next_num":3,"trial_type":"ticket-choose","trial_index":56,"time_elapsed":474955,"internal_node_id":"0.0-56.0"},{"result":170,"points":2,"place":1,"phase":0,"sequence":37,"prices":[176,180,178,194,179,183,170,173,165,184],"times":[468,682,583,582,816,555,2236],"next_num":7,"trial_type":"ticket-choose","trial_index":57,"time_elapsed":483865,"internal_node_id":"0.0-57.0"},{"result":169,"points":2,"place":1,"phase":0,"sequence":38,"prices":[175,179,169,193,178,182,177,172,164,183],"times":[591,653,819],"next_num":3,"trial_type":"ticket-choose","trial_index":58,"time_elapsed":488079,"internal_node_id":"0.0-58.0"},{"result":168,"points":2,"place":1,"phase":0,"sequence":39,"prices":[173,178,168,193,177,182,176,172,164,183],"times":[966,637,1472],"next_num":3,"trial_type":"ticket-choose","trial_index":59,"time_elapsed":493395,"internal_node_id":"0.0-59.0"},{"result":169,"points":2,"place":1,"phase":0,"sequence":40,"prices":[175,179,177,193,178,182,169,172,164,183],"times":[528,481,459,584,602,588,1022],"next_num":7,"trial_type":"ticket-choose","trial_index":60,"time_elapsed":500672,"internal_node_id":"0.0-60.0"},{"result":168,"points":2,"place":1,"phase":0,"sequence":41,"prices":[174,178,168,192,177,181,176,171,163,182],"times":[531,458,1090],"next_num":3,"trial_type":"ticket-choose","trial_index":61,"time_elapsed":504952,"internal_node_id":"0.0-61.0"},{"result":165,"points":3,"place":0,"phase":0,"sequence":42,"prices":[176,180,170,194,179,183,178,173,165,184],"times":[480,656,483,585,533,539,472,485,992],"next_num":9,"trial_type":"ticket-choose","trial_index":62,"time_elapsed":513543,"internal_node_id":"0.0-62.0"},{"result":168,"points":2,"place":1,"phase":0,"sequence":43,"prices":[173,178,168,193,177,182,176,172,164,183],"times":[474,467,1037],"next_num":3,"trial_type":"ticket-choose","trial_index":63,"time_elapsed":517634,"internal_node_id":"0.0-63.0"},{"result":169,"points":2,"place":1,"phase":0,"sequence":44,"prices":[175,179,177,193,178,182,169,172,164,183],"times":[528,529,524,588,485,542,1293],"next_num":7,"trial_type":"ticket-choose","trial_index":64,"time_elapsed":525206,"internal_node_id":"0.0-64.0"},{"result":168,"points":3,"place":0,"phase":0,"sequence":45,"prices":[168,188,171,181,184,196,180,194,195,183],"times":[1405],"next_num":1,"trial_type":"ticket-choose","trial_index":65,"time_elapsed":528508,"internal_node_id":"0.0-65.0"},{"result":166,"points":3,"place":0,"phase":0,"sequence":46,"prices":[175,180,178,195,179,184,170,174,166,185],"times":[490,515,504,501,488,589,601,871,957],"next_num":9,"trial_type":"ticket-choose","trial_index":66,"time_elapsed":537536,"internal_node_id":"0.0-66.0"},{"result":160,"points":3,"place":0,"phase":0,"sequence":47,"prices":[175,193,175,160,180,170,175,205,177,167],"times":[759,542,567,1045],"next_num":4,"trial_type":"ticket-choose","trial_index":67,"time_elapsed":542920,"internal_node_id":"0.0-67.0"},{"result":168,"points":2,"place":1,"phase":0,"sequence":48,"prices":[173,178,176,193,177,182,168,172,164,183],"times":[291,495,533,608,513,521,1199],"next_num":7,"trial_type":"ticket-choose","trial_index":68,"time_elapsed":550166,"internal_node_id":"0.0-68.0"},{"result":157,"points":2,"place":1,"phase":0,"sequence":49,"prices":[188,191,179,157,181,164,166,156,175,182],"times":[560,506,538,1121],"next_num":4,"trial_type":"ticket-choose","trial_index":69,"time_elapsed":555428,"internal_node_id":"0.0-69.0"},{"responses":[{"value":0,"offby":0,"category":"$140 - $250","category_index":0},{"value":2,"offby":2,"category":"$151 - $160","category_index":1},{"value":5,"offby":1,"category":"$161 - $170","category_index":2},{"value":8,"offby":2,"category":"$171 - $180","category_index":3},{"value":3,"offby":-4,"category":"$181 - $190","category_index":4},{"value":2,"offby":-1,"category":"$191 - $200","category_index":5},{"value":0,"offby":0,"category":"$201 - $210","category_index":6}],"phase":0,"number":1,"trial_type":"bar-choose","trial_index":70,"time_elapsed":589333,"internal_node_id":"0.0-70.0"},{"rt":2841,"url":"\/tickets\/utils\/start2.html","trial_type":"html","trial_index":71,"time_elapsed":593285,"internal_node_id":"0.0-71.0"},{"trial_type":"number-animation","trial_index":72,"time_elapsed":600606,"internal_node_id":"0.0-72.0"},{"phase":1,"sequence":0,"avg":166,"response":143,"trial_type":"training_avg","trial_index":73,"time_elapsed":605220,"internal_node_id":"0.0-73.0"},{"trial_type":"number-animation","trial_index":74,"time_elapsed":615816,"internal_node_id":"0.0-74.0"},{"phase":1,"sequence":1,"avg":198,"response":178,"trial_type":"training_avg","trial_index":75,"time_elapsed":622444,"internal_node_id":"0.0-75.0"},{"trial_type":"number-animation","trial_index":76,"time_elapsed":631954,"internal_node_id":"0.0-76.0"},{"phase":1,"sequence":2,"avg":177,"response":181,"trial_type":"training_avg","trial_index":77,"time_elapsed":637620,"internal_node_id":"0.0-77.0"},{"trial_type":"number-animation","trial_index":78,"time_elapsed":647204,"internal_node_id":"0.0-78.0"},{"phase":1,"sequence":3,"avg":190,"response":198,"trial_type":"training_avg","trial_index":79,"time_elapsed":654142,"internal_node_id":"0.0-79.0"},{"trial_type":"number-animation","trial_index":80,"time_elapsed":662052,"internal_node_id":"0.0-80.0"},{"phase":1,"sequence":4,"avg":201,"response":152,"trial_type":"training_avg","trial_index":81,"time_elapsed":667467,"internal_node_id":"0.0-81.0"},{"responses":[{"value":0,"offby":-1,"category":"$30 - $75","category_index":0},{"value":0,"offby":-2,"category":"$76 - $120","category_index":1},{"value":2,"offby":-2,"category":"$121 - $165","category_index":2},{"value":6,"offby":0,"category":"$166 - $210","category_index":3},{"value":10,"offby":4,"category":"$211 - $255","category_index":4},{"value":2,"offby":1,"category":"$256 - $300","category_index":5},{"value":0,"offby":0,"category":"$301 - $345","category_index":6}],"phase":1,"number":0,"trial_type":"bar-choose","trial_index":82,"time_elapsed":683411,"internal_node_id":"0.0-82.0"},{"rt":4783,"url":"\/tickets\/utils\/testing2.html","trial_type":"html","trial_index":83,"time_elapsed":689304,"internal_node_id":"0.0-83.0"},{"phase":1,"order":[7,23,26,37,38,5,48,20,14,4,39,24,21,32,33,28,45,10,1,29,31,40,16,41,27,25,2,0,35,15,47,9,13,36,44,18,30,19,42,3,22,49,8,34,12,11,46,43,6,17],"trial_type":"store_order","trial_index":84,"time_elapsed":690311,"internal_node_id":"0.0-84.0"},{"result":151,"points":1,"place":3,"phase":1,"sequence":0,"prices":[151,175,166,251,170,195,126,146,105,201],"times":[5045],"next_num":1,"trial_type":"ticket-choose","trial_index":85,"time_elapsed":697422,"internal_node_id":"0.0-85.0"},{"result":145,"points":1,"place":3,"phase":1,"sequence":1,"prices":[145,170,160,245,165,190,120,141,100,195],"times":[1039],"next_num":1,"trial_type":"ticket-choose","trial_index":86,"time_elapsed":700315,"internal_node_id":"0.0-86.0"},{"result":105,"points":3,"place":0,"phase":1,"sequence":2,"prices":[105,216,146,165,210,260,161,235,241,185],"times":[922],"next_num":1,"trial_type":"ticket-choose","trial_index":87,"time_elapsed":703114,"internal_node_id":"0.0-87.0"},{"result":45,"points":3,"place":0,"phase":1,"sequence":3,"prices":[186,156,191,120,195,145,45,130,246,176],"times":[553,474,518,507,498,525,951],"next_num":7,"trial_type":"ticket-choose","trial_index":88,"time_elapsed":710228,"internal_node_id":"0.0-88.0"},{"result":165,"points":1,"place":2,"phase":1,"sequence":4,"prices":[185,175,276,221,130,141,171,216,235,165],"times":[527,487,498,481,552,517,513,544,509,612],"next_num":10,"trial_type":"ticket-choose","trial_index":89,"time_elapsed":719168,"internal_node_id":"0.0-89.0"},{"result":126,"points":2,"place":1,"phase":1,"sequence":5,"prices":[156,176,165,246,171,190,126,141,101,196],"times":[583,493,505,545,620,545,1078],"next_num":7,"trial_type":"ticket-choose","trial_index":90,"time_elapsed":726620,"internal_node_id":"0.0-90.0"},{"result":136,"points":3,"place":0,"phase":1,"sequence":6,"prices":[246,145,155,191,176,270,185,136,160,215],"times":[541,2540,880,556,589,556,750,1043],"next_num":8,"trial_type":"ticket-choose","trial_index":91,"time_elapsed":737346,"internal_node_id":"0.0-91.0"},{"result":150,"points":1,"place":3,"phase":1,"sequence":7,"prices":[150,170,160,240,166,185,121,136,95,191],"times":[1651],"next_num":1,"trial_type":"ticket-choose","trial_index":92,"time_elapsed":740868,"internal_node_id":"0.0-92.0"},{"result":130,"points":2,"place":1,"phase":1,"sequence":8,"prices":[155,181,170,255,176,200,130,150,110,205],"times":[567,466,500,532,530,593,982],"next_num":7,"trial_type":"ticket-choose","trial_index":93,"time_elapsed":747990,"internal_node_id":"0.0-93.0"},{"result":125,"points":2,"place":1,"phase":1,"sequence":9,"prices":[155,175,166,245,171,190,125,140,101,196],"times":[580,440,490,512,633,508,1049],"next_num":7,"trial_type":"ticket-choose","trial_index":94,"time_elapsed":755194,"internal_node_id":"0.0-94.0"},{"result":61,"points":3,"place":0,"phase":1,"sequence":10,"prices":[255,166,266,175,136,145,155,61,96,301],"times":[423,517,511,588,3413,1180,2553,1048],"next_num":8,"trial_type":"ticket-choose","trial_index":95,"time_elapsed":768625,"internal_node_id":"0.0-95.0"},{"result":160,"points":1,"place":4,"phase":1,"sequence":11,"prices":[86,180,130,151,170,271,145,191,220,160],"times":[490,571,460,484,1011,535,785,591,576,628],"next_num":10,"trial_type":"ticket-choose","trial_index":96,"time_elapsed":778380,"internal_node_id":"0.0-96.0"},{"result":120,"points":2,"place":1,"phase":1,"sequence":12,"prices":[150,170,160,241,166,186,120,136,96,191],"times":[1012,510,538,586,645,546,1662],"next_num":7,"trial_type":"ticket-choose","trial_index":97,"time_elapsed":786948,"internal_node_id":"0.0-97.0"},{"result":155,"points":1,"place":4,"phase":1,"sequence":13,"prices":[135,180,141,151,175,220,145,196,211,155],"times":[425,1126,513,544,502,662,1511,484,528,744],"next_num":10,"trial_type":"ticket-choose","trial_index":98,"time_elapsed":797596,"internal_node_id":"0.0-98.0"},{"result":130,"points":3,"place":0,"phase":1,"sequence":14,"prices":[130,195,141,155,181,226,150,216,221,175],"times":[998],"next_num":1,"trial_type":"ticket-choose","trial_index":99,"time_elapsed":800242,"internal_node_id":"0.0-99.0"},{"result":75,"points":3,"place":0,"phase":1,"sequence":15,"prices":[75,171,131,151,161,250,145,190,206,156],"times":[877],"next_num":1,"trial_type":"ticket-choose","trial_index":100,"time_elapsed":802756,"internal_node_id":"0.0-100.0"},{"result":141,"points":1,"place":3,"phase":1,"sequence":16,"prices":[176,150,141,91,290,201,106,266,206,126],"times":[714,467,764],"next_num":3,"trial_type":"ticket-choose","trial_index":101,"time_elapsed":806778,"internal_node_id":"0.0-101.0"},{"result":131,"points":2,"place":1,"phase":1,"sequence":17,"prices":[156,181,131,256,176,200,171,151,111,206],"times":[486,492,984],"next_num":3,"trial_type":"ticket-choose","trial_index":102,"time_elapsed":810813,"internal_node_id":"0.0-102.0"},{"result":125,"points":2,"place":1,"phase":1,"sequence":18,"prices":[156,175,125,245,170,190,165,140,101,196],"times":[485,446,867],"next_num":3,"trial_type":"ticket-choose","trial_index":103,"time_elapsed":814663,"internal_node_id":"0.0-103.0"},{"result":111,"points":3,"place":0,"phase":1,"sequence":19,"prices":[111,231,131,146,171,295,141,241,271,150],"times":[794],"next_num":1,"trial_type":"ticket-choose","trial_index":104,"time_elapsed":817094,"internal_node_id":"0.0-104.0"},{"result":66,"points":3,"place":0,"phase":1,"sequence":20,"prices":[66,201,96,150,185,230,121,216,225,165],"times":[1005],"next_num":1,"trial_type":"ticket-choose","trial_index":105,"time_elapsed":819744,"internal_node_id":"0.0-105.0"},{"result":116,"points":3,"place":0,"phase":1,"sequence":21,"prices":[176,150,276,171,261,116,130,201,166,231],"times":[1030,483,613,645,475,830],"next_num":6,"trial_type":"ticket-choose","trial_index":106,"time_elapsed":826627,"internal_node_id":"0.0-106.0"},{"result":121,"points":2,"place":1,"phase":1,"sequence":22,"prices":[150,171,121,241,165,185,160,136,95,191],"times":[488,446,638],"next_num":3,"trial_type":"ticket-choose","trial_index":107,"time_elapsed":830348,"internal_node_id":"0.0-107.0"},{"result":106,"points":3,"place":0,"phase":1,"sequence":23,"prices":[180,106,166,245,211,261,215,125,135,190],"times":[514,783],"next_num":2,"trial_type":"ticket-choose","trial_index":108,"time_elapsed":833480,"internal_node_id":"0.0-108.0"},{"result":120,"points":3,"place":0,"phase":1,"sequence":24,"prices":[120,221,135,185,200,261,181,251,255,196],"times":[1078],"next_num":1,"trial_type":"ticket-choose","trial_index":109,"time_elapsed":836596,"internal_node_id":"0.0-109.0"},{"result":95,"points":3,"place":0,"phase":1,"sequence":25,"prices":[95,205,106,151,186,271,145,210,215,181],"times":[779],"next_num":1,"trial_type":"ticket-choose","trial_index":110,"time_elapsed":838996,"internal_node_id":"0.0-110.0"},{"result":151,"points":1,"place":3,"phase":1,"sequence":26,"prices":[151,176,126,251,170,196,165,145,105,201],"times":[671],"next_num":1,"trial_type":"ticket-choose","trial_index":111,"time_elapsed":841611,"internal_node_id":"0.0-111.0"},{"result":126,"points":2,"place":1,"phase":1,"sequence":27,"prices":[156,175,126,246,170,190,165,140,100,196],"times":[591,497,1191],"next_num":3,"trial_type":"ticket-choose","trial_index":112,"time_elapsed":846084,"internal_node_id":"0.0-112.0"},{"result":51,"points":3,"place":0,"phase":1,"sequence":28,"prices":[221,175,51,196,146,130,166,80,126,156],"times":[569,541,819],"next_num":3,"trial_type":"ticket-choose","trial_index":113,"time_elapsed":850156,"internal_node_id":"0.0-113.0"},{"result":131,"points":2,"place":1,"phase":1,"sequence":29,"prices":[156,181,171,256,175,200,131,150,110,206],"times":[920,555,469,555,637,765,793],"next_num":7,"trial_type":"ticket-choose","trial_index":114,"time_elapsed":857792,"internal_node_id":"0.0-114.0"},{"result":150,"points":2,"place":1,"phase":1,"sequence":30,"prices":[181,156,145,165,236,231,201,260,150,185],"times":[604,909,744,521,565,533,520,566,1132],"next_num":9,"trial_type":"ticket-choose","trial_index":115,"time_elapsed":867382,"internal_node_id":"0.0-115.0"},{"result":130,"points":2,"place":1,"phase":1,"sequence":31,"prices":[160,180,130,251,176,195,170,146,105,200],"times":[1063,469,1191],"next_num":3,"trial_type":"ticket-choose","trial_index":116,"time_elapsed":872176,"internal_node_id":"0.0-116.0"},{"result":131,"points":2,"place":1,"phase":1,"sequence":32,"prices":[160,180,170,251,176,195,131,146,105,200],"times":[520,499,491,535,554,525,826],"next_num":7,"trial_type":"ticket-choose","trial_index":117,"time_elapsed":879112,"internal_node_id":"0.0-117.0"},{"result":125,"points":1,"place":2,"phase":1,"sequence":33,"prices":[226,205,125,120,115,135,180,145,150,220],"times":[433,579,1144],"next_num":3,"trial_type":"ticket-choose","trial_index":118,"time_elapsed":883328,"internal_node_id":"0.0-118.0"},{"result":30,"points":3,"place":0,"phase":1,"sequence":34,"prices":[155,30,101,55,136,276,70,181,200,261],"times":[791,999],"next_num":2,"trial_type":"ticket-choose","trial_index":119,"time_elapsed":886988,"internal_node_id":"0.0-119.0"},{"result":120,"points":2,"place":1,"phase":1,"sequence":35,"prices":[146,171,120,245,165,191,160,140,100,196],"times":[1012,842,1008],"next_num":3,"trial_type":"ticket-choose","trial_index":120,"time_elapsed":892072,"internal_node_id":"0.0-120.0"},{"result":81,"points":3,"place":0,"phase":1,"sequence":36,"prices":[81,205,130,151,191,261,145,210,250,165],"times":[2328],"next_num":1,"trial_type":"ticket-choose","trial_index":121,"time_elapsed":896364,"internal_node_id":"0.0-121.0"},{"result":121,"points":2,"place":1,"phase":1,"sequence":37,"prices":[146,170,121,245,166,190,161,141,100,195],"times":[1790,461,800],"next_num":3,"trial_type":"ticket-choose","trial_index":122,"time_elapsed":901601,"internal_node_id":"0.0-122.0"},{"result":81,"points":3,"place":0,"phase":1,"sequence":38,"prices":[155,245,155,81,180,130,156,306,166,115],"times":[460,527,496,743],"next_num":4,"trial_type":"ticket-choose","trial_index":123,"time_elapsed":906150,"internal_node_id":"0.0-123.0"},{"result":105,"points":3,"place":0,"phase":1,"sequence":39,"prices":[150,176,126,251,171,195,165,145,105,200],"times":[501,454,483,513,593,526,569,1077,725],"next_num":9,"trial_type":"ticket-choose","trial_index":124,"time_elapsed":915096,"internal_node_id":"0.0-124.0"},{"result":120,"points":2,"place":1,"phase":1,"sequence":40,"prices":[145,171,161,245,165,191,120,140,100,196],"times":[740,521,477,510,488,555,999],"next_num":7,"trial_type":"ticket-choose","trial_index":125,"time_elapsed":922320,"internal_node_id":"0.0-125.0"},{"result":130,"points":2,"place":1,"phase":1,"sequence":41,"prices":[155,225,245,130,176,106,180,211,165,200],"times":[335,397,456,938],"next_num":4,"trial_type":"ticket-choose","trial_index":126,"time_elapsed":926736,"internal_node_id":"0.0-126.0"},{"result":131,"points":2,"place":1,"phase":1,"sequence":42,"prices":[161,180,131,251,175,196,171,146,105,201],"times":[509,499,905],"next_num":3,"trial_type":"ticket-choose","trial_index":127,"time_elapsed":930746,"internal_node_id":"0.0-127.0"},{"result":106,"points":2,"place":1,"phase":1,"sequence":43,"prices":[185,180,235,210,106,266,76,115,250,205],"times":[371,555,728,548,1026],"next_num":5,"trial_type":"ticket-choose","trial_index":128,"time_elapsed":936478,"internal_node_id":"0.0-128.0"},{"result":131,"points":2,"place":1,"phase":1,"sequence":44,"prices":[161,180,171,250,176,195,131,146,105,201],"times":[417,469,537,464,553,538,859],"next_num":7,"trial_type":"ticket-choose","trial_index":129,"time_elapsed":943244,"internal_node_id":"0.0-129.0"},{"result":130,"points":2,"place":1,"phase":1,"sequence":45,"prices":[156,181,130,255,175,200,170,150,111,205],"times":[415,462,914],"next_num":3,"trial_type":"ticket-choose","trial_index":130,"time_elapsed":947082,"internal_node_id":"0.0-130.0"},{"result":165,"points":2,"place":1,"phase":1,"sequence":46,"prices":[175,211,266,286,111,216,220,245,230,165],"times":[442,535,446,469,976,666,775,538,547,527],"next_num":10,"trial_type":"ticket-choose","trial_index":131,"time_elapsed":956574,"internal_node_id":"0.0-131.0"},{"result":65,"points":2,"place":1,"phase":1,"sequence":47,"prices":[220,236,176,65,185,101,110,61,156,191],"times":[843,661,545,960],"next_num":4,"trial_type":"ticket-choose","trial_index":132,"time_elapsed":962003,"internal_node_id":"0.0-132.0"},{"result":126,"points":2,"place":1,"phase":1,"sequence":48,"prices":[150,175,166,251,170,196,126,145,105,201],"times":[511,608,490,512,553,536,1021],"next_num":7,"trial_type":"ticket-choose","trial_index":133,"time_elapsed":969168,"internal_node_id":"0.0-133.0"},{"result":120,"points":2,"place":1,"phase":1,"sequence":49,"prices":[150,171,120,241,165,185,160,135,96,190],"times":[679,460,1057],"next_num":3,"trial_type":"ticket-choose","trial_index":134,"time_elapsed":973452,"internal_node_id":"0.0-134.0"},{"responses":[{"value":0,"offby":-1,"category":"$30 - $75","category_index":0},{"value":2,"offby":0,"category":"$76 - $120","category_index":1},{"value":3,"offby":-1,"category":"$121 - $165","category_index":2},{"value":6,"offby":0,"category":"$166 - $210","category_index":3},{"value":6,"offby":0,"category":"$211 - $255","category_index":4},{"value":3,"offby":2,"category":"$256 - $300","category_index":5},{"value":0,"offby":0,"category":"$301 - $345","category_index":6}],"phase":1,"number":1,"trial_type":"bar-choose","trial_index":135,"time_elapsed":989714,"internal_node_id":"0.0-135.0"},{"special_comment":"no","trial_type":"special_sequence","trial_index":136,"time_elapsed":993416,"internal_node_id":"0.0-136.0"},{"during":"Nothing","bonus":292,"trial_type":"final","trial_index":137,"time_elapsed":1010446,"internal_node_id":"0.0-137.0"}],"bonus":292}