{"start_time":"2017-02-24 14:39:42","end_time":"2017-02-24 15:10:33","points_phase0":117,"points_phase1":123,"phase_order":0,"age":53,"gender":"m","tries":2,"during":"Nothing","worker_id":"A1OZPLHNIU1519","assignment_id":"369J354OFE3LXX78IRIBSIDZ1UMG6U","data":[{"rt":24456,"url":"\/tickets\/utils\/consent.html","trial_type":"html","trial_index":0,"time_elapsed":25857,"internal_node_id":"0.0-0.0"},{"age":53,"gender":"m","trial_type":"age","trial_index":1,"time_elapsed":35114,"internal_node_id":"0.0-1.0"},{"worker_id":"A1OZPLHNIU1519","trial_type":"workerid","trial_index":2,"time_elapsed":51828,"internal_node_id":"0.0-2.0"},{"tries":2,"trial_type":"instructions_check","trial_index":3,"time_elapsed":125805,"internal_node_id":"0.0-3.0"},{"rt":14133,"url":"\/tickets\/utils\/start.html","trial_type":"html","trial_index":4,"time_elapsed":141081,"internal_node_id":"0.0-4.0"},{"trial_type":"number-animation","trial_index":5,"time_elapsed":167806,"internal_node_id":"0.0-5.0"},{"phase":0,"sequence":0,"avg":180,"response":175,"trial_type":"training_avg","trial_index":6,"time_elapsed":179358,"internal_node_id":"0.0-6.0"},{"trial_type":"number-animation","trial_index":7,"time_elapsed":197581,"internal_node_id":"0.0-7.0"},{"phase":0,"sequence":1,"avg":178,"response":175,"trial_type":"training_avg","trial_index":8,"time_elapsed":206997,"internal_node_id":"0.0-8.0"},{"trial_type":"number-animation","trial_index":9,"time_elapsed":223556,"internal_node_id":"0.0-9.0"},{"phase":0,"sequence":2,"avg":176,"response":178,"trial_type":"training_avg","trial_index":10,"time_elapsed":234421,"internal_node_id":"0.0-10.0"},{"trial_type":"number-animation","trial_index":11,"time_elapsed":247727,"internal_node_id":"0.0-11.0"},{"phase":0,"sequence":3,"avg":178,"response":180,"trial_type":"training_avg","trial_index":12,"time_elapsed":257784,"internal_node_id":"0.0-12.0"},{"trial_type":"number-animation","trial_index":13,"time_elapsed":273298,"internal_node_id":"0.0-13.0"},{"phase":0,"sequence":4,"avg":179,"response":183,"trial_type":"training_avg","trial_index":14,"time_elapsed":282643,"internal_node_id":"0.0-14.0"},{"responses":[{"value":0,"offby":0,"category":"$140 - $250","category_index":0},{"value":0,"offby":0,"category":"$151 - $160","category_index":1},{"value":5,"offby":1,"category":"$161 - $170","category_index":2},{"value":8,"offby":2,"category":"$171 - $180","category_index":3},{"value":4,"offby":-3,"category":"$181 - $190","category_index":4},{"value":3,"offby":0,"category":"$191 - $200","category_index":5},{"value":0,"offby":0,"category":"$201 - $210","category_index":6}],"phase":0,"number":0,"trial_type":"bar-choose","trial_index":15,"time_elapsed":433161,"internal_node_id":"0.0-15.0"},{"rt":18557,"url":"\/tickets\/\/utils\/testing.html","trial_type":"html","trial_index":16,"time_elapsed":452960,"internal_node_id":"0.0-16.0"},{"phase":0,"order":[16,17,8,36,9,23,1,22,19,3,4,13,0,29,44,49,27,7,38,6,2,48,11,26,18,10,37,45,46,30,39,21,34,42,32,40,47,33,31,20,41,12,35,28,24,43,25,14,15,5],"trial_type":"store_order","trial_index":17,"time_elapsed":453976,"internal_node_id":"0.0-17.0"},{"result":165,"points":2,"place":1,"phase":0,"sequence":-1,"prices":[184,180,224,165,181,199,185,193,218,126],"times":[3043,1517,1516,2507],"next_num":4,"trial_type":"ticket-choose","trial_index":18,"time_elapsed":466867,"internal_node_id":"0.0-18.0"},{"rt":14739,"url":"\/tickets\/utils\/testing_after.html","trial_type":"html","trial_index":19,"time_elapsed":482735,"internal_node_id":"0.0-19.0"},{"result":163,"points":3,"place":0,"phase":0,"sequence":0,"prices":[174,178,168,192,177,181,176,171,163,182],"times":[1639,1604,2793,1599,876,1478,746,1503,1783],"next_num":9,"trial_type":"ticket-choose","trial_index":20,"time_elapsed":503638,"internal_node_id":"0.0-20.0"},{"result":163,"points":3,"place":0,"phase":0,"sequence":1,"prices":[174,178,168,192,177,181,176,171,163,182],"times":[1241,928,1043,775,756,778,735,892,1571],"next_num":9,"trial_type":"ticket-choose","trial_index":21,"time_elapsed":518131,"internal_node_id":"0.0-21.0"},{"result":165,"points":3,"place":0,"phase":0,"sequence":2,"prices":[176,180,170,194,179,183,178,173,165,184],"times":[1318,945,774,894,799,680,1131,1047,1392],"next_num":9,"trial_type":"ticket-choose","trial_index":22,"time_elapsed":533736,"internal_node_id":"0.0-22.0"},{"result":168,"points":2,"place":1,"phase":0,"sequence":3,"prices":[189,185,169,168,167,171,180,173,174,188],"times":[2702,1002,954,3243],"next_num":4,"trial_type":"ticket-choose","trial_index":23,"time_elapsed":546208,"internal_node_id":"0.0-23.0"},{"result":165,"points":3,"place":0,"phase":0,"sequence":4,"prices":[176,180,170,194,179,183,178,173,165,184],"times":[808,760,666,725,728,1393,773,1125,1544],"next_num":9,"trial_type":"ticket-choose","trial_index":24,"time_elapsed":560338,"internal_node_id":"0.0-24.0"},{"result":168,"points":2,"place":1,"phase":0,"sequence":5,"prices":[173,178,176,193,177,182,168,172,164,183],"times":[1495,1109,741,793,855,925,2759],"next_num":7,"trial_type":"ticket-choose","trial_index":25,"time_elapsed":574605,"internal_node_id":"0.0-25.0"},{"result":164,"points":3,"place":0,"phase":0,"sequence":6,"prices":[175,179,169,193,178,182,177,172,164,183],"times":[1043,541,1492,581,566,597,814,961,1380],"next_num":9,"trial_type":"ticket-choose","trial_index":26,"time_elapsed":587442,"internal_node_id":"0.0-26.0"},{"result":164,"points":3,"place":0,"phase":0,"sequence":7,"prices":[173,178,176,193,177,182,168,172,164,183],"times":[1232,771,700,647,651,1010,2412,1012,1355],"next_num":9,"trial_type":"ticket-choose","trial_index":27,"time_elapsed":602418,"internal_node_id":"0.0-27.0"},{"result":164,"points":3,"place":0,"phase":0,"sequence":8,"prices":[173,178,168,193,177,182,176,172,164,183],"times":[1020,605,1065,714,575,873,629,668,1337],"next_num":9,"trial_type":"ticket-choose","trial_index":28,"time_elapsed":615377,"internal_node_id":"0.0-28.0"},{"result":165,"points":3,"place":0,"phase":0,"sequence":9,"prices":[174,179,169,194,178,183,177,173,165,184],"times":[815,571,827,615,675,569,670,636,1557],"next_num":9,"trial_type":"ticket-choose","trial_index":29,"time_elapsed":627088,"internal_node_id":"0.0-29.0"},{"result":164,"points":3,"place":0,"phase":0,"sequence":10,"prices":[175,179,177,193,178,182,169,172,164,183],"times":[696,576,585,666,2036,600,803,515,1246],"next_num":9,"trial_type":"ticket-choose","trial_index":30,"time_elapsed":639906,"internal_node_id":"0.0-30.0"},{"result":165,"points":3,"place":0,"phase":0,"sequence":11,"prices":[176,180,178,194,179,183,170,173,165,184],"times":[788,569,627,577,544,582,709,607,1356],"next_num":9,"trial_type":"ticket-choose","trial_index":31,"time_elapsed":651021,"internal_node_id":"0.0-31.0"},{"result":164,"points":3,"place":0,"phase":0,"sequence":12,"prices":[175,179,169,193,178,182,177,172,164,183],"times":[699,598,502,509,511,554,686,519,1188],"next_num":9,"trial_type":"ticket-choose","trial_index":32,"time_elapsed":661265,"internal_node_id":"0.0-32.0"},{"result":174,"points":1,"place":4,"phase":0,"sequence":13,"prices":[166,190,170,173,178,203,172,192,198,174],"times":[948,712,508,692,592,496,670,881,983,1349],"next_num":10,"trial_type":"ticket-choose","trial_index":33,"time_elapsed":674210,"internal_node_id":"0.0-33.0"},{"result":150,"points":3,"place":0,"phase":0,"sequence":14,"prices":[175,150,164,155,171,199,158,180,184,196],"times":[754,1620],"next_num":2,"trial_type":"ticket-choose","trial_index":34,"time_elapsed":680668,"internal_node_id":"0.0-34.0"},{"result":165,"points":3,"place":0,"phase":0,"sequence":15,"prices":[175,189,193,170,179,165,180,186,177,184],"times":[727,761,685,1113,728,1454],"next_num":6,"trial_type":"ticket-choose","trial_index":35,"time_elapsed":690183,"internal_node_id":"0.0-35.0"},{"result":183,"points":1,"place":4,"phase":0,"sequence":16,"prices":[168,188,171,181,184,196,180,194,195,183],"times":[1287,597,614,764,659,621,904,723,714,1085],"next_num":10,"trial_type":"ticket-choose","trial_index":36,"time_elapsed":703264,"internal_node_id":"0.0-36.0"},{"result":169,"points":2,"place":1,"phase":0,"sequence":17,"prices":[174,179,177,194,178,183,169,173,165,184],"times":[1602,654,687,687,835,687,1276],"next_num":7,"trial_type":"ticket-choose","trial_index":37,"time_elapsed":714244,"internal_node_id":"0.0-37.0"},{"result":177,"points":1,"place":2,"phase":0,"sequence":18,"prices":[181,179,199,188,170,172,178,187,191,177],"times":[1625,626,559,599,1031,749,769,651,686,3428],"next_num":10,"trial_type":"ticket-choose","trial_index":38,"time_elapsed":730465,"internal_node_id":"0.0-38.0"},{"result":169,"points":2,"place":1,"phase":0,"sequence":19,"prices":[174,179,177,194,178,183,169,173,165,184],"times":[817,611,822,814,728,636,1400],"next_num":7,"trial_type":"ticket-choose","trial_index":39,"time_elapsed":740578,"internal_node_id":"0.0-39.0"},{"result":169,"points":2,"place":1,"phase":0,"sequence":20,"prices":[174,179,169,194,178,183,177,173,165,184],"times":[851,607,2019],"next_num":3,"trial_type":"ticket-choose","trial_index":40,"time_elapsed":747189,"internal_node_id":"0.0-40.0"},{"result":171,"points":3,"place":0,"phase":0,"sequence":21,"prices":[193,173,175,182,179,198,181,171,176,187],"times":[726,577,585,516,547,565,1096,2107],"next_num":8,"trial_type":"ticket-choose","trial_index":41,"time_elapsed":760068,"internal_node_id":"0.0-41.0"},{"result":174,"points":1,"place":2,"phase":0,"sequence":22,"prices":[175,180,170,195,179,184,178,174,166,185],"times":[1159,899,598,751,750,737,697,1676],"next_num":8,"trial_type":"ticket-choose","trial_index":42,"time_elapsed":772400,"internal_node_id":"0.0-42.0"},{"result":165,"points":3,"place":0,"phase":0,"sequence":23,"prices":[165,187,173,177,186,196,176,191,192,181],"times":[1600],"next_num":1,"trial_type":"ticket-choose","trial_index":43,"time_elapsed":777225,"internal_node_id":"0.0-43.0"},{"result":168,"points":2,"place":1,"phase":0,"sequence":24,"prices":[173,178,168,193,177,182,176,172,164,183],"times":[2284,514,1828],"next_num":3,"trial_type":"ticket-choose","trial_index":44,"time_elapsed":785014,"internal_node_id":"0.0-44.0"},{"result":174,"points":1,"place":2,"phase":0,"sequence":25,"prices":[175,180,170,195,179,184,178,174,166,185],"times":[754,696,524,571,597,659,893,1170],"next_num":8,"trial_type":"ticket-choose","trial_index":45,"time_elapsed":795583,"internal_node_id":"0.0-45.0"},{"result":168,"points":2,"place":1,"phase":0,"sequence":26,"prices":[181,175,182,168,183,173,153,170,193,179],"times":[697,749,656,1493],"next_num":4,"trial_type":"ticket-choose","trial_index":46,"time_elapsed":802555,"internal_node_id":"0.0-46.0"},{"result":162,"points":3,"place":0,"phase":0,"sequence":27,"prices":[179,174,172,162,202,184,165,197,185,169],"times":[795,697,969,1479],"next_num":4,"trial_type":"ticket-choose","trial_index":47,"time_elapsed":810633,"internal_node_id":"0.0-47.0"},{"result":166,"points":3,"place":0,"phase":0,"sequence":28,"prices":[179,186,197,201,166,187,188,193,190,177],"times":[859,598,526,675,1450],"next_num":5,"trial_type":"ticket-choose","trial_index":48,"time_elapsed":818631,"internal_node_id":"0.0-48.0"},{"result":160,"points":3,"place":0,"phase":0,"sequence":29,"prices":[160,185,170,174,182,196,173,186,194,177],"times":[1775],"next_num":1,"trial_type":"ticket-choose","trial_index":49,"time_elapsed":823306,"internal_node_id":"0.0-49.0"},{"result":171,"points":1,"place":2,"phase":0,"sequence":30,"prices":[195,177,197,179,171,173,175,156,163,204],"times":[879,595,701,568,1945],"next_num":5,"trial_type":"ticket-choose","trial_index":50,"time_elapsed":831443,"internal_node_id":"0.0-50.0"},{"result":168,"points":2,"place":1,"phase":0,"sequence":31,"prices":[174,178,176,192,177,181,168,171,163,182],"times":[665,506,563,572,599,698,1482],"next_num":7,"trial_type":"ticket-choose","trial_index":51,"time_elapsed":840675,"internal_node_id":"0.0-51.0"},{"result":165,"points":2,"place":1,"phase":0,"sequence":32,"prices":[181,180,191,186,165,197,159,167,194,185],"times":[866,545,628,623,1462],"next_num":5,"trial_type":"ticket-choose","trial_index":52,"time_elapsed":848899,"internal_node_id":"0.0-52.0"},{"result":160,"points":3,"place":0,"phase":0,"sequence":33,"prices":[175,193,175,160,180,170,175,205,177,167],"times":[651,581,535,1529],"next_num":4,"trial_type":"ticket-choose","trial_index":53,"time_elapsed":856124,"internal_node_id":"0.0-53.0"},{"result":173,"points":1,"place":2,"phase":0,"sequence":34,"prices":[171,180,172,174,179,188,173,183,186,175],"times":[729,1216,596,605,779,664,1591],"next_num":7,"trial_type":"ticket-choose","trial_index":54,"time_elapsed":866443,"internal_node_id":"0.0-54.0"},{"result":167,"points":3,"place":0,"phase":0,"sequence":35,"prices":[179,174,199,178,196,167,170,184,177,190],"times":[788,784,606,684,636,1312],"next_num":6,"trial_type":"ticket-choose","trial_index":55,"time_elapsed":875443,"internal_node_id":"0.0-55.0"},{"result":174,"points":2,"place":1,"phase":0,"sequence":36,"prices":[180,175,173,177,191,190,184,196,174,181],"times":[1664,757,731,720,681,663,848,731,1251],"next_num":9,"trial_type":"ticket-choose","trial_index":56,"time_elapsed":888633,"internal_node_id":"0.0-56.0"},{"result":179,"points":1,"place":4,"phase":0,"sequence":37,"prices":[170,183,172,175,180,189,174,187,188,179],"times":[1164,613,1075,537,637,536,761,644,1357,1076],"next_num":10,"trial_type":"ticket-choose","trial_index":57,"time_elapsed":901695,"internal_node_id":"0.0-57.0"},{"result":157,"points":3,"place":0,"phase":0,"sequence":38,"prices":[157,184,163,174,181,190,168,187,189,177],"times":[1820],"next_num":1,"trial_type":"ticket-choose","trial_index":58,"time_elapsed":906433,"internal_node_id":"0.0-58.0"},{"result":168,"points":2,"place":1,"phase":0,"sequence":39,"prices":[174,178,176,192,177,181,168,171,163,182],"times":[1080,773,844,682,720,771,1303],"next_num":7,"trial_type":"ticket-choose","trial_index":59,"time_elapsed":916894,"internal_node_id":"0.0-59.0"},{"result":165,"points":3,"place":0,"phase":0,"sequence":40,"prices":[180,165,177,193,186,196,187,169,171,182],"times":[941,1600],"next_num":2,"trial_type":"ticket-choose","trial_index":60,"time_elapsed":922409,"internal_node_id":"0.0-60.0"},{"result":170,"points":2,"place":1,"phase":0,"sequence":41,"prices":[176,180,178,194,179,183,170,173,165,184],"times":[896,1112,737,781,760,592,1280],"next_num":7,"trial_type":"ticket-choose","trial_index":61,"time_elapsed":933203,"internal_node_id":"0.0-61.0"},{"result":154,"points":3,"place":0,"phase":0,"sequence":42,"prices":[188,179,154,183,173,170,177,160,169,175],"times":[1046,672,1463],"next_num":3,"trial_type":"ticket-choose","trial_index":62,"time_elapsed":939980,"internal_node_id":"0.0-62.0"},{"result":175,"points":1,"place":4,"phase":0,"sequence":43,"prices":[159,178,170,174,176,194,173,182,185,175],"times":[770,1046,572,617,510,608,1333,547,1242,779],"next_num":10,"trial_type":"ticket-choose","trial_index":63,"time_elapsed":952534,"internal_node_id":"0.0-63.0"},{"result":161,"points":3,"place":0,"phase":0,"sequence":44,"prices":[161,180,170,174,178,198,173,182,188,176],"times":[1298],"next_num":1,"trial_type":"ticket-choose","trial_index":64,"time_elapsed":956519,"internal_node_id":"0.0-64.0"},{"result":157,"points":2,"place":1,"phase":0,"sequence":45,"prices":[188,191,179,157,181,164,166,156,175,182],"times":[780,575,705,1282],"next_num":4,"trial_type":"ticket-choose","trial_index":65,"time_elapsed":963218,"internal_node_id":"0.0-65.0"},{"result":163,"points":3,"place":0,"phase":0,"sequence":46,"prices":[163,185,165,174,181,198,173,186,187,180],"times":[1646],"next_num":1,"trial_type":"ticket-choose","trial_index":66,"time_elapsed":967655,"internal_node_id":"0.0-66.0"},{"result":166,"points":3,"place":0,"phase":0,"sequence":47,"prices":[175,180,178,195,179,184,170,174,166,185],"times":[1032,647,630,585,545,756,617,600,1138],"next_num":9,"trial_type":"ticket-choose","trial_index":67,"time_elapsed":978823,"internal_node_id":"0.0-67.0"},{"result":170,"points":2,"place":1,"phase":0,"sequence":48,"prices":[175,180,178,195,179,184,170,174,166,185],"times":[856,692,579,769,628,613,1414],"next_num":7,"trial_type":"ticket-choose","trial_index":68,"time_elapsed":988636,"internal_node_id":"0.0-68.0"},{"result":169,"points":2,"place":1,"phase":0,"sequence":49,"prices":[175,179,177,193,178,182,169,172,164,183],"times":[917,685,645,675,1503,597,1451],"next_num":7,"trial_type":"ticket-choose","trial_index":69,"time_elapsed":999711,"internal_node_id":"0.0-69.0"},{"responses":[{"value":0,"offby":0,"category":"$140 - $250","category_index":0},{"value":2,"offby":2,"category":"$151 - $160","category_index":1},{"value":4,"offby":0,"category":"$161 - $170","category_index":2},{"value":7,"offby":1,"category":"$171 - $180","category_index":3},{"value":4,"offby":-3,"category":"$181 - $190","category_index":4},{"value":3,"offby":0,"category":"$191 - $200","category_index":5},{"value":0,"offby":0,"category":"$201 - $210","category_index":6}],"phase":0,"number":1,"trial_type":"bar-choose","trial_index":70,"time_elapsed":1086690,"internal_node_id":"0.0-70.0"},{"rt":21787,"url":"\/tickets\/utils\/start2.html","trial_type":"html","trial_index":71,"time_elapsed":1109682,"internal_node_id":"0.0-71.0"},{"trial_type":"number-animation","trial_index":72,"time_elapsed":1127283,"internal_node_id":"0.0-72.0"},{"phase":1,"sequence":0,"avg":166,"response":145,"trial_type":"training_avg","trial_index":73,"time_elapsed":1138304,"internal_node_id":"0.0-73.0"},{"trial_type":"number-animation","trial_index":74,"time_elapsed":1150588,"internal_node_id":"0.0-74.0"},{"phase":1,"sequence":1,"avg":198,"response":170,"trial_type":"training_avg","trial_index":75,"time_elapsed":1165371,"internal_node_id":"0.0-75.0"},{"trial_type":"number-animation","trial_index":76,"time_elapsed":1179556,"internal_node_id":"0.0-76.0"},{"phase":1,"sequence":2,"avg":177,"response":160,"trial_type":"training_avg","trial_index":77,"time_elapsed":1188193,"internal_node_id":"0.0-77.0"},{"trial_type":"number-animation","trial_index":78,"time_elapsed":1198087,"internal_node_id":"0.0-78.0"},{"phase":1,"sequence":3,"avg":190,"response":166,"trial_type":"training_avg","trial_index":79,"time_elapsed":1208039,"internal_node_id":"0.0-79.0"},{"trial_type":"number-animation","trial_index":80,"time_elapsed":1217213,"internal_node_id":"0.0-80.0"},{"phase":1,"sequence":4,"avg":201,"response":185,"trial_type":"training_avg","trial_index":81,"time_elapsed":1227060,"internal_node_id":"0.0-81.0"},{"responses":[{"value":0,"offby":-1,"category":"$30 - $75","category_index":0},{"value":3,"offby":1,"category":"$76 - $120","category_index":1},{"value":5,"offby":1,"category":"$121 - $165","category_index":2},{"value":7,"offby":1,"category":"$166 - $210","category_index":3},{"value":5,"offby":-1,"category":"$211 - $255","category_index":4},{"value":0,"offby":-1,"category":"$256 - $300","category_index":5},{"value":0,"offby":0,"category":"$301 - $345","category_index":6}],"phase":1,"number":0,"trial_type":"bar-choose","trial_index":82,"time_elapsed":1279618,"internal_node_id":"0.0-82.0"},{"rt":16272,"url":"\/tickets\/utils\/testing2.html","trial_type":"html","trial_index":83,"time_elapsed":1297223,"internal_node_id":"0.0-83.0"},{"phase":1,"order":[29,6,16,25,37,3,18,35,1,24,19,8,36,21,15,38,42,31,26,11,14,48,30,44,5,41,28,0,45,10,22,49,43,40,17,27,47,33,13,20,23,9,34,4,46,2,32,12,7,39],"trial_type":"store_order","trial_index":84,"time_elapsed":1298252,"internal_node_id":"0.0-84.0"},{"result":111,"points":3,"place":0,"phase":1,"sequence":0,"prices":[111,231,131,146,171,295,141,241,271,150],"times":[2404],"next_num":1,"trial_type":"ticket-choose","trial_index":85,"time_elapsed":1303713,"internal_node_id":"0.0-85.0"},{"result":126,"points":2,"place":1,"phase":1,"sequence":1,"prices":[150,175,166,251,170,196,126,145,105,201],"times":[1530,753,1643,626,729,581,1513],"next_num":7,"trial_type":"ticket-choose","trial_index":86,"time_elapsed":1315435,"internal_node_id":"0.0-86.0"},{"result":121,"points":2,"place":1,"phase":1,"sequence":2,"prices":[150,171,121,241,165,185,160,136,95,191],"times":[2194,587,1317],"next_num":3,"trial_type":"ticket-choose","trial_index":87,"time_elapsed":1322428,"internal_node_id":"0.0-87.0"},{"result":95,"points":3,"place":0,"phase":1,"sequence":3,"prices":[95,205,106,151,186,271,145,210,215,181],"times":[1420],"next_num":1,"trial_type":"ticket-choose","trial_index":88,"time_elapsed":1326591,"internal_node_id":"0.0-88.0"},{"result":45,"points":3,"place":0,"phase":1,"sequence":4,"prices":[186,156,191,120,195,145,45,130,246,176],"times":[602,491,516,1077,468,510,1389],"next_num":7,"trial_type":"ticket-choose","trial_index":89,"time_elapsed":1336159,"internal_node_id":"0.0-89.0"},{"result":126,"points":2,"place":1,"phase":1,"sequence":5,"prices":[150,176,126,251,171,195,165,145,105,200],"times":[900,492,1366],"next_num":3,"trial_type":"ticket-choose","trial_index":90,"time_elapsed":1341936,"internal_node_id":"0.0-90.0"},{"result":100,"points":3,"place":0,"phase":1,"sequence":6,"prices":[146,171,120,245,165,191,160,140,100,196],"times":[632,694,652,500,607,556,632,976,1179],"next_num":9,"trial_type":"ticket-choose","trial_index":91,"time_elapsed":1353143,"internal_node_id":"0.0-91.0"},{"result":51,"points":3,"place":0,"phase":1,"sequence":7,"prices":[221,175,51,196,146,130,166,80,126,156],"times":[1770,580,1242],"next_num":3,"trial_type":"ticket-choose","trial_index":92,"time_elapsed":1359878,"internal_node_id":"0.0-92.0"},{"result":125,"points":2,"place":1,"phase":1,"sequence":8,"prices":[156,175,125,245,170,190,165,140,101,196],"times":[1231,582,1505],"next_num":3,"trial_type":"ticket-choose","trial_index":93,"time_elapsed":1366329,"internal_node_id":"0.0-93.0"},{"result":86,"points":3,"place":0,"phase":1,"sequence":9,"prices":[86,180,130,151,170,271,145,191,220,160],"times":[1612],"next_num":1,"trial_type":"ticket-choose","trial_index":94,"time_elapsed":1370519,"internal_node_id":"0.0-94.0"},{"result":100,"points":3,"place":0,"phase":1,"sequence":10,"prices":[146,170,121,245,166,190,161,141,100,195],"times":[858,554,970,490,542,624,589,615,1373],"next_num":9,"trial_type":"ticket-choose","trial_index":95,"time_elapsed":1381493,"internal_node_id":"0.0-95.0"},{"result":105,"points":3,"place":0,"phase":1,"sequence":11,"prices":[161,180,131,251,175,196,171,146,105,201],"times":[1460,527,894,537,560,542,684,1051,1370],"next_num":9,"trial_type":"ticket-choose","trial_index":96,"time_elapsed":1393426,"internal_node_id":"0.0-96.0"},{"result":125,"points":1,"place":2,"phase":1,"sequence":12,"prices":[226,205,125,120,115,135,180,145,150,220],"times":[780,828,1674],"next_num":3,"trial_type":"ticket-choose","trial_index":97,"time_elapsed":1399683,"internal_node_id":"0.0-97.0"},{"result":96,"points":3,"place":0,"phase":1,"sequence":13,"prices":[150,170,160,241,166,186,120,136,96,191],"times":[746,522,710,655,806,578,530,1301,1158],"next_num":9,"trial_type":"ticket-choose","trial_index":98,"time_elapsed":1410989,"internal_node_id":"0.0-98.0"},{"result":110,"points":3,"place":0,"phase":1,"sequence":14,"prices":[156,181,171,256,175,200,131,150,110,206],"times":[4597,634,573,715,639,748,1259,754,1437],"next_num":9,"trial_type":"ticket-choose","trial_index":99,"time_elapsed":1426859,"internal_node_id":"0.0-99.0"},{"result":165,"points":1,"place":2,"phase":1,"sequence":15,"prices":[185,175,276,221,130,141,171,216,235,165],"times":[847,513,571,557,1019,511,596,555,933,1241],"next_num":10,"trial_type":"ticket-choose","trial_index":100,"time_elapsed":1438773,"internal_node_id":"0.0-100.0"},{"result":81,"points":3,"place":0,"phase":1,"sequence":16,"prices":[155,245,155,81,180,130,156,306,166,115],"times":[918,532,566,1308],"next_num":4,"trial_type":"ticket-choose","trial_index":101,"time_elapsed":1445330,"internal_node_id":"0.0-101.0"},{"result":66,"points":3,"place":0,"phase":1,"sequence":17,"prices":[66,201,96,150,185,230,121,216,225,165],"times":[1926],"next_num":1,"trial_type":"ticket-choose","trial_index":102,"time_elapsed":1449892,"internal_node_id":"0.0-102.0"},{"result":105,"points":3,"place":0,"phase":1,"sequence":18,"prices":[105,216,146,165,210,260,161,235,241,185],"times":[3698],"next_num":1,"trial_type":"ticket-choose","trial_index":103,"time_elapsed":1456733,"internal_node_id":"0.0-103.0"},{"result":111,"points":3,"place":0,"phase":1,"sequence":19,"prices":[156,181,130,255,175,200,170,150,111,205],"times":[763,625,1235,523,554,618,583,786,1297],"next_num":9,"trial_type":"ticket-choose","trial_index":104,"time_elapsed":1468192,"internal_node_id":"0.0-104.0"},{"result":110,"points":3,"place":0,"phase":1,"sequence":20,"prices":[155,181,170,255,176,200,130,150,110,205],"times":[1486,548,519,568,597,725,1654,973,1443],"next_num":9,"trial_type":"ticket-choose","trial_index":105,"time_elapsed":1481133,"internal_node_id":"0.0-105.0"},{"result":136,"points":3,"place":0,"phase":1,"sequence":21,"prices":[246,145,155,191,176,270,185,136,160,215],"times":[1206,1094,666,1067,531,588,726,1481],"next_num":8,"trial_type":"ticket-choose","trial_index":106,"time_elapsed":1493087,"internal_node_id":"0.0-106.0"},{"result":81,"points":3,"place":0,"phase":1,"sequence":22,"prices":[81,205,130,151,191,261,145,210,250,165],"times":[1824],"next_num":1,"trial_type":"ticket-choose","trial_index":107,"time_elapsed":1497608,"internal_node_id":"0.0-107.0"},{"result":30,"points":3,"place":0,"phase":1,"sequence":23,"prices":[155,30,101,55,136,276,70,181,200,261],"times":[846,1368],"next_num":2,"trial_type":"ticket-choose","trial_index":108,"time_elapsed":1502914,"internal_node_id":"0.0-108.0"},{"result":126,"points":2,"place":1,"phase":1,"sequence":24,"prices":[156,176,165,246,171,190,126,141,101,196],"times":[917,517,1096,551,617,612,1680],"next_num":7,"trial_type":"ticket-choose","trial_index":109,"time_elapsed":1512841,"internal_node_id":"0.0-109.0"},{"result":106,"points":3,"place":0,"phase":1,"sequence":25,"prices":[180,106,166,245,211,261,215,125,135,190],"times":[886,1625],"next_num":2,"trial_type":"ticket-choose","trial_index":110,"time_elapsed":1518343,"internal_node_id":"0.0-110.0"},{"result":75,"points":3,"place":0,"phase":1,"sequence":26,"prices":[75,171,131,151,161,250,145,190,206,156],"times":[2234],"next_num":1,"trial_type":"ticket-choose","trial_index":111,"time_elapsed":1523840,"internal_node_id":"0.0-111.0"},{"result":100,"points":3,"place":0,"phase":1,"sequence":27,"prices":[156,175,126,246,170,190,165,140,100,196],"times":[665,521,1240,502,586,643,905,959,1311],"next_num":9,"trial_type":"ticket-choose","trial_index":112,"time_elapsed":1535528,"internal_node_id":"0.0-112.0"},{"result":91,"points":3,"place":0,"phase":1,"sequence":28,"prices":[176,150,141,91,290,201,106,266,206,126],"times":[789,953,1016,1351],"next_num":4,"trial_type":"ticket-choose","trial_index":113,"time_elapsed":1543038,"internal_node_id":"0.0-113.0"},{"result":111,"points":3,"place":0,"phase":1,"sequence":29,"prices":[156,181,131,256,176,200,171,151,111,206],"times":[745,576,1043,569,708,619,628,718,1264],"next_num":9,"trial_type":"ticket-choose","trial_index":114,"time_elapsed":1554649,"internal_node_id":"0.0-114.0"},{"result":120,"points":2,"place":1,"phase":1,"sequence":30,"prices":[145,171,161,245,165,191,120,140,100,196],"times":[1486,688,640,601,671,709,1488],"next_num":7,"trial_type":"ticket-choose","trial_index":115,"time_elapsed":1564902,"internal_node_id":"0.0-115.0"},{"result":106,"points":3,"place":0,"phase":1,"sequence":31,"prices":[155,225,245,130,176,106,180,211,165,200],"times":[812,567,513,1352,530,1368],"next_num":6,"trial_type":"ticket-choose","trial_index":116,"time_elapsed":1573831,"internal_node_id":"0.0-116.0"},{"result":65,"points":2,"place":1,"phase":1,"sequence":32,"prices":[220,236,176,65,185,101,110,61,156,191],"times":[845,564,727,1371],"next_num":4,"trial_type":"ticket-choose","trial_index":117,"time_elapsed":1580852,"internal_node_id":"0.0-117.0"},{"result":116,"points":3,"place":0,"phase":1,"sequence":33,"prices":[176,150,276,171,261,116,130,201,166,231],"times":[875,997,555,547,532,1665],"next_num":6,"trial_type":"ticket-choose","trial_index":118,"time_elapsed":1590199,"internal_node_id":"0.0-118.0"},{"result":96,"points":3,"place":0,"phase":1,"sequence":34,"prices":[150,171,120,241,165,185,160,135,96,190],"times":[904,620,1190,519,556,709,935,1962,816],"next_num":9,"trial_type":"ticket-choose","trial_index":119,"time_elapsed":1603223,"internal_node_id":"0.0-119.0"},{"result":196,"points":1,"place":4,"phase":1,"sequence":35,"prices":[120,221,135,185,200,261,181,251,255,196],"times":[991,617,1018,613,611,600,966,630,592,1411],"next_num":10,"trial_type":"ticket-choose","trial_index":120,"time_elapsed":1616259,"internal_node_id":"0.0-120.0"},{"result":145,"points":3,"place":0,"phase":1,"sequence":36,"prices":[181,156,145,165,236,231,201,260,150,185],"times":[699,938,3598],"next_num":3,"trial_type":"ticket-choose","trial_index":121,"time_elapsed":1624788,"internal_node_id":"0.0-121.0"},{"result":150,"points":1,"place":2,"phase":1,"sequence":37,"prices":[130,195,141,155,181,226,150,216,221,175],"times":[955,585,674,706,612,641,2722],"next_num":7,"trial_type":"ticket-choose","trial_index":122,"time_elapsed":1635484,"internal_node_id":"0.0-122.0"},{"result":131,"points":2,"place":1,"phase":1,"sequence":38,"prices":[160,180,170,251,176,195,131,146,105,200],"times":[812,524,557,569,650,571,1607],"next_num":7,"trial_type":"ticket-choose","trial_index":123,"time_elapsed":1644479,"internal_node_id":"0.0-123.0"},{"result":121,"points":2,"place":1,"phase":1,"sequence":39,"prices":[150,170,160,240,166,185,121,136,95,191],"times":[809,591,859,562,722,883,1601],"next_num":7,"trial_type":"ticket-choose","trial_index":124,"time_elapsed":1654154,"internal_node_id":"0.0-124.0"},{"result":120,"points":2,"place":1,"phase":1,"sequence":40,"prices":[145,170,160,245,165,190,120,141,100,195],"times":[878,582,667,552,805,580,1712],"next_num":7,"trial_type":"ticket-choose","trial_index":125,"time_elapsed":1663774,"internal_node_id":"0.0-125.0"},{"result":130,"points":2,"place":1,"phase":1,"sequence":41,"prices":[160,180,130,251,176,195,170,146,105,200],"times":[741,532,1404],"next_num":3,"trial_type":"ticket-choose","trial_index":126,"time_elapsed":1669440,"internal_node_id":"0.0-126.0"},{"result":106,"points":2,"place":1,"phase":1,"sequence":42,"prices":[185,180,235,210,106,266,76,115,250,205],"times":[699,524,529,585,1379],"next_num":5,"trial_type":"ticket-choose","trial_index":127,"time_elapsed":1676523,"internal_node_id":"0.0-127.0"},{"result":125,"points":2,"place":1,"phase":1,"sequence":43,"prices":[155,175,166,245,171,190,125,140,101,196],"times":[617,491,540,554,570,576,1429],"next_num":7,"trial_type":"ticket-choose","trial_index":128,"time_elapsed":1684926,"internal_node_id":"0.0-128.0"},{"result":111,"points":3,"place":0,"phase":1,"sequence":44,"prices":[175,211,266,286,111,216,220,245,230,165],"times":[837,565,545,562,1524],"next_num":5,"trial_type":"ticket-choose","trial_index":129,"time_elapsed":1692416,"internal_node_id":"0.0-129.0"},{"result":105,"points":3,"place":0,"phase":1,"sequence":45,"prices":[151,176,126,251,170,196,165,145,105,201],"times":[829,527,2078,471,576,868,824,1099,1185],"next_num":9,"trial_type":"ticket-choose","trial_index":130,"time_elapsed":1705329,"internal_node_id":"0.0-130.0"},{"result":155,"points":1,"place":4,"phase":1,"sequence":46,"prices":[135,180,141,151,175,220,145,196,211,155],"times":[1447,557,807,677,788,588,1031,656,641,1331],"next_num":10,"trial_type":"ticket-choose","trial_index":131,"time_elapsed":1718345,"internal_node_id":"0.0-131.0"},{"result":131,"points":2,"place":1,"phase":1,"sequence":47,"prices":[161,180,171,250,176,195,131,146,105,201],"times":[865,589,544,679,571,609,2195],"next_num":7,"trial_type":"ticket-choose","trial_index":132,"time_elapsed":1728063,"internal_node_id":"0.0-132.0"},{"result":126,"points":2,"place":1,"phase":1,"sequence":48,"prices":[151,175,166,251,170,195,126,146,105,201],"times":[665,507,644,488,597,592,1529],"next_num":7,"trial_type":"ticket-choose","trial_index":133,"time_elapsed":1736742,"internal_node_id":"0.0-133.0"},{"result":136,"points":1,"place":2,"phase":1,"sequence":49,"prices":[255,166,266,175,136,145,155,61,96,301],"times":[774,563,484,511,1614],"next_num":5,"trial_type":"ticket-choose","trial_index":134,"time_elapsed":1744024,"internal_node_id":"0.0-134.0"},{"responses":[{"value":0,"offby":-1,"category":"$30 - $75","category_index":0},{"value":4,"offby":2,"category":"$76 - $120","category_index":1},{"value":5,"offby":1,"category":"$121 - $165","category_index":2},{"value":7,"offby":1,"category":"$166 - $210","category_index":3},{"value":3,"offby":-3,"category":"$211 - $255","category_index":4},{"value":1,"offby":0,"category":"$256 - $300","category_index":5},{"value":0,"offby":0,"category":"$301 - $345","category_index":6}],"phase":1,"number":1,"trial_type":"bar-choose","trial_index":135,"time_elapsed":1784309,"internal_node_id":"0.0-135.0"},{"special_comment":"Nothingreally.","trial_type":"special_sequence","trial_index":136,"time_elapsed":1805441,"internal_node_id":"0.0-136.0"},{"during":"Nothing","bonus":320,"trial_type":"final","trial_index":137,"time_elapsed":1839975,"internal_node_id":"0.0-137.0"}],"bonus":320}