{"start_time":"2017-02-22 09:58:34","end_time":"2017-02-22 10:17:22","points_phase0":121,"points_phase1":108,"phase_order":1,"age":40,"gender":"f","tries":1,"during":"Nothing","worker_id":"A1RT9SQ9D9DLOV","assignment_id":"39DD6S19JQ4P1TVSE1PYPDLIT5HZEA","data":[{"rt":11525,"url":"\/tickets\/utils\/consent.html","trial_type":"html","trial_index":0,"time_elapsed":11727,"internal_node_id":"0.0-0.0"},{"age":40,"gender":"f","trial_type":"age","trial_index":1,"time_elapsed":16977,"internal_node_id":"0.0-1.0"},{"worker_id":"A1RT9SQ9D9DLOV","trial_type":"workerid","trial_index":2,"time_elapsed":28498,"internal_node_id":"0.0-2.0"},{"tries":1,"trial_type":"instructions_check","trial_index":3,"time_elapsed":57358,"internal_node_id":"0.0-3.0"},{"rt":6797,"url":"\/tickets\/utils\/start.html","trial_type":"html","trial_index":4,"time_elapsed":65273,"internal_node_id":"0.0-4.0"},{"trial_type":"number-animation","trial_index":5,"time_elapsed":80655,"internal_node_id":"0.0-5.0"},{"phase":0,"sequence":0,"avg":182,"response":165,"trial_type":"training_avg","trial_index":6,"time_elapsed":88475,"internal_node_id":"0.0-6.0"},{"trial_type":"number-animation","trial_index":7,"time_elapsed":103214,"internal_node_id":"0.0-7.0"},{"phase":0,"sequence":1,"avg":188,"response":185,"trial_type":"training_avg","trial_index":8,"time_elapsed":108965,"internal_node_id":"0.0-8.0"},{"trial_type":"number-animation","trial_index":9,"time_elapsed":126785,"internal_node_id":"0.0-9.0"},{"phase":0,"sequence":2,"avg":176,"response":170,"trial_type":"training_avg","trial_index":10,"time_elapsed":132810,"internal_node_id":"0.0-10.0"},{"trial_type":"number-animation","trial_index":11,"time_elapsed":150599,"internal_node_id":"0.0-11.0"},{"phase":0,"sequence":3,"avg":180,"response":180,"trial_type":"training_avg","trial_index":12,"time_elapsed":156769,"internal_node_id":"0.0-12.0"},{"trial_type":"number-animation","trial_index":13,"time_elapsed":173731,"internal_node_id":"0.0-13.0"},{"phase":0,"sequence":4,"avg":174,"response":173,"trial_type":"training_avg","trial_index":14,"time_elapsed":180542,"internal_node_id":"0.0-14.0"},{"responses":[{"value":0,"offby":-1,"category":"$90 - $120","category_index":0},{"value":3,"offby":0,"category":"$121 - $145","category_index":1},{"value":5,"offby":2,"category":"$146 - $170","category_index":2},{"value":5,"offby":-1,"category":"$171 - $195","category_index":3},{"value":5,"offby":1,"category":"$196 - $220","category_index":4},{"value":2,"offby":0,"category":"$221 - $245","category_index":5},{"value":0,"offby":-1,"category":"$246 - $270","category_index":6}],"phase":0,"number":0,"trial_type":"bar-choose","trial_index":15,"time_elapsed":212700,"internal_node_id":"0.0-15.0"},{"rt":11367,"url":"\/tickets\/\/utils\/testing.html","trial_type":"html","trial_index":16,"time_elapsed":225183,"internal_node_id":"0.0-16.0"},{"phase":0,"order":[10,24,4,12,22,38,23,44,30,19,41,29,31,28,36,13,3,46,5,9,48,34,17,47,27,7,43,33,42,15,18,26,45,0,39,8,2,14,21,16,11,20,1,35,40,32,49,37,6,25],"trial_type":"store_order","trial_index":17,"time_elapsed":226184,"internal_node_id":"0.0-17.0"},{"result":126,"points":3,"place":0,"phase":0,"sequence":-1,"prices":[184,180,224,165,181,199,185,193,218,126],"times":[1694,1339,1016,1267,1064,1039,1500,971,859,1463],"next_num":10,"trial_type":"ticket-choose","trial_index":18,"time_elapsed":242626,"internal_node_id":"0.0-18.0"},{"rt":14505,"url":"\/tickets\/utils\/testing_after.html","trial_type":"html","trial_index":19,"time_elapsed":258268,"internal_node_id":"0.0-19.0"},{"result":136,"points":2,"place":1,"phase":0,"sequence":0,"prices":[169,192,174,246,180,195,136,152,238,126],"times":[1516,977,1151,961,906,891,1095],"next_num":7,"trial_type":"ticket-choose","trial_index":20,"time_elapsed":269666,"internal_node_id":"0.0-20.0"},{"result":161,"points":1,"place":2,"phase":0,"sequence":1,"prices":[157,213,159,187,194,242,161,222,225,189],"times":[960,790,861,752,750,830,1392],"next_num":7,"trial_type":"ticket-choose","trial_index":21,"time_elapsed":279478,"internal_node_id":"0.0-21.0"},{"result":132,"points":3,"place":0,"phase":0,"sequence":2,"prices":[132,222,144,153,190,248,151,224,228,179],"times":[1401],"next_num":1,"trial_type":"ticket-choose","trial_index":22,"time_elapsed":283298,"internal_node_id":"0.0-22.0"},{"result":149,"points":2,"place":1,"phase":0,"sequence":3,"prices":[196,221,149,164,216,167,175,128,176,181],"times":[768,657,1440],"next_num":3,"trial_type":"ticket-choose","trial_index":23,"time_elapsed":288588,"internal_node_id":"0.0-23.0"},{"result":136,"points":2,"place":1,"phase":0,"sequence":4,"prices":[171,192,136,265,180,194,174,152,239,127],"times":[729,564,938],"next_num":3,"trial_type":"ticket-choose","trial_index":24,"time_elapsed":293196,"internal_node_id":"0.0-24.0"},{"result":129,"points":2,"place":1,"phase":0,"sequence":5,"prices":[155,129,164,189,210,108,187,241,174,275],"times":[1057,1017],"next_num":2,"trial_type":"ticket-choose","trial_index":25,"time_elapsed":297518,"internal_node_id":"0.0-25.0"},{"result":127,"points":3,"place":0,"phase":0,"sequence":6,"prices":[169,194,154,271,178,201,176,158,236,127],"times":[832,557,736,633,649,642,729,751,891,917],"next_num":10,"trial_type":"ticket-choose","trial_index":26,"time_elapsed":308860,"internal_node_id":"0.0-26.0"},{"result":192,"points":1,"place":4,"phase":0,"sequence":7,"prices":[157,205,161,175,197,254,165,210,214,192],"times":[833,626,643,592,603,736,839,640,727,830],"next_num":10,"trial_type":"ticket-choose","trial_index":27,"time_elapsed":319844,"internal_node_id":"0.0-27.0"},{"result":146,"points":2,"place":1,"phase":0,"sequence":8,"prices":[171,195,172,242,179,196,146,150,128,235],"times":[982,572,619,594,641,651,1040],"next_num":7,"trial_type":"ticket-choose","trial_index":28,"time_elapsed":328187,"internal_node_id":"0.0-28.0"},{"result":133,"points":3,"place":0,"phase":0,"sequence":9,"prices":[168,192,154,237,182,196,176,156,235,133],"times":[922,517,634,556,586,572,658,1415,610,799],"next_num":10,"trial_type":"ticket-choose","trial_index":29,"time_elapsed":339376,"internal_node_id":"0.0-29.0"},{"result":136,"points":3,"place":0,"phase":0,"sequence":10,"prices":[240,188,273,207,250,136,217,170,171,236],"times":[1027,739,626,564,565,1320],"next_num":6,"trial_type":"ticket-choose","trial_index":30,"time_elapsed":347211,"internal_node_id":"0.0-30.0"},{"result":137,"points":3,"place":0,"phase":0,"sequence":11,"prices":[137,187,152,156,166,231,155,194,202,160],"times":[1211],"next_num":1,"trial_type":"ticket-choose","trial_index":31,"time_elapsed":350352,"internal_node_id":"0.0-31.0"},{"result":131,"points":3,"place":0,"phase":0,"sequence":12,"prices":[170,190,176,251,183,192,154,157,236,131],"times":[645,503,516,564,548,657,932,742,587,641],"next_num":10,"trial_type":"ticket-choose","trial_index":32,"time_elapsed":360461,"internal_node_id":"0.0-32.0"},{"result":136,"points":2,"place":1,"phase":0,"sequence":13,"prices":[173,191,174,270,180,193,136,153,239,129],"times":[711,601,598,556,562,524,1033],"next_num":7,"trial_type":"ticket-choose","trial_index":33,"time_elapsed":368141,"internal_node_id":"0.0-33.0"},{"result":146,"points":3,"place":0,"phase":0,"sequence":14,"prices":[156,218,212,216,191,210,275,146,174,152],"times":[978,525,500,526,546,574,592,1306],"next_num":8,"trial_type":"ticket-choose","trial_index":34,"time_elapsed":377085,"internal_node_id":"0.0-34.0"},{"result":119,"points":3,"place":0,"phase":0,"sequence":15,"prices":[198,119,169,141,195,233,136,208,177,217],"times":[672,1344],"next_num":2,"trial_type":"ticket-choose","trial_index":35,"time_elapsed":381179,"internal_node_id":"0.0-35.0"},{"result":136,"points":2,"place":1,"phase":0,"sequence":16,"prices":[172,194,174,243,182,193,136,150,237,126],"times":[586,524,494,532,578,563,1040],"next_num":7,"trial_type":"ticket-choose","trial_index":36,"time_elapsed":388585,"internal_node_id":"0.0-36.0"},{"result":117,"points":3,"place":0,"phase":0,"sequence":17,"prices":[117,161,120,147,153,259,144,191,195,149],"times":[1437],"next_num":1,"trial_type":"ticket-choose","trial_index":37,"time_elapsed":391798,"internal_node_id":"0.0-37.0"},{"result":138,"points":1,"place":2,"phase":0,"sequence":18,"prices":[181,138,118,170,190,101,146,169,175,233],"times":[679,952],"next_num":2,"trial_type":"ticket-choose","trial_index":38,"time_elapsed":395517,"internal_node_id":"0.0-38.0"},{"result":126,"points":3,"place":0,"phase":0,"sequence":19,"prices":[173,191,146,242,178,194,172,152,126,235],"times":[688,546,863,562,511,524,539,547,938],"next_num":9,"trial_type":"ticket-choose","trial_index":39,"time_elapsed":404790,"internal_node_id":"0.0-39.0"},{"result":135,"points":3,"place":0,"phase":0,"sequence":20,"prices":[221,193,135,188,217,179,196,190,175,159],"times":[678,540,1213],"next_num":3,"trial_type":"ticket-choose","trial_index":40,"time_elapsed":409430,"internal_node_id":"0.0-40.0"},{"result":136,"points":2,"place":1,"phase":0,"sequence":21,"prices":[172,190,136,270,179,192,174,152,237,129],"times":[740,557,861],"next_num":3,"trial_type":"ticket-choose","trial_index":41,"time_elapsed":413819,"internal_node_id":"0.0-41.0"},{"result":126,"points":3,"place":0,"phase":0,"sequence":22,"prices":[170,193,176,245,178,194,154,159,236,126],"times":[620,541,501,594,518,549,955,548,632,642],"next_num":10,"trial_type":"ticket-choose","trial_index":42,"time_elapsed":423562,"internal_node_id":"0.0-42.0"},{"result":146,"points":2,"place":1,"phase":0,"sequence":23,"prices":[169,193,146,237,180,196,172,150,129,236],"times":[626,618,1180],"next_num":3,"trial_type":"ticket-choose","trial_index":43,"time_elapsed":428156,"internal_node_id":"0.0-43.0"},{"result":162,"points":1,"place":3,"phase":0,"sequence":24,"prices":[197,153,181,215,150,155,164,247,177,162],"times":[615,571,588,603,1057,844,635,571,634,746],"next_num":10,"trial_type":"ticket-choose","trial_index":44,"time_elapsed":438860,"internal_node_id":"0.0-44.0"},{"result":146,"points":2,"place":1,"phase":0,"sequence":25,"prices":[171,191,172,268,179,194,146,150,127,239],"times":[661,540,540,571,548,603,955],"next_num":7,"trial_type":"ticket-choose","trial_index":45,"time_elapsed":446250,"internal_node_id":"0.0-45.0"},{"result":126,"points":3,"place":0,"phase":0,"sequence":26,"prices":[169,193,154,255,178,194,176,158,239,126],"times":[563,726,642,494,479,549,617,821,634,580],"next_num":10,"trial_type":"ticket-choose","trial_index":46,"time_elapsed":456177,"internal_node_id":"0.0-46.0"},{"result":196,"points":1,"place":4,"phase":0,"sequence":27,"prices":[143,206,153,194,201,267,168,208,210,196],"times":[809,485,689,635,611,674,657,627,632,1002],"next_num":10,"trial_type":"ticket-choose","trial_index":47,"time_elapsed":466749,"internal_node_id":"0.0-47.0"},{"result":146,"points":2,"place":1,"phase":0,"sequence":28,"prices":[172,191,176,272,179,194,146,152,126,235],"times":[609,524,527,618,602,1783,1127],"next_num":7,"trial_type":"ticket-choose","trial_index":48,"time_elapsed":475770,"internal_node_id":"0.0-48.0"},{"result":142,"points":3,"place":0,"phase":0,"sequence":29,"prices":[142,207,171,182,190,269,180,218,256,188],"times":[1247],"next_num":1,"trial_type":"ticket-choose","trial_index":49,"time_elapsed":478848,"internal_node_id":"0.0-49.0"},{"result":124,"points":3,"place":0,"phase":0,"sequence":30,"prices":[124,220,136,165,185,234,143,225,228,179],"times":[857],"next_num":1,"trial_type":"ticket-choose","trial_index":50,"time_elapsed":481520,"internal_node_id":"0.0-50.0"},{"result":128,"points":3,"place":0,"phase":0,"sequence":31,"prices":[171,192,136,243,182,195,174,154,236,128],"times":[752,573,861,1049,799,618,508,635,658,665],"next_num":10,"trial_type":"ticket-choose","trial_index":51,"time_elapsed":492560,"internal_node_id":"0.0-51.0"},{"result":136,"points":2,"place":1,"phase":0,"sequence":32,"prices":[170,192,174,242,181,196,136,153,236,128],"times":[3076,666,515,618,658,582,881],"next_num":7,"trial_type":"ticket-choose","trial_index":52,"time_elapsed":502655,"internal_node_id":"0.0-52.0"},{"result":124,"points":3,"place":0,"phase":0,"sequence":33,"prices":[216,206,158,145,224,185,124,149,175,162],"times":[1237,517,634,774,556,626,968],"next_num":7,"trial_type":"ticket-choose","trial_index":53,"time_elapsed":511058,"internal_node_id":"0.0-53.0"},{"result":125,"points":3,"place":0,"phase":0,"sequence":34,"prices":[169,192,176,244,178,194,154,159,237,125],"times":[660,569,510,603,547,549,868,680,611,765],"next_num":10,"trial_type":"ticket-choose","trial_index":54,"time_elapsed":521060,"internal_node_id":"0.0-54.0"},{"result":136,"points":2,"place":1,"phase":0,"sequence":35,"prices":[173,194,136,239,182,200,174,150,236,127],"times":[530,540,978],"next_num":3,"trial_type":"ticket-choose","trial_index":55,"time_elapsed":525356,"internal_node_id":"0.0-55.0"},{"result":124,"points":3,"place":0,"phase":0,"sequence":36,"prices":[219,183,227,124,176,161,140,129,171,201],"times":[628,564,1212,913],"next_num":4,"trial_type":"ticket-choose","trial_index":56,"time_elapsed":531029,"internal_node_id":"0.0-56.0"},{"result":146,"points":2,"place":1,"phase":0,"sequence":37,"prices":[168,191,172,240,183,193,146,151,125,238],"times":[591,540,555,588,618,611,1446],"next_num":7,"trial_type":"ticket-choose","trial_index":57,"time_elapsed":539044,"internal_node_id":"0.0-57.0"},{"result":146,"points":2,"place":1,"phase":0,"sequence":38,"prices":[170,193,146,268,178,195,172,149,126,241],"times":[484,540,1102],"next_num":3,"trial_type":"ticket-choose","trial_index":58,"time_elapsed":543305,"internal_node_id":"0.0-58.0"},{"result":126,"points":3,"place":0,"phase":0,"sequence":39,"prices":[168,191,146,252,183,193,172,153,126,238],"times":[509,516,862,554,588,556,610,650,915],"next_num":9,"trial_type":"ticket-choose","trial_index":59,"time_elapsed":552459,"internal_node_id":"0.0-59.0"},{"result":121,"points":3,"place":0,"phase":0,"sequence":40,"prices":[121,191,128,141,166,217,129,196,202,157],"times":[861],"next_num":1,"trial_type":"ticket-choose","trial_index":60,"time_elapsed":554980,"internal_node_id":"0.0-60.0"},{"result":130,"points":2,"place":1,"phase":0,"sequence":41,"prices":[181,130,116,142,157,193,165,218,173,207],"times":[705,992],"next_num":2,"trial_type":"ticket-choose","trial_index":61,"time_elapsed":558606,"internal_node_id":"0.0-61.0"},{"result":159,"points":1,"place":2,"phase":0,"sequence":42,"prices":[244,203,196,189,154,206,197,149,171,159],"times":[673,587,619,572,790,586,572,1018,657,735],"next_num":10,"trial_type":"ticket-choose","trial_index":62,"time_elapsed":569028,"internal_node_id":"0.0-62.0"},{"result":131,"points":2,"place":1,"phase":0,"sequence":43,"prices":[221,234,131,136,132,149,154,90,176,173],"times":[602,580,971],"next_num":3,"trial_type":"ticket-choose","trial_index":63,"time_elapsed":573292,"internal_node_id":"0.0-63.0"},{"result":133,"points":3,"place":0,"phase":0,"sequence":44,"prices":[169,191,154,268,183,197,176,155,236,133],"times":[553,524,509,535,585,540,570,667,892,705],"next_num":10,"trial_type":"ticket-choose","trial_index":64,"time_elapsed":583137,"internal_node_id":"0.0-64.0"},{"result":114,"points":3,"place":0,"phase":0,"sequence":45,"prices":[182,249,159,114,184,205,175,189,172,178],"times":[925,565,611,986],"next_num":4,"trial_type":"ticket-choose","trial_index":65,"time_elapsed":588582,"internal_node_id":"0.0-65.0"},{"result":116,"points":3,"place":0,"phase":0,"sequence":46,"prices":[186,146,191,179,152,116,140,201,172,187],"times":[587,1321,516,501,557,908],"next_num":6,"trial_type":"ticket-choose","trial_index":66,"time_elapsed":595832,"internal_node_id":"0.0-66.0"},{"result":105,"points":3,"place":0,"phase":0,"sequence":47,"prices":[263,165,224,214,105,230,215,185,177,193],"times":[603,619,588,845,1079],"next_num":5,"trial_type":"ticket-choose","trial_index":67,"time_elapsed":602442,"internal_node_id":"0.0-67.0"},{"result":132,"points":3,"place":0,"phase":0,"sequence":48,"prices":[168,192,176,242,183,197,154,156,237,132],"times":[981,580,503,538,579,549,829,838,673,651],"next_num":10,"trial_type":"ticket-choose","trial_index":68,"time_elapsed":612902,"internal_node_id":"0.0-68.0"},{"result":135,"points":3,"place":0,"phase":0,"sequence":49,"prices":[135,202,150,169,183,225,160,211,220,172],"times":[1164],"next_num":1,"trial_type":"ticket-choose","trial_index":69,"time_elapsed":615800,"internal_node_id":"0.0-69.0"},{"responses":[{"value":0,"offby":-1,"category":"$90 - $120","category_index":0},{"value":2,"offby":-1,"category":"$121 - $145","category_index":1},{"value":5,"offby":2,"category":"$146 - $170","category_index":2},{"value":6,"offby":0,"category":"$171 - $195","category_index":3},{"value":5,"offby":1,"category":"$196 - $220","category_index":4},{"value":2,"offby":0,"category":"$221 - $245","category_index":5},{"value":0,"offby":-1,"category":"$246 - $270","category_index":6}],"phase":0,"number":1,"trial_type":"bar-choose","trial_index":70,"time_elapsed":653089,"internal_node_id":"0.0-70.0"},{"rt":9202,"url":"\/tickets\/utils\/start2.html","trial_type":"html","trial_index":71,"time_elapsed":663394,"internal_node_id":"0.0-71.0"},{"trial_type":"number-animation","trial_index":72,"time_elapsed":674136,"internal_node_id":"0.0-72.0"},{"phase":1,"sequence":0,"avg":181,"response":165,"trial_type":"training_avg","trial_index":73,"time_elapsed":680010,"internal_node_id":"0.0-73.0"},{"trial_type":"number-animation","trial_index":74,"time_elapsed":691150,"internal_node_id":"0.0-74.0"},{"phase":1,"sequence":1,"avg":188,"response":185,"trial_type":"training_avg","trial_index":75,"time_elapsed":698634,"internal_node_id":"0.0-75.0"},{"trial_type":"number-animation","trial_index":76,"time_elapsed":709548,"internal_node_id":"0.0-76.0"},{"phase":1,"sequence":2,"avg":188,"response":188,"trial_type":"training_avg","trial_index":77,"time_elapsed":715166,"internal_node_id":"0.0-77.0"},{"trial_type":"number-animation","trial_index":78,"time_elapsed":728751,"internal_node_id":"0.0-78.0"},{"phase":1,"sequence":3,"avg":177,"response":175,"trial_type":"training_avg","trial_index":79,"time_elapsed":733867,"internal_node_id":"0.0-79.0"},{"trial_type":"number-animation","trial_index":80,"time_elapsed":743977,"internal_node_id":"0.0-80.0"},{"phase":1,"sequence":4,"avg":182,"response":175,"trial_type":"training_avg","trial_index":81,"time_elapsed":749773,"internal_node_id":"0.0-81.0"},{"responses":[{"value":0,"offby":0,"category":"$106 - $134","category_index":0},{"value":2,"offby":1,"category":"$135 - $150","category_index":1},{"value":3,"offby":0,"category":"$151 - $165","category_index":2},{"value":4,"offby":-2,"category":"$166 - $180","category_index":3},{"value":6,"offby":0,"category":"$181 - $195","category_index":4},{"value":3,"offby":0,"category":"$196 - $210","category_index":5},{"value":2,"offby":1,"category":"$211 - $225","category_index":6}],"phase":1,"number":0,"trial_type":"bar-choose","trial_index":82,"time_elapsed":784228,"internal_node_id":"0.0-82.0"},{"rt":8048,"url":"\/tickets\/utils\/testing2.html","trial_type":"html","trial_index":83,"time_elapsed":793375,"internal_node_id":"0.0-83.0"},{"phase":1,"order":[20,28,25,36,16,35,11,27,5,8,46,33,13,23,38,40,22,31,44,0,43,19,15,1,39,7,10,32,4,24,26,17,21,37,14,18,47,6,3,2,29,34,45,41,9,48,49,42,12,30],"trial_type":"store_order","trial_index":84,"time_elapsed":794377,"internal_node_id":"0.0-84.0"},{"result":169,"points":1,"place":2,"phase":1,"sequence":0,"prices":[175,186,167,225,179,187,178,169,209,153],"times":[1110,564,572,555,564,548,589,1524],"next_num":8,"trial_type":"ticket-choose","trial_index":85,"time_elapsed":803813,"internal_node_id":"0.0-85.0"},{"result":184,"points":1,"place":4,"phase":1,"sequence":1,"prices":[161,193,175,181,185,224,180,199,218,184],"times":[917,526,484,524,539,627,570,729,625,680],"next_num":10,"trial_type":"ticket-choose","trial_index":86,"time_elapsed":813617,"internal_node_id":"0.0-86.0"},{"result":163,"points":2,"place":1,"phase":1,"sequence":2,"prices":[176,186,176,210,179,187,163,166,153,208],"times":[799,603,620,603,541,601,876],"next_num":7,"trial_type":"ticket-choose","trial_index":87,"time_elapsed":821241,"internal_node_id":"0.0-87.0"},{"result":167,"points":2,"place":1,"phase":1,"sequence":3,"prices":[174,186,178,217,181,188,167,168,208,156],"times":[734,612,554,588,548,532,930],"next_num":7,"trial_type":"ticket-choose","trial_index":88,"time_elapsed":828695,"internal_node_id":"0.0-88.0"},{"result":158,"points":2,"place":1,"phase":1,"sequence":4,"prices":[176,187,177,225,181,187,158,165,208,153],"times":[647,517,494,569,612,561,988],"next_num":7,"trial_type":"ticket-choose","trial_index":89,"time_elapsed":836052,"internal_node_id":"0.0-89.0"},{"result":163,"points":3,"place":0,"phase":1,"sequence":5,"prices":[168,199,196,198,185,195,227,163,177,166],"times":[1248,486,508,510,556,501,588,992],"next_num":8,"trial_type":"ticket-choose","trial_index":90,"time_elapsed":844679,"internal_node_id":"0.0-90.0"},{"result":158,"points":2,"place":1,"phase":1,"sequence":6,"prices":[176,185,177,218,180,186,158,166,209,154],"times":[480,584,512,563,516,617,908],"next_num":7,"trial_type":"ticket-choose","trial_index":91,"time_elapsed":851810,"internal_node_id":"0.0-91.0"},{"result":159,"points":1,"place":2,"phase":1,"sequence":7,"prices":[180,159,149,175,185,141,163,174,178,207],"times":[629,929],"next_num":2,"trial_type":"ticket-choose","trial_index":92,"time_elapsed":855335,"internal_node_id":"0.0-92.0"},{"result":157,"points":3,"place":0,"phase":1,"sequence":8,"prices":[157,191,165,175,182,203,170,195,200,176],"times":[926],"next_num":1,"trial_type":"ticket-choose","trial_index":93,"time_elapsed":857952,"internal_node_id":"0.0-93.0"},{"result":158,"points":2,"place":1,"phase":1,"sequence":9,"prices":[176,185,158,217,180,186,177,166,209,154],"times":[601,548,861],"next_num":3,"trial_type":"ticket-choose","trial_index":94,"time_elapsed":862154,"internal_node_id":"0.0-94.0"},{"result":155,"points":2,"place":1,"phase":1,"sequence":10,"prices":[201,207,155,158,156,165,167,135,178,177],"times":[536,497,868],"next_num":3,"trial_type":"ticket-choose","trial_index":95,"time_elapsed":866209,"internal_node_id":"0.0-95.0"},{"result":150,"points":3,"place":0,"phase":1,"sequence":11,"prices":[150,185,154,161,173,199,155,188,191,168],"times":[824],"next_num":1,"trial_type":"ticket-choose","trial_index":96,"time_elapsed":868811,"internal_node_id":"0.0-96.0"},{"result":148,"points":3,"place":0,"phase":1,"sequence":12,"prices":[148,171,150,163,167,220,162,186,187,165],"times":[910],"next_num":1,"trial_type":"ticket-choose","trial_index":97,"time_elapsed":871412,"internal_node_id":"0.0-97.0"},{"result":185,"points":1,"place":4,"phase":1,"sequence":13,"prices":[169,196,170,184,187,211,171,201,202,185],"times":[897,580,548,555,523,547,541,657,626,741],"next_num":10,"trial_type":"ticket-choose","trial_index":98,"time_elapsed":881170,"internal_node_id":"0.0-98.0"},{"result":165,"points":2,"place":1,"phase":1,"sequence":14,"prices":[188,200,165,172,198,174,177,154,177,180],"times":[1007,532,868],"next_num":3,"trial_type":"ticket-choose","trial_index":99,"time_elapsed":885670,"internal_node_id":"0.0-99.0"},{"result":167,"points":2,"place":1,"phase":1,"sequence":15,"prices":[175,185,178,215,181,186,167,168,208,156],"times":[647,549,517,548,525,635,844],"next_num":7,"trial_type":"ticket-choose","trial_index":100,"time_elapsed":892826,"internal_node_id":"0.0-100.0"},{"result":163,"points":2,"place":1,"phase":1,"sequence":16,"prices":[175,186,163,211,179,187,176,165,153,210],"times":[554,540,867],"next_num":3,"trial_type":"ticket-choose","trial_index":101,"time_elapsed":896990,"internal_node_id":"0.0-101.0"},{"result":158,"points":3,"place":0,"phase":1,"sequence":17,"prices":[210,184,226,193,215,158,199,175,176,208],"times":[578,563,549,542,615,970],"next_num":6,"trial_type":"ticket-choose","trial_index":102,"time_elapsed":903584,"internal_node_id":"0.0-102.0"},{"result":163,"points":2,"place":1,"phase":1,"sequence":18,"prices":[175,187,176,209,180,188,163,165,154,208],"times":[684,548,610,573,517,618,855],"next_num":7,"trial_type":"ticket-choose","trial_index":103,"time_elapsed":911052,"internal_node_id":"0.0-103.0"},{"result":167,"points":2,"place":1,"phase":1,"sequence":19,"prices":[175,185,167,224,181,186,178,168,208,156],"times":[570,580,853],"next_num":3,"trial_type":"ticket-choose","trial_index":104,"time_elapsed":915294,"internal_node_id":"0.0-104.0"},{"result":147,"points":3,"place":0,"phase":1,"sequence":20,"prices":[181,215,169,147,182,193,177,184,176,179],"times":[581,540,798,986],"next_num":4,"trial_type":"ticket-choose","trial_index":105,"time_elapsed":920520,"internal_node_id":"0.0-105.0"},{"result":155,"points":2,"place":1,"phase":1,"sequence":21,"prices":[181,155,148,161,168,187,172,199,176,194],"times":[595,831],"next_num":2,"trial_type":"ticket-choose","trial_index":106,"time_elapsed":923840,"internal_node_id":"0.0-106.0"},{"result":158,"points":2,"place":1,"phase":1,"sequence":22,"prices":[175,186,158,209,181,188,177,167,208,154],"times":[655,527,845],"next_num":3,"trial_type":"ticket-choose","trial_index":107,"time_elapsed":927998,"internal_node_id":"0.0-107.0"},{"result":152,"points":3,"place":0,"phase":1,"sequence":23,"prices":[200,181,203,152,175,171,160,154,176,191],"times":[663,541,555,839],"next_num":4,"trial_type":"ticket-choose","trial_index":108,"time_elapsed":932912,"internal_node_id":"0.0-108.0"},{"result":186,"points":1,"place":4,"phase":1,"sequence":24,"prices":[168,192,171,178,188,217,172,195,197,186],"times":[589,541,510,508,548,594,573,635,548,611],"next_num":10,"trial_type":"ticket-choose","trial_index":109,"time_elapsed":942082,"internal_node_id":"0.0-109.0"},{"result":163,"points":2,"place":1,"phase":1,"sequence":25,"prices":[175,186,176,224,179,187,163,165,153,210],"times":[656,534,533,579,564,571,923],"next_num":7,"trial_type":"ticket-choose","trial_index":110,"time_elapsed":949450,"internal_node_id":"0.0-110.0"},{"result":157,"points":3,"place":0,"phase":1,"sequence":26,"prices":[201,187,157,184,198,179,188,185,178,170],"times":[662,626,853],"next_num":3,"trial_type":"ticket-choose","trial_index":111,"time_elapsed":953708,"internal_node_id":"0.0-111.0"},{"result":159,"points":3,"place":0,"phase":1,"sequence":27,"prices":[159,183,166,168,173,205,167,187,191,170],"times":[817],"next_num":1,"trial_type":"ticket-choose","trial_index":112,"time_elapsed":956184,"internal_node_id":"0.0-112.0"},{"result":143,"points":3,"place":0,"phase":1,"sequence":28,"prices":[222,173,202,197,143,205,198,183,178,186],"times":[577,515,477,516,863],"next_num":5,"trial_type":"ticket-choose","trial_index":113,"time_elapsed":961606,"internal_node_id":"0.0-113.0"},{"result":167,"points":2,"place":1,"phase":1,"sequence":29,"prices":[175,187,178,209,179,187,167,169,208,153],"times":[1017,470,484,542,503,570,883],"next_num":7,"trial_type":"ticket-choose","trial_index":114,"time_elapsed":969020,"internal_node_id":"0.0-114.0"},{"result":158,"points":2,"place":1,"phase":1,"sequence":30,"prices":[176,187,158,210,181,187,177,165,208,153],"times":[710,486,877],"next_num":3,"trial_type":"ticket-choose","trial_index":115,"time_elapsed":973308,"internal_node_id":"0.0-115.0"},{"result":152,"points":3,"place":0,"phase":1,"sequence":31,"prices":[152,200,158,173,182,207,161,202,204,180],"times":[815],"next_num":1,"trial_type":"ticket-choose","trial_index":116,"time_elapsed":975926,"internal_node_id":"0.0-116.0"},{"result":167,"points":2,"place":1,"phase":1,"sequence":32,"prices":[212,192,188,184,167,193,189,164,176,170],"times":[620,535,533,523,922],"next_num":5,"trial_type":"ticket-choose","trial_index":117,"time_elapsed":981707,"internal_node_id":"0.0-117.0"},{"result":163,"points":2,"place":1,"phase":1,"sequence":33,"prices":[176,186,163,214,179,187,176,166,153,208],"times":[612,540,954],"next_num":3,"trial_type":"ticket-choose","trial_index":118,"time_elapsed":986027,"internal_node_id":"0.0-118.0"},{"result":167,"points":2,"place":1,"phase":1,"sequence":34,"prices":[189,167,180,197,165,168,172,213,178,171],"times":[653,1024],"next_num":2,"trial_type":"ticket-choose","trial_index":119,"time_elapsed":989770,"internal_node_id":"0.0-119.0"},{"result":167,"points":2,"place":1,"phase":1,"sequence":35,"prices":[174,186,167,211,181,188,178,168,208,156],"times":[726,626,1011],"next_num":3,"trial_type":"ticket-choose","trial_index":120,"time_elapsed":994316,"internal_node_id":"0.0-120.0"},{"result":163,"points":2,"place":1,"phase":1,"sequence":36,"prices":[174,186,163,212,181,187,176,166,153,209],"times":[649,531,877],"next_num":3,"trial_type":"ticket-choose","trial_index":121,"time_elapsed":998597,"internal_node_id":"0.0-121.0"},{"result":167,"points":2,"place":1,"phase":1,"sequence":37,"prices":[175,186,178,212,179,187,167,169,209,153],"times":[600,572,532,587,525,494,906],"next_num":7,"trial_type":"ticket-choose","trial_index":122,"time_elapsed":1005738,"internal_node_id":"0.0-122.0"},{"result":158,"points":2,"place":1,"phase":1,"sequence":38,"prices":[175,186,177,209,181,188,158,167,208,154],"times":[591,501,485,502,475,509,915],"next_num":7,"trial_type":"ticket-choose","trial_index":123,"time_elapsed":1012729,"internal_node_id":"0.0-123.0"},{"result":158,"points":2,"place":1,"phase":1,"sequence":39,"prices":[175,186,158,211,180,187,177,166,209,153],"times":[556,571,876],"next_num":3,"trial_type":"ticket-choose","trial_index":124,"time_elapsed":1016877,"internal_node_id":"0.0-124.0"},{"result":153,"points":3,"place":0,"phase":1,"sequence":40,"prices":[175,187,167,212,179,187,178,169,208,153],"times":[996,613,476,814,1117,602,541,939,572,604],"next_num":10,"trial_type":"ticket-choose","trial_index":125,"time_elapsed":1028238,"internal_node_id":"0.0-125.0"},{"result":158,"points":2,"place":1,"phase":1,"sequence":41,"prices":[175,186,177,221,180,187,158,166,209,153],"times":[534,589,572,619,569,532,854],"next_num":7,"trial_type":"ticket-choose","trial_index":126,"time_elapsed":1035575,"internal_node_id":"0.0-126.0"},{"result":163,"points":2,"place":1,"phase":1,"sequence":42,"prices":[175,187,163,209,180,188,176,165,154,208],"times":[583,517,1056],"next_num":3,"trial_type":"ticket-choose","trial_index":127,"time_elapsed":1039856,"internal_node_id":"0.0-127.0"},{"result":154,"points":2,"place":1,"phase":1,"sequence":43,"prices":[168,154,172,185,195,144,184,211,177,227],"times":[744,853],"next_num":2,"trial_type":"ticket-choose","trial_index":128,"time_elapsed":1043337,"internal_node_id":"0.0-128.0"},{"result":150,"points":3,"place":0,"phase":1,"sequence":44,"prices":[189,150,175,160,188,207,158,194,178,199],"times":[607,791],"next_num":2,"trial_type":"ticket-choose","trial_index":129,"time_elapsed":1046620,"internal_node_id":"0.0-129.0"},{"result":161,"points":3,"place":0,"phase":1,"sequence":45,"prices":[161,193,167,187,190,224,174,194,195,188],"times":[1136],"next_num":1,"trial_type":"ticket-choose","trial_index":130,"time_elapsed":1049448,"internal_node_id":"0.0-130.0"},{"result":163,"points":1,"place":2,"phase":1,"sequence":46,"prices":[183,163,185,180,166,148,160,186,176,184],"times":[618,807],"next_num":2,"trial_type":"ticket-choose","trial_index":131,"time_elapsed":1052910,"internal_node_id":"0.0-131.0"},{"result":169,"points":1,"place":3,"phase":1,"sequence":47,"prices":[198,193,169,163,202,182,152,164,177,171],"times":[649,548,1079],"next_num":3,"trial_type":"ticket-choose","trial_index":132,"time_elapsed":1057332,"internal_node_id":"0.0-132.0"},{"result":163,"points":2,"place":1,"phase":1,"sequence":48,"prices":[174,186,176,217,181,187,163,166,153,209],"times":[849,532,527,585,549,540,938],"next_num":7,"trial_type":"ticket-choose","trial_index":133,"time_elapsed":1064768,"internal_node_id":"0.0-133.0"},{"result":156,"points":3,"place":0,"phase":1,"sequence":49,"prices":[156,201,162,166,185,214,165,202,204,179],"times":[815],"next_num":1,"trial_type":"ticket-choose","trial_index":134,"time_elapsed":1067276,"internal_node_id":"0.0-134.0"},{"responses":[{"value":0,"offby":0,"category":"$106 - $134","category_index":0},{"value":1,"offby":0,"category":"$135 - $150","category_index":1},{"value":2,"offby":-1,"category":"$151 - $165","category_index":2},{"value":4,"offby":-2,"category":"$166 - $180","category_index":3},{"value":6,"offby":0,"category":"$181 - $195","category_index":4},{"value":4,"offby":1,"category":"$196 - $210","category_index":5},{"value":3,"offby":2,"category":"$211 - $225","category_index":6}],"phase":1,"number":1,"trial_type":"bar-choose","trial_index":135,"time_elapsed":1095783,"internal_node_id":"0.0-135.0"},{"special_comment":"Notreally, no","trial_type":"special_sequence","trial_index":136,"time_elapsed":1102353,"internal_node_id":"0.0-136.0"},{"during":"Nothing","bonus":304,"trial_type":"final","trial_index":137,"time_elapsed":1125588,"internal_node_id":"0.0-137.0"}],"bonus":304}