{"start_time":"2017-02-22 10:49:06","end_time":"2017-02-22 11:20:09","points_phase0":106,"points_phase1":106,"phase_order":0,"age":31,"gender":"f","tries":1,"during":"Nothing","worker_id":"A1T2162PMSEH0P","assignment_id":"3W8CV64QJ3SMFC4H0435XSG26IL9HL","data":[{"rt":109142,"url":"\/tickets\/utils\/consent.html","trial_type":"html","trial_index":0,"time_elapsed":109220,"internal_node_id":"0.0-0.0"},{"age":31,"gender":"f","trial_type":"age","trial_index":1,"time_elapsed":115222,"internal_node_id":"0.0-1.0"},{"worker_id":"A1T2162PMSEH0P","trial_type":"workerid","trial_index":2,"time_elapsed":124399,"internal_node_id":"0.0-2.0"},{"tries":1,"trial_type":"instructions_check","trial_index":3,"time_elapsed":162300,"internal_node_id":"0.0-3.0"},{"rt":18880,"url":"\/tickets\/utils\/start.html","trial_type":"html","trial_index":4,"time_elapsed":182273,"internal_node_id":"0.0-4.0"},{"trial_type":"number-animation","trial_index":5,"time_elapsed":216276,"internal_node_id":"0.0-5.0"},{"phase":0,"sequence":0,"avg":181,"response":174,"trial_type":"training_avg","trial_index":6,"time_elapsed":230918,"internal_node_id":"0.0-6.0"},{"trial_type":"number-animation","trial_index":7,"time_elapsed":256911,"internal_node_id":"0.0-7.0"},{"phase":0,"sequence":1,"avg":188,"response":188,"trial_type":"training_avg","trial_index":8,"time_elapsed":266438,"internal_node_id":"0.0-8.0"},{"trial_type":"number-animation","trial_index":9,"time_elapsed":291459,"internal_node_id":"0.0-9.0"},{"phase":0,"sequence":2,"avg":188,"response":180,"trial_type":"training_avg","trial_index":10,"time_elapsed":301005,"internal_node_id":"0.0-10.0"},{"trial_type":"number-animation","trial_index":11,"time_elapsed":334643,"internal_node_id":"0.0-11.0"},{"phase":0,"sequence":3,"avg":177,"response":168,"trial_type":"training_avg","trial_index":12,"time_elapsed":343112,"internal_node_id":"0.0-12.0"},{"trial_type":"number-animation","trial_index":13,"time_elapsed":386721,"internal_node_id":"0.0-13.0"},{"phase":0,"sequence":4,"avg":182,"response":177,"trial_type":"training_avg","trial_index":14,"time_elapsed":393168,"internal_node_id":"0.0-14.0"},{"responses":[{"value":0,"offby":0,"category":"$106 - $134","category_index":0},{"value":2,"offby":1,"category":"$135 - $150","category_index":1},{"value":3,"offby":0,"category":"$151 - $165","category_index":2},{"value":5,"offby":-1,"category":"$166 - $180","category_index":3},{"value":8,"offby":2,"category":"$181 - $195","category_index":4},{"value":1,"offby":-2,"category":"$196 - $210","category_index":5},{"value":1,"offby":0,"category":"$211 - $225","category_index":6}],"phase":0,"number":0,"trial_type":"bar-choose","trial_index":15,"time_elapsed":489198,"internal_node_id":"0.0-15.0"},{"rt":16815,"url":"\/tickets\/\/utils\/testing.html","trial_type":"html","trial_index":16,"time_elapsed":507115,"internal_node_id":"0.0-16.0"},{"phase":0,"order":[35,25,48,9,11,13,10,33,24,12,14,31,38,21,0,17,5,27,3,44,29,39,19,28,8,1,41,30,34,37,40,4,26,18,36,16,20,32,45,22,47,23,49,2,7,42,43,46,6,15],"trial_type":"store_order","trial_index":17,"time_elapsed":508117,"internal_node_id":"0.0-17.0"},{"result":126,"points":3,"place":0,"phase":0,"sequence":-1,"prices":[184,180,224,165,181,199,185,193,218,126],"times":[3558,2165,1188,2400,1210,1082,1933,1052,1026,3037],"next_num":10,"trial_type":"ticket-choose","trial_index":18,"time_elapsed":531229,"internal_node_id":"0.0-18.0"},{"rt":48217,"url":"\/tickets\/utils\/testing_after.html","trial_type":"html","trial_index":19,"time_elapsed":580541,"internal_node_id":"0.0-19.0"},{"result":154,"points":2,"place":1,"phase":0,"sequence":0,"prices":[168,154,172,185,195,144,184,211,177,227],"times":[2643,5650],"next_num":2,"trial_type":"ticket-choose","trial_index":20,"time_elapsed":592552,"internal_node_id":"0.0-20.0"},{"result":179,"points":1,"place":4,"phase":0,"sequence":1,"prices":[156,201,162,166,185,214,165,202,204,179],"times":[1578,710,1000,752,797,675,724,918,917,1121],"next_num":10,"trial_type":"ticket-choose","trial_index":21,"time_elapsed":606353,"internal_node_id":"0.0-21.0"},{"result":169,"points":2,"place":1,"phase":0,"sequence":2,"prices":[181,215,169,147,182,193,177,184,176,179],"times":[1433,787,2275],"next_num":3,"trial_type":"ticket-choose","trial_index":22,"time_elapsed":613961,"internal_node_id":"0.0-22.0"},{"result":168,"points":1,"place":2,"phase":0,"sequence":3,"prices":[175,185,167,224,181,186,178,168,208,156],"times":[1482,763,679,633,743,615,2027,1729],"next_num":8,"trial_type":"ticket-choose","trial_index":23,"time_elapsed":627399,"internal_node_id":"0.0-23.0"},{"result":167,"points":2,"place":1,"phase":0,"sequence":4,"prices":[175,187,167,212,179,187,178,169,208,153],"times":[1972,685,1258],"next_num":3,"trial_type":"ticket-choose","trial_index":24,"time_elapsed":634219,"internal_node_id":"0.0-24.0"},{"result":167,"points":2,"place":1,"phase":0,"sequence":5,"prices":[175,185,178,215,181,186,167,168,208,156],"times":[1375,1030,3438,802,1326,710,1148],"next_num":7,"trial_type":"ticket-choose","trial_index":25,"time_elapsed":647815,"internal_node_id":"0.0-25.0"},{"result":167,"points":2,"place":1,"phase":0,"sequence":6,"prices":[175,186,167,225,179,187,178,169,209,153],"times":[1050,650,4562],"next_num":3,"trial_type":"ticket-choose","trial_index":26,"time_elapsed":656601,"internal_node_id":"0.0-26.0"},{"result":159,"points":3,"place":0,"phase":0,"sequence":7,"prices":[159,183,166,168,173,205,167,187,191,170],"times":[1870],"next_num":1,"trial_type":"ticket-choose","trial_index":27,"time_elapsed":662717,"internal_node_id":"0.0-27.0"},{"result":184,"points":1,"place":4,"phase":0,"sequence":8,"prices":[161,193,175,181,185,224,180,199,218,184],"times":[1492,626,593,610,606,825,831,737,689,1062],"next_num":10,"trial_type":"ticket-choose","trial_index":28,"time_elapsed":675031,"internal_node_id":"0.0-28.0"},{"result":167,"points":2,"place":1,"phase":0,"sequence":9,"prices":[174,186,178,217,181,188,167,168,208,156],"times":[1327,684,673,770,848,873,1094],"next_num":7,"trial_type":"ticket-choose","trial_index":29,"time_elapsed":684525,"internal_node_id":"0.0-29.0"},{"result":167,"points":2,"place":1,"phase":0,"sequence":10,"prices":[175,186,178,212,179,187,167,169,209,153],"times":[2776,751,786,790,740,679,1176],"next_num":7,"trial_type":"ticket-choose","trial_index":30,"time_elapsed":695969,"internal_node_id":"0.0-30.0"},{"result":148,"points":3,"place":0,"phase":0,"sequence":11,"prices":[148,171,150,163,167,220,162,186,187,165],"times":[1635],"next_num":1,"trial_type":"ticket-choose","trial_index":31,"time_elapsed":700593,"internal_node_id":"0.0-31.0"},{"result":163,"points":3,"place":0,"phase":0,"sequence":12,"prices":[168,199,196,198,185,195,227,163,177,166],"times":[4568,644,569,551,605,1145,560,1175],"next_num":8,"trial_type":"ticket-choose","trial_index":32,"time_elapsed":714243,"internal_node_id":"0.0-32.0"},{"result":158,"points":2,"place":1,"phase":0,"sequence":13,"prices":[175,186,177,209,181,188,158,167,208,154],"times":[1688,823,556,676,630,575,1066],"next_num":7,"trial_type":"ticket-choose","trial_index":33,"time_elapsed":724443,"internal_node_id":"0.0-33.0"},{"result":163,"points":2,"place":1,"phase":0,"sequence":14,"prices":[176,186,163,214,179,187,176,166,153,208],"times":[1446,546,1417],"next_num":3,"trial_type":"ticket-choose","trial_index":34,"time_elapsed":730604,"internal_node_id":"0.0-34.0"},{"result":167,"points":1,"place":2,"phase":0,"sequence":15,"prices":[175,186,158,209,181,188,177,167,208,154],"times":[2066,730,490,719,637,599,1234,1027],"next_num":8,"trial_type":"ticket-choose","trial_index":35,"time_elapsed":741810,"internal_node_id":"0.0-35.0"},{"result":163,"points":2,"place":1,"phase":0,"sequence":16,"prices":[175,187,176,209,180,188,163,165,154,208],"times":[918,649,993,694,810,863,1107],"next_num":7,"trial_type":"ticket-choose","trial_index":36,"time_elapsed":751385,"internal_node_id":"0.0-36.0"},{"result":186,"points":1,"place":4,"phase":0,"sequence":17,"prices":[168,192,171,178,188,217,172,195,197,186],"times":[1283,723,676,600,669,742,930,706,739,1323],"next_num":10,"trial_type":"ticket-choose","trial_index":37,"time_elapsed":763966,"internal_node_id":"0.0-37.0"},{"result":163,"points":2,"place":1,"phase":0,"sequence":18,"prices":[175,186,163,211,179,187,176,165,153,210],"times":[1619,702,1115],"next_num":3,"trial_type":"ticket-choose","trial_index":38,"time_elapsed":770206,"internal_node_id":"0.0-38.0"},{"result":159,"points":1,"place":2,"phase":0,"sequence":19,"prices":[180,159,149,175,185,141,163,174,178,207],"times":[734,1025],"next_num":2,"trial_type":"ticket-choose","trial_index":39,"time_elapsed":775000,"internal_node_id":"0.0-39.0"},{"result":150,"points":3,"place":0,"phase":0,"sequence":20,"prices":[150,185,154,161,173,199,155,188,191,168],"times":[2747],"next_num":1,"trial_type":"ticket-choose","trial_index":40,"time_elapsed":780457,"internal_node_id":"0.0-40.0"},{"result":165,"points":3,"place":0,"phase":0,"sequence":21,"prices":[189,167,180,197,165,168,172,213,178,171],"times":[809,1260,669,755,1076],"next_num":5,"trial_type":"ticket-choose","trial_index":41,"time_elapsed":788538,"internal_node_id":"0.0-41.0"},{"result":158,"points":2,"place":1,"phase":0,"sequence":22,"prices":[176,185,158,217,180,186,177,166,209,154],"times":[936,697,1175],"next_num":3,"trial_type":"ticket-choose","trial_index":42,"time_elapsed":794273,"internal_node_id":"0.0-42.0"},{"result":185,"points":1,"place":4,"phase":0,"sequence":23,"prices":[169,196,170,184,187,211,171,201,202,185],"times":[1782,838,625,1818,579,740,815,745,755,818],"next_num":10,"trial_type":"ticket-choose","trial_index":43,"time_elapsed":807804,"internal_node_id":"0.0-43.0"},{"result":167,"points":2,"place":1,"phase":0,"sequence":24,"prices":[174,186,167,211,181,188,178,168,208,156],"times":[2074,1415,2093],"next_num":3,"trial_type":"ticket-choose","trial_index":44,"time_elapsed":816348,"internal_node_id":"0.0-44.0"},{"result":163,"points":2,"place":1,"phase":0,"sequence":25,"prices":[175,187,163,209,180,188,176,165,154,208],"times":[850,1435,1654],"next_num":3,"trial_type":"ticket-choose","trial_index":45,"time_elapsed":822632,"internal_node_id":"0.0-45.0"},{"result":155,"points":2,"place":1,"phase":0,"sequence":26,"prices":[201,207,155,158,156,165,167,135,178,177],"times":[1029,1134,1519],"next_num":3,"trial_type":"ticket-choose","trial_index":46,"time_elapsed":828936,"internal_node_id":"0.0-46.0"},{"result":157,"points":3,"place":0,"phase":0,"sequence":27,"prices":[157,191,165,175,182,203,170,195,200,176],"times":[1866],"next_num":1,"trial_type":"ticket-choose","trial_index":47,"time_elapsed":833208,"internal_node_id":"0.0-47.0"},{"result":155,"points":2,"place":1,"phase":0,"sequence":28,"prices":[181,155,148,161,168,187,172,199,176,194],"times":[1065,1115],"next_num":2,"trial_type":"ticket-choose","trial_index":48,"time_elapsed":837906,"internal_node_id":"0.0-48.0"},{"result":163,"points":2,"place":1,"phase":0,"sequence":29,"prices":[198,193,169,163,202,182,152,164,177,171],"times":[596,576,1676,1097],"next_num":4,"trial_type":"ticket-choose","trial_index":49,"time_elapsed":844443,"internal_node_id":"0.0-49.0"},{"result":150,"points":3,"place":0,"phase":0,"sequence":30,"prices":[189,150,175,160,188,207,158,194,178,199],"times":[905,1033],"next_num":2,"trial_type":"ticket-choose","trial_index":50,"time_elapsed":849140,"internal_node_id":"0.0-50.0"},{"result":163,"points":2,"place":1,"phase":0,"sequence":31,"prices":[176,186,176,210,179,187,163,166,153,208],"times":[1090,594,784,758,815,781,1134],"next_num":7,"trial_type":"ticket-choose","trial_index":51,"time_elapsed":858702,"internal_node_id":"0.0-51.0"},{"result":152,"points":3,"place":0,"phase":0,"sequence":32,"prices":[152,200,158,173,182,207,161,202,204,180],"times":[5745],"next_num":1,"trial_type":"ticket-choose","trial_index":52,"time_elapsed":866892,"internal_node_id":"0.0-52.0"},{"result":158,"points":2,"place":1,"phase":0,"sequence":33,"prices":[176,187,158,210,181,187,177,165,208,153],"times":[5695,859,1225],"next_num":3,"trial_type":"ticket-choose","trial_index":53,"time_elapsed":877286,"internal_node_id":"0.0-53.0"},{"result":165,"points":2,"place":1,"phase":0,"sequence":34,"prices":[188,200,165,172,198,174,177,154,177,180],"times":[938,773,1508],"next_num":3,"trial_type":"ticket-choose","trial_index":54,"time_elapsed":883048,"internal_node_id":"0.0-54.0"},{"result":158,"points":2,"place":1,"phase":0,"sequence":35,"prices":[175,186,158,211,180,187,177,166,209,153],"times":[816,592,959],"next_num":3,"trial_type":"ticket-choose","trial_index":55,"time_elapsed":888114,"internal_node_id":"0.0-55.0"},{"result":158,"points":2,"place":1,"phase":0,"sequence":36,"prices":[175,186,177,221,180,187,158,166,209,153],"times":[1220,609,543,730,699,696,1431],"next_num":7,"trial_type":"ticket-choose","trial_index":56,"time_elapsed":897586,"internal_node_id":"0.0-56.0"},{"result":174,"points":1,"place":2,"phase":0,"sequence":37,"prices":[161,193,167,187,190,224,174,194,195,188],"times":[2505,811,879,667,812,749,1363],"next_num":7,"trial_type":"ticket-choose","trial_index":57,"time_elapsed":908796,"internal_node_id":"0.0-57.0"},{"result":164,"points":3,"place":0,"phase":0,"sequence":38,"prices":[212,192,188,184,167,193,189,164,176,170],"times":[2120,996,1086,744,2316,1084,654,1235],"next_num":8,"trial_type":"ticket-choose","trial_index":58,"time_elapsed":922756,"internal_node_id":"0.0-58.0"},{"result":158,"points":2,"place":1,"phase":0,"sequence":39,"prices":[176,187,177,225,181,187,158,165,208,153],"times":[3943,1531,717,862,758,855,1426],"next_num":7,"trial_type":"ticket-choose","trial_index":59,"time_elapsed":936725,"internal_node_id":"0.0-59.0"},{"result":152,"points":3,"place":0,"phase":0,"sequence":40,"prices":[200,181,203,152,175,171,160,154,176,191],"times":[1598,836,1202,1029],"next_num":4,"trial_type":"ticket-choose","trial_index":60,"time_elapsed":944437,"internal_node_id":"0.0-60.0"},{"result":158,"points":2,"place":1,"phase":0,"sequence":41,"prices":[176,185,177,218,180,186,158,166,209,154],"times":[4430,913,592,907,2268,733,1128],"next_num":7,"trial_type":"ticket-choose","trial_index":61,"time_elapsed":958881,"internal_node_id":"0.0-61.0"},{"result":148,"points":3,"place":0,"phase":0,"sequence":42,"prices":[183,163,185,180,166,148,160,186,176,184],"times":[1513,2114,619,594,665,1080],"next_num":6,"trial_type":"ticket-choose","trial_index":62,"time_elapsed":968900,"internal_node_id":"0.0-62.0"},{"result":163,"points":2,"place":1,"phase":0,"sequence":43,"prices":[174,186,163,212,181,187,176,166,153,209],"times":[977,697,1799],"next_num":3,"trial_type":"ticket-choose","trial_index":63,"time_elapsed":975479,"internal_node_id":"0.0-63.0"},{"result":163,"points":2,"place":1,"phase":0,"sequence":44,"prices":[175,186,176,224,179,187,163,165,153,210],"times":[710,705,672,697,1344,730,1137],"next_num":7,"trial_type":"ticket-choose","trial_index":64,"time_elapsed":985040,"internal_node_id":"0.0-64.0"},{"result":143,"points":3,"place":0,"phase":0,"sequence":45,"prices":[222,173,202,197,143,205,198,183,178,186],"times":[1372,932,1159,590,1101],"next_num":5,"trial_type":"ticket-choose","trial_index":65,"time_elapsed":993371,"internal_node_id":"0.0-65.0"},{"result":157,"points":3,"place":0,"phase":0,"sequence":46,"prices":[201,187,157,184,198,179,188,185,178,170],"times":[890,1133,1145],"next_num":3,"trial_type":"ticket-choose","trial_index":66,"time_elapsed":999601,"internal_node_id":"0.0-66.0"},{"result":158,"points":3,"place":0,"phase":0,"sequence":47,"prices":[210,184,226,193,215,158,199,175,176,208],"times":[1081,774,841,704,605,1053],"next_num":6,"trial_type":"ticket-choose","trial_index":67,"time_elapsed":1007951,"internal_node_id":"0.0-67.0"},{"result":163,"points":2,"place":1,"phase":0,"sequence":48,"prices":[174,186,176,217,181,187,163,166,153,209],"times":[693,590,633,583,603,573,1161],"next_num":7,"trial_type":"ticket-choose","trial_index":68,"time_elapsed":1016227,"internal_node_id":"0.0-68.0"},{"result":167,"points":2,"place":1,"phase":0,"sequence":49,"prices":[175,187,178,209,179,187,167,169,208,153],"times":[1059,585,877,760,793,859,1464],"next_num":7,"trial_type":"ticket-choose","trial_index":69,"time_elapsed":1025995,"internal_node_id":"0.0-69.0"},{"responses":[{"value":0,"offby":0,"category":"$106 - $134","category_index":0},{"value":2,"offby":1,"category":"$135 - $150","category_index":1},{"value":3,"offby":0,"category":"$151 - $165","category_index":2},{"value":6,"offby":0,"category":"$166 - $180","category_index":3},{"value":5,"offby":-1,"category":"$181 - $195","category_index":4},{"value":3,"offby":0,"category":"$196 - $210","category_index":5},{"value":1,"offby":0,"category":"$211 - $225","category_index":6}],"phase":0,"number":1,"trial_type":"bar-choose","trial_index":70,"time_elapsed":1134161,"internal_node_id":"0.0-70.0"},{"rt":8325,"url":"\/tickets\/utils\/start2.html","trial_type":"html","trial_index":71,"time_elapsed":1143585,"internal_node_id":"0.0-71.0"},{"trial_type":"number-animation","trial_index":72,"time_elapsed":1160873,"internal_node_id":"0.0-72.0"},{"phase":1,"sequence":0,"avg":182,"response":168,"trial_type":"training_avg","trial_index":73,"time_elapsed":1169027,"internal_node_id":"0.0-73.0"},{"trial_type":"number-animation","trial_index":74,"time_elapsed":1188333,"internal_node_id":"0.0-74.0"},{"phase":1,"sequence":1,"avg":188,"response":181,"trial_type":"training_avg","trial_index":75,"time_elapsed":1195469,"internal_node_id":"0.0-75.0"},{"trial_type":"number-animation","trial_index":76,"time_elapsed":1210856,"internal_node_id":"0.0-76.0"},{"phase":1,"sequence":2,"avg":176,"response":168,"trial_type":"training_avg","trial_index":77,"time_elapsed":1217942,"internal_node_id":"0.0-77.0"},{"trial_type":"number-animation","trial_index":78,"time_elapsed":1236269,"internal_node_id":"0.0-78.0"},{"phase":1,"sequence":3,"avg":180,"response":182,"trial_type":"training_avg","trial_index":79,"time_elapsed":1244712,"internal_node_id":"0.0-79.0"},{"trial_type":"number-animation","trial_index":80,"time_elapsed":1258567,"internal_node_id":"0.0-80.0"},{"phase":1,"sequence":4,"avg":174,"response":179,"trial_type":"training_avg","trial_index":81,"time_elapsed":1265375,"internal_node_id":"0.0-81.0"},{"responses":[{"value":0,"offby":-1,"category":"$90 - $120","category_index":0},{"value":3,"offby":0,"category":"$121 - $145","category_index":1},{"value":2,"offby":-1,"category":"$146 - $170","category_index":2},{"value":6,"offby":0,"category":"$171 - $195","category_index":3},{"value":6,"offby":2,"category":"$196 - $220","category_index":4},{"value":2,"offby":0,"category":"$221 - $245","category_index":5},{"value":1,"offby":0,"category":"$246 - $270","category_index":6}],"phase":1,"number":0,"trial_type":"bar-choose","trial_index":82,"time_elapsed":1326858,"internal_node_id":"0.0-82.0"},{"rt":32449,"url":"\/tickets\/utils\/testing2.html","trial_type":"html","trial_index":83,"time_elapsed":1360405,"internal_node_id":"0.0-83.0"},{"phase":1,"order":[40,2,26,19,5,28,38,3,23,13,22,42,49,32,45,39,33,9,16,15,47,0,1,48,8,34,21,6,31,36,37,44,35,27,4,14,24,30,10,18,17,12,43,46,20,11,25,29,7,41],"trial_type":"store_order","trial_index":84,"time_elapsed":1361407,"internal_node_id":"0.0-84.0"},{"result":119,"points":3,"place":0,"phase":1,"sequence":0,"prices":[198,119,169,141,195,233,136,208,177,217],"times":[1818,1195],"next_num":2,"trial_type":"ticket-choose","trial_index":85,"time_elapsed":1366979,"internal_node_id":"0.0-85.0"},{"result":146,"points":2,"place":1,"phase":1,"sequence":1,"prices":[168,191,146,252,183,193,172,153,126,238],"times":[1620,810,1420],"next_num":3,"trial_type":"ticket-choose","trial_index":86,"time_elapsed":1373449,"internal_node_id":"0.0-86.0"},{"result":124,"points":3,"place":0,"phase":1,"sequence":2,"prices":[124,220,136,165,185,234,143,225,228,179],"times":[1221],"next_num":1,"trial_type":"ticket-choose","trial_index":87,"time_elapsed":1376774,"internal_node_id":"0.0-87.0"},{"result":136,"points":2,"place":1,"phase":1,"sequence":3,"prices":[172,190,136,270,179,192,174,152,237,129],"times":[1103,2045,1154],"next_num":3,"trial_type":"ticket-choose","trial_index":88,"time_elapsed":1383578,"internal_node_id":"0.0-88.0"},{"result":146,"points":2,"place":1,"phase":1,"sequence":4,"prices":[171,195,172,242,179,196,146,150,128,235],"times":[665,623,648,601,577,858,1041],"next_num":7,"trial_type":"ticket-choose","trial_index":89,"time_elapsed":1392112,"internal_node_id":"0.0-89.0"},{"result":159,"points":2,"place":1,"phase":1,"sequence":5,"prices":[157,213,159,187,194,242,161,222,225,189],"times":[1843,617,1779],"next_num":3,"trial_type":"ticket-choose","trial_index":90,"time_elapsed":1398646,"internal_node_id":"0.0-90.0"},{"result":146,"points":3,"place":0,"phase":1,"sequence":6,"prices":[156,218,212,216,191,210,275,146,174,152],"times":[2954,605,654,568,724,623,606,1082],"next_num":8,"trial_type":"ticket-choose","trial_index":91,"time_elapsed":1410210,"internal_node_id":"0.0-91.0"},{"result":149,"points":1,"place":2,"phase":1,"sequence":7,"prices":[170,193,146,268,178,195,172,149,126,241],"times":[1516,596,1390,535,751,629,676,998],"next_num":8,"trial_type":"ticket-choose","trial_index":92,"time_elapsed":1420966,"internal_node_id":"0.0-92.0"},{"result":136,"points":2,"place":1,"phase":1,"sequence":8,"prices":[173,191,174,270,180,193,136,153,239,129],"times":[801,650,899,601,627,709,1102],"next_num":7,"trial_type":"ticket-choose","trial_index":93,"time_elapsed":1429848,"internal_node_id":"0.0-93.0"},{"result":154,"points":2,"place":1,"phase":1,"sequence":9,"prices":[170,190,176,251,183,192,154,157,236,131],"times":[1030,611,604,2294,735,597,1576],"next_num":7,"trial_type":"ticket-choose","trial_index":94,"time_elapsed":1440702,"internal_node_id":"0.0-94.0"},{"result":136,"points":2,"place":1,"phase":1,"sequence":10,"prices":[172,194,174,243,182,193,136,150,237,126],"times":[1181,702,576,912,801,829,977],"next_num":7,"trial_type":"ticket-choose","trial_index":95,"time_elapsed":1449860,"internal_node_id":"0.0-95.0"},{"result":105,"points":3,"place":0,"phase":1,"sequence":11,"prices":[263,165,224,214,105,230,215,185,177,193],"times":[645,2504,860,648,1021],"next_num":5,"trial_type":"ticket-choose","trial_index":96,"time_elapsed":1458513,"internal_node_id":"0.0-96.0"},{"result":116,"points":3,"place":0,"phase":1,"sequence":12,"prices":[186,146,191,179,152,116,140,201,172,187],"times":[882,1071,568,519,1333,979],"next_num":6,"trial_type":"ticket-choose","trial_index":97,"time_elapsed":1466921,"internal_node_id":"0.0-97.0"},{"result":196,"points":1,"place":4,"phase":1,"sequence":13,"prices":[143,206,153,194,201,267,168,208,210,196],"times":[1337,2051,990,580,645,601,977,647,926,874],"next_num":10,"trial_type":"ticket-choose","trial_index":98,"time_elapsed":1480719,"internal_node_id":"0.0-98.0"},{"result":154,"points":2,"place":1,"phase":1,"sequence":14,"prices":[244,203,196,189,154,206,197,149,171,159],"times":[1222,807,674,881,963],"next_num":5,"trial_type":"ticket-choose","trial_index":99,"time_elapsed":1488107,"internal_node_id":"0.0-99.0"},{"result":150,"points":3,"place":0,"phase":1,"sequence":15,"prices":[197,153,181,215,150,155,164,247,177,162],"times":[690,2881,602,661,1465],"next_num":5,"trial_type":"ticket-choose","trial_index":100,"time_elapsed":1497278,"internal_node_id":"0.0-100.0"},{"result":137,"points":3,"place":0,"phase":1,"sequence":16,"prices":[137,187,152,156,166,231,155,194,202,160],"times":[1153],"next_num":1,"trial_type":"ticket-choose","trial_index":101,"time_elapsed":1500337,"internal_node_id":"0.0-101.0"},{"result":154,"points":2,"place":1,"phase":1,"sequence":17,"prices":[169,191,154,268,183,197,176,155,236,133],"times":[1320,696,1816],"next_num":3,"trial_type":"ticket-choose","trial_index":102,"time_elapsed":1506599,"internal_node_id":"0.0-102.0"},{"result":136,"points":2,"place":1,"phase":1,"sequence":18,"prices":[171,192,136,265,180,194,174,152,239,127],"times":[729,602,926],"next_num":3,"trial_type":"ticket-choose","trial_index":103,"time_elapsed":1511507,"internal_node_id":"0.0-103.0"},{"result":154,"points":2,"place":1,"phase":1,"sequence":19,"prices":[170,193,176,245,178,194,154,159,236,126],"times":[633,658,747,733,801,666,1218],"next_num":7,"trial_type":"ticket-choose","trial_index":104,"time_elapsed":1520159,"internal_node_id":"0.0-104.0"},{"result":124,"points":3,"place":0,"phase":1,"sequence":20,"prices":[219,183,227,124,176,161,140,129,171,201],"times":[704,643,654,1060],"next_num":4,"trial_type":"ticket-choose","trial_index":105,"time_elapsed":1525981,"internal_node_id":"0.0-105.0"},{"result":146,"points":2,"place":1,"phase":1,"sequence":21,"prices":[173,191,146,242,178,194,172,152,126,235],"times":[2189,689,1446],"next_num":3,"trial_type":"ticket-choose","trial_index":106,"time_elapsed":1532843,"internal_node_id":"0.0-106.0"},{"result":150,"points":1,"place":2,"phase":1,"sequence":22,"prices":[169,193,146,237,180,196,172,150,129,236],"times":[1044,674,3438,2495,816,650,855,1108],"next_num":8,"trial_type":"ticket-choose","trial_index":107,"time_elapsed":1547502,"internal_node_id":"0.0-107.0"},{"result":114,"points":3,"place":0,"phase":1,"sequence":23,"prices":[182,249,159,114,184,205,175,189,172,178],"times":[717,867,1511,998],"next_num":4,"trial_type":"ticket-choose","trial_index":108,"time_elapsed":1554421,"internal_node_id":"0.0-108.0"},{"result":156,"points":1,"place":2,"phase":1,"sequence":24,"prices":[168,192,154,237,182,196,176,156,235,133],"times":[736,604,1324,545,620,589,556,912],"next_num":8,"trial_type":"ticket-choose","trial_index":109,"time_elapsed":1563859,"internal_node_id":"0.0-109.0"},{"result":130,"points":2,"place":1,"phase":1,"sequence":25,"prices":[181,130,116,142,157,193,165,218,173,207],"times":[837,927],"next_num":2,"trial_type":"ticket-choose","trial_index":110,"time_elapsed":1567759,"internal_node_id":"0.0-110.0"},{"result":136,"points":2,"place":1,"phase":1,"sequence":26,"prices":[170,192,174,242,181,196,136,153,236,128],"times":[690,676,588,689,655,649,978],"next_num":7,"trial_type":"ticket-choose","trial_index":111,"time_elapsed":1575939,"internal_node_id":"0.0-111.0"},{"result":146,"points":2,"place":1,"phase":1,"sequence":27,"prices":[168,191,172,240,183,193,146,151,125,238],"times":[656,627,587,665,662,761,1077],"next_num":7,"trial_type":"ticket-choose","trial_index":112,"time_elapsed":1584197,"internal_node_id":"0.0-112.0"},{"result":117,"points":3,"place":0,"phase":1,"sequence":28,"prices":[117,161,120,147,153,259,144,191,195,149],"times":[1508],"next_num":1,"trial_type":"ticket-choose","trial_index":113,"time_elapsed":1587811,"internal_node_id":"0.0-113.0"},{"result":149,"points":2,"place":1,"phase":1,"sequence":29,"prices":[196,221,149,164,216,167,175,128,176,181],"times":[687,577,918],"next_num":3,"trial_type":"ticket-choose","trial_index":114,"time_elapsed":1592271,"internal_node_id":"0.0-114.0"},{"result":158,"points":1,"place":3,"phase":1,"sequence":30,"prices":[216,206,158,145,224,185,124,149,175,162],"times":[2247,531,2780],"next_num":3,"trial_type":"ticket-choose","trial_index":115,"time_elapsed":1600233,"internal_node_id":"0.0-115.0"},{"result":138,"points":1,"place":2,"phase":1,"sequence":31,"prices":[181,138,118,170,190,101,146,169,175,233],"times":[588,1010],"next_num":2,"trial_type":"ticket-choose","trial_index":116,"time_elapsed":1604155,"internal_node_id":"0.0-116.0"},{"result":155,"points":1,"place":2,"phase":1,"sequence":32,"prices":[155,129,164,189,210,108,187,241,174,275],"times":[1310],"next_num":1,"trial_type":"ticket-choose","trial_index":117,"time_elapsed":1607376,"internal_node_id":"0.0-117.0"},{"result":192,"points":1,"place":4,"phase":1,"sequence":33,"prices":[157,205,161,175,197,254,165,210,214,192],"times":[1048,562,697,885,595,871,1080,631,683,941],"next_num":10,"trial_type":"ticket-choose","trial_index":118,"time_elapsed":1619371,"internal_node_id":"0.0-118.0"},{"result":146,"points":2,"place":1,"phase":1,"sequence":34,"prices":[172,191,176,272,179,194,146,152,126,235],"times":[748,769,579,628,728,1695,1080],"next_num":7,"trial_type":"ticket-choose","trial_index":119,"time_elapsed":1629007,"internal_node_id":"0.0-119.0"},{"result":154,"points":2,"place":1,"phase":1,"sequence":35,"prices":[169,192,176,244,178,194,154,159,237,125],"times":[644,708,654,1088,696,726,1155],"next_num":7,"trial_type":"ticket-choose","trial_index":120,"time_elapsed":1637891,"internal_node_id":"0.0-120.0"},{"result":142,"points":3,"place":0,"phase":1,"sequence":36,"prices":[142,207,171,182,190,269,180,218,256,188],"times":[2373],"next_num":1,"trial_type":"ticket-choose","trial_index":121,"time_elapsed":1642240,"internal_node_id":"0.0-121.0"},{"result":135,"points":3,"place":0,"phase":1,"sequence":37,"prices":[135,202,150,169,183,225,160,211,220,172],"times":[1188],"next_num":1,"trial_type":"ticket-choose","trial_index":122,"time_elapsed":1645436,"internal_node_id":"0.0-122.0"},{"result":154,"points":2,"place":1,"phase":1,"sequence":38,"prices":[169,193,154,255,178,194,176,158,239,126],"times":[3695,628,1181],"next_num":3,"trial_type":"ticket-choose","trial_index":123,"time_elapsed":1653692,"internal_node_id":"0.0-123.0"},{"result":136,"points":2,"place":1,"phase":1,"sequence":39,"prices":[173,194,136,239,182,200,174,150,236,127],"times":[1463,643,1007],"next_num":3,"trial_type":"ticket-choose","trial_index":124,"time_elapsed":1659490,"internal_node_id":"0.0-124.0"},{"result":136,"points":2,"place":1,"phase":1,"sequence":40,"prices":[171,192,136,243,182,195,174,154,236,128],"times":[1365,577,1265],"next_num":3,"trial_type":"ticket-choose","trial_index":125,"time_elapsed":1665402,"internal_node_id":"0.0-125.0"},{"result":154,"points":2,"place":1,"phase":1,"sequence":41,"prices":[168,192,176,242,183,197,154,156,237,132],"times":[1176,657,573,717,780,1006,1020],"next_num":7,"trial_type":"ticket-choose","trial_index":126,"time_elapsed":1674782,"internal_node_id":"0.0-126.0"},{"result":135,"points":3,"place":0,"phase":1,"sequence":42,"prices":[221,193,135,188,217,179,196,190,175,159],"times":[1845,714,1115],"next_num":3,"trial_type":"ticket-choose","trial_index":127,"time_elapsed":1681209,"internal_node_id":"0.0-127.0"},{"result":136,"points":3,"place":0,"phase":1,"sequence":43,"prices":[240,188,273,207,250,136,217,170,171,236],"times":[918,602,552,661,590,1017],"next_num":6,"trial_type":"ticket-choose","trial_index":128,"time_elapsed":1688602,"internal_node_id":"0.0-128.0"},{"result":136,"points":2,"place":1,"phase":1,"sequence":44,"prices":[169,192,174,246,180,195,136,152,238,126],"times":[666,661,658,598,709,611,1162],"next_num":7,"trial_type":"ticket-choose","trial_index":129,"time_elapsed":1697370,"internal_node_id":"0.0-129.0"},{"result":158,"points":1,"place":2,"phase":1,"sequence":45,"prices":[169,194,154,271,178,201,176,158,236,127],"times":[1378,785,476,617,629,644,570,932],"next_num":8,"trial_type":"ticket-choose","trial_index":130,"time_elapsed":1707030,"internal_node_id":"0.0-130.0"},{"result":132,"points":3,"place":0,"phase":1,"sequence":46,"prices":[132,222,144,153,190,248,151,224,228,179],"times":[1066],"next_num":1,"trial_type":"ticket-choose","trial_index":131,"time_elapsed":1710155,"internal_node_id":"0.0-131.0"},{"result":128,"points":2,"place":1,"phase":1,"sequence":47,"prices":[121,191,128,141,166,217,129,196,202,157],"times":[1760,1058,897],"next_num":3,"trial_type":"ticket-choose","trial_index":132,"time_elapsed":1717587,"internal_node_id":"0.0-132.0"},{"result":146,"points":2,"place":1,"phase":1,"sequence":48,"prices":[171,191,172,268,179,194,146,150,127,239],"times":[1534,567,615,617,645,585,1175],"next_num":7,"trial_type":"ticket-choose","trial_index":133,"time_elapsed":1727187,"internal_node_id":"0.0-133.0"},{"result":131,"points":2,"place":1,"phase":1,"sequence":49,"prices":[221,234,131,136,132,149,154,90,176,173],"times":[1491,792,1079],"next_num":3,"trial_type":"ticket-choose","trial_index":134,"time_elapsed":1733205,"internal_node_id":"0.0-134.0"},{"responses":[{"value":0,"offby":-1,"category":"$90 - $120","category_index":0},{"value":2,"offby":-1,"category":"$121 - $145","category_index":1},{"value":4,"offby":1,"category":"$146 - $170","category_index":2},{"value":5,"offby":-1,"category":"$171 - $195","category_index":3},{"value":6,"offby":2,"category":"$196 - $220","category_index":4},{"value":2,"offby":0,"category":"$221 - $245","category_index":5},{"value":1,"offby":0,"category":"$246 - $270","category_index":6}],"phase":1,"number":1,"trial_type":"bar-choose","trial_index":135,"time_elapsed":1808635,"internal_node_id":"0.0-135.0"},{"special_comment":"Nothingseemed to stand out to me, it seemed pretty random.","trial_type":"special_sequence","trial_index":136,"time_elapsed":1830474,"internal_node_id":"0.0-136.0"},{"during":"Nothing","bonus":284,"trial_type":"final","trial_index":137,"time_elapsed":1860595,"internal_node_id":"0.0-137.0"}],"bonus":284}