{"start_time":"2017-02-21 11:27:46","end_time":"2017-02-21 11:44:44","points_phase0":111,"points_phase1":96,"phase_order":0,"age":29,"gender":"f","tries":1,"during":"Nothing","worker_id":"A1TH0PTGDSBWMO","assignment_id":"3ZR9AIQJUC2A76S9L10TAS65Y4H04G","data":[{"rt":6147,"url":"\/tickets\/utils\/consent.html","trial_type":"html","trial_index":0,"time_elapsed":6262,"internal_node_id":"0.0-0.0"},{"age":29,"gender":"f","trial_type":"age","trial_index":1,"time_elapsed":12647,"internal_node_id":"0.0-1.0"},{"worker_id":"A1TH0PTGDSBWMO","trial_type":"workerid","trial_index":2,"time_elapsed":28279,"internal_node_id":"0.0-2.0"},{"tries":1,"trial_type":"instructions_check","trial_index":3,"time_elapsed":45334,"internal_node_id":"0.0-3.0"},{"rt":16796,"url":"\/tickets\/utils\/start.html","trial_type":"html","trial_index":4,"time_elapsed":63255,"internal_node_id":"0.0-4.0"},{"trial_type":"number-animation","trial_index":5,"time_elapsed":74337,"internal_node_id":"0.0-5.0"},{"phase":0,"sequence":0,"avg":181,"response":175,"trial_type":"training_avg","trial_index":6,"time_elapsed":87757,"internal_node_id":"0.0-6.0"},{"trial_type":"number-animation","trial_index":7,"time_elapsed":95448,"internal_node_id":"0.0-7.0"},{"phase":0,"sequence":1,"avg":188,"response":177,"trial_type":"training_avg","trial_index":8,"time_elapsed":104617,"internal_node_id":"0.0-8.0"},{"trial_type":"number-animation","trial_index":9,"time_elapsed":112039,"internal_node_id":"0.0-9.0"},{"phase":0,"sequence":2,"avg":188,"response":188,"trial_type":"training_avg","trial_index":10,"time_elapsed":123183,"internal_node_id":"0.0-10.0"},{"trial_type":"number-animation","trial_index":11,"time_elapsed":130181,"internal_node_id":"0.0-11.0"},{"phase":0,"sequence":3,"avg":177,"response":179,"trial_type":"training_avg","trial_index":12,"time_elapsed":141607,"internal_node_id":"0.0-12.0"},{"trial_type":"number-animation","trial_index":13,"time_elapsed":149120,"internal_node_id":"0.0-13.0"},{"phase":0,"sequence":4,"avg":182,"response":175,"trial_type":"training_avg","trial_index":14,"time_elapsed":159443,"internal_node_id":"0.0-14.0"},{"responses":[{"value":0,"offby":0,"category":"$106 - $134","category_index":0},{"value":0,"offby":-1,"category":"$135 - $150","category_index":1},{"value":0,"offby":-3,"category":"$151 - $165","category_index":2},{"value":0,"offby":-6,"category":"$166 - $180","category_index":3},{"value":20,"offby":14,"category":"$181 - $195","category_index":4},{"value":0,"offby":-3,"category":"$196 - $210","category_index":5},{"value":0,"offby":-1,"category":"$211 - $225","category_index":6}],"phase":0,"number":0,"trial_type":"bar-choose","trial_index":15,"time_elapsed":211371,"internal_node_id":"0.0-15.0"},{"rt":3034,"url":"\/tickets\/\/utils\/testing.html","trial_type":"html","trial_index":16,"time_elapsed":215533,"internal_node_id":"0.0-16.0"},{"phase":0,"order":[36,41,14,42,4,45,6,34,29,18,0,48,16,30,33,11,22,20,32,38,46,47,13,21,9,44,43,19,10,8,1,7,35,24,23,26,49,31,5,28,37,40,27,17,12,2,39,25,3,15],"trial_type":"store_order","trial_index":17,"time_elapsed":216535,"internal_node_id":"0.0-17.0"},{"result":165,"points":2,"place":1,"phase":0,"sequence":-1,"prices":[184,180,224,165,181,199,185,193,218,126],"times":[956,2241,545,2449],"next_num":4,"trial_type":"ticket-choose","trial_index":18,"time_elapsed":226362,"internal_node_id":"0.0-18.0"},{"rt":3467,"url":"\/tickets\/utils\/testing_after.html","trial_type":"html","trial_index":19,"time_elapsed":230961,"internal_node_id":"0.0-19.0"},{"result":165,"points":2,"place":1,"phase":0,"sequence":0,"prices":[188,200,165,172,198,174,177,154,177,180],"times":[2000,476,2118],"next_num":3,"trial_type":"ticket-choose","trial_index":20,"time_elapsed":241129,"internal_node_id":"0.0-20.0"},{"result":155,"points":2,"place":1,"phase":0,"sequence":1,"prices":[201,207,155,158,156,165,167,135,178,177],"times":[919,494,1906],"next_num":3,"trial_type":"ticket-choose","trial_index":21,"time_elapsed":247449,"internal_node_id":"0.0-21.0"},{"result":167,"points":2,"place":1,"phase":0,"sequence":2,"prices":[175,186,178,212,179,187,167,169,209,153],"times":[970,506,645,521,690,596,1577],"next_num":7,"trial_type":"ticket-choose","trial_index":22,"time_elapsed":256695,"internal_node_id":"0.0-22.0"},{"result":143,"points":3,"place":0,"phase":0,"sequence":3,"prices":[222,173,202,197,143,205,198,183,178,186],"times":[902,578,622,596,1595],"next_num":5,"trial_type":"ticket-choose","trial_index":23,"time_elapsed":266255,"internal_node_id":"0.0-23.0"},{"result":163,"points":2,"place":1,"phase":0,"sequence":4,"prices":[176,186,176,210,179,187,163,166,153,208],"times":[812,560,623,581,655,677,1704],"next_num":7,"trial_type":"ticket-choose","trial_index":24,"time_elapsed":275865,"internal_node_id":"0.0-24.0"},{"result":167,"points":2,"place":1,"phase":0,"sequence":5,"prices":[212,192,188,184,167,193,189,164,176,170],"times":[801,578,496,526,1505],"next_num":5,"trial_type":"ticket-choose","trial_index":25,"time_elapsed":282964,"internal_node_id":"0.0-25.0"},{"result":153,"points":3,"place":0,"phase":0,"sequence":6,"prices":[174,186,176,217,181,187,163,166,153,209],"times":[666,543,663,512,556,547,1268,758,1406],"next_num":9,"trial_type":"ticket-choose","trial_index":26,"time_elapsed":294046,"internal_node_id":"0.0-26.0"},{"result":155,"points":2,"place":1,"phase":0,"sequence":7,"prices":[181,155,148,161,168,187,172,199,176,194],"times":[789,1710],"next_num":2,"trial_type":"ticket-choose","trial_index":27,"time_elapsed":299092,"internal_node_id":"0.0-27.0"},{"result":150,"points":3,"place":0,"phase":0,"sequence":8,"prices":[150,185,154,161,173,199,155,188,191,168],"times":[2274],"next_num":1,"trial_type":"ticket-choose","trial_index":28,"time_elapsed":305235,"internal_node_id":"0.0-28.0"},{"result":165,"points":1,"place":2,"phase":0,"sequence":9,"prices":[176,187,158,210,181,187,177,165,208,153],"times":[949,554,664,1052,598,796,992,1554],"next_num":8,"trial_type":"ticket-choose","trial_index":29,"time_elapsed":316147,"internal_node_id":"0.0-29.0"},{"result":163,"points":2,"place":1,"phase":0,"sequence":10,"prices":[176,186,163,214,179,187,176,166,153,208],"times":[835,760,2238],"next_num":3,"trial_type":"ticket-choose","trial_index":30,"time_elapsed":322602,"internal_node_id":"0.0-30.0"},{"result":147,"points":3,"place":0,"phase":0,"sequence":11,"prices":[181,215,169,147,182,193,177,184,176,179],"times":[1404,612,926,1791],"next_num":4,"trial_type":"ticket-choose","trial_index":31,"time_elapsed":330350,"internal_node_id":"0.0-31.0"},{"result":158,"points":2,"place":1,"phase":0,"sequence":12,"prices":[175,186,158,211,180,187,177,166,209,153],"times":[2850,649,1736],"next_num":3,"trial_type":"ticket-choose","trial_index":32,"time_elapsed":338322,"internal_node_id":"0.0-32.0"},{"result":157,"points":3,"place":0,"phase":0,"sequence":13,"prices":[157,191,165,175,182,203,170,195,200,176],"times":[1686],"next_num":1,"trial_type":"ticket-choose","trial_index":33,"time_elapsed":342217,"internal_node_id":"0.0-33.0"},{"result":159,"points":3,"place":0,"phase":0,"sequence":14,"prices":[159,183,166,168,173,205,167,187,191,170],"times":[1147],"next_num":1,"trial_type":"ticket-choose","trial_index":34,"time_elapsed":345617,"internal_node_id":"0.0-34.0"},{"result":169,"points":1,"place":2,"phase":0,"sequence":15,"prices":[175,187,167,212,179,187,178,169,208,153],"times":[729,581,1244,775,601,918,709,1288],"next_num":8,"trial_type":"ticket-choose","trial_index":35,"time_elapsed":356170,"internal_node_id":"0.0-35.0"},{"result":158,"points":2,"place":1,"phase":0,"sequence":16,"prices":[176,187,177,225,181,187,158,165,208,153],"times":[978,593,680,678,614,623,1655],"next_num":7,"trial_type":"ticket-choose","trial_index":36,"time_elapsed":365537,"internal_node_id":"0.0-36.0"},{"result":158,"points":2,"place":1,"phase":0,"sequence":17,"prices":[175,186,177,221,180,187,158,166,209,153],"times":[2650,503,524,695,509,472,1373],"next_num":7,"trial_type":"ticket-choose","trial_index":37,"time_elapsed":375894,"internal_node_id":"0.0-37.0"},{"result":161,"points":3,"place":0,"phase":0,"sequence":18,"prices":[161,193,167,187,190,224,174,194,195,188],"times":[1414],"next_num":1,"trial_type":"ticket-choose","trial_index":38,"time_elapsed":379768,"internal_node_id":"0.0-38.0"},{"result":168,"points":1,"place":2,"phase":0,"sequence":19,"prices":[168,199,196,198,185,195,227,163,177,166],"times":[3039],"next_num":1,"trial_type":"ticket-choose","trial_index":39,"time_elapsed":385022,"internal_node_id":"0.0-39.0"},{"result":158,"points":3,"place":0,"phase":0,"sequence":20,"prices":[210,184,226,193,215,158,199,175,176,208],"times":[668,569,520,542,521,1291],"next_num":6,"trial_type":"ticket-choose","trial_index":40,"time_elapsed":392541,"internal_node_id":"0.0-40.0"},{"result":152,"points":3,"place":0,"phase":0,"sequence":21,"prices":[200,181,203,152,175,171,160,154,176,191],"times":[685,617,556,1294],"next_num":4,"trial_type":"ticket-choose","trial_index":41,"time_elapsed":398392,"internal_node_id":"0.0-41.0"},{"result":167,"points":2,"place":1,"phase":0,"sequence":22,"prices":[175,185,178,215,181,186,167,168,208,156],"times":[758,491,502,559,551,526,1360],"next_num":7,"trial_type":"ticket-choose","trial_index":42,"time_elapsed":407446,"internal_node_id":"0.0-42.0"},{"result":158,"points":2,"place":1,"phase":0,"sequence":23,"prices":[175,186,177,209,181,188,158,167,208,154],"times":[18410,818,911,896,846,792,1079],"next_num":7,"trial_type":"ticket-choose","trial_index":43,"time_elapsed":434476,"internal_node_id":"0.0-43.0"},{"result":167,"points":2,"place":1,"phase":0,"sequence":24,"prices":[175,185,167,224,181,186,178,168,208,156],"times":[2329,570,1189],"next_num":3,"trial_type":"ticket-choose","trial_index":44,"time_elapsed":441201,"internal_node_id":"0.0-44.0"},{"result":159,"points":1,"place":2,"phase":0,"sequence":25,"prices":[180,159,149,175,185,141,163,174,178,207],"times":[851,1404],"next_num":2,"trial_type":"ticket-choose","trial_index":45,"time_elapsed":445806,"internal_node_id":"0.0-45.0"},{"result":157,"points":3,"place":0,"phase":0,"sequence":26,"prices":[201,187,157,184,198,179,188,185,178,170],"times":[648,565,1912],"next_num":3,"trial_type":"ticket-choose","trial_index":46,"time_elapsed":452218,"internal_node_id":"0.0-46.0"},{"result":158,"points":2,"place":1,"phase":0,"sequence":27,"prices":[176,185,158,217,180,186,177,166,209,154],"times":[934,470,1350],"next_num":3,"trial_type":"ticket-choose","trial_index":47,"time_elapsed":457466,"internal_node_id":"0.0-47.0"},{"result":167,"points":2,"place":1,"phase":0,"sequence":28,"prices":[175,186,167,225,179,187,178,169,209,153],"times":[612,521,1670],"next_num":3,"trial_type":"ticket-choose","trial_index":48,"time_elapsed":463745,"internal_node_id":"0.0-48.0"},{"result":167,"points":2,"place":1,"phase":0,"sequence":29,"prices":[174,186,167,211,181,188,178,168,208,156],"times":[523,539,1497],"next_num":3,"trial_type":"ticket-choose","trial_index":49,"time_elapsed":469359,"internal_node_id":"0.0-49.0"},{"result":163,"points":2,"place":1,"phase":0,"sequence":30,"prices":[175,187,163,209,180,188,176,165,154,208],"times":[690,515,1352],"next_num":3,"trial_type":"ticket-choose","trial_index":50,"time_elapsed":475866,"internal_node_id":"0.0-50.0"},{"result":163,"points":2,"place":1,"phase":0,"sequence":31,"prices":[175,186,176,224,179,187,163,165,153,210],"times":[650,810,8319,839,521,482,1995],"next_num":7,"trial_type":"ticket-choose","trial_index":51,"time_elapsed":494274,"internal_node_id":"0.0-51.0"},{"result":144,"points":3,"place":0,"phase":0,"sequence":32,"prices":[168,154,172,185,195,144,184,211,177,227],"times":[328,698,476,499,503,1315],"next_num":6,"trial_type":"ticket-choose","trial_index":52,"time_elapsed":502032,"internal_node_id":"0.0-52.0"},{"result":161,"points":3,"place":0,"phase":0,"sequence":33,"prices":[161,193,175,181,185,224,180,199,218,184],"times":[1508],"next_num":1,"trial_type":"ticket-choose","trial_index":53,"time_elapsed":505492,"internal_node_id":"0.0-53.0"},{"result":158,"points":2,"place":1,"phase":0,"sequence":34,"prices":[176,185,177,218,180,186,158,166,209,154],"times":[698,506,464,520,484,510,1421],"next_num":7,"trial_type":"ticket-choose","trial_index":54,"time_elapsed":513444,"internal_node_id":"0.0-54.0"},{"result":158,"points":2,"place":1,"phase":0,"sequence":35,"prices":[152,200,158,173,182,207,161,202,204,180],"times":[373,567,1252],"next_num":3,"trial_type":"ticket-choose","trial_index":55,"time_elapsed":518185,"internal_node_id":"0.0-55.0"},{"result":163,"points":1,"place":2,"phase":0,"sequence":36,"prices":[183,163,185,180,166,148,160,186,176,184],"times":[911,1361],"next_num":2,"trial_type":"ticket-choose","trial_index":56,"time_elapsed":523074,"internal_node_id":"0.0-56.0"},{"result":148,"points":3,"place":0,"phase":0,"sequence":37,"prices":[148,171,150,163,167,220,162,186,187,165],"times":[1116],"next_num":1,"trial_type":"ticket-choose","trial_index":57,"time_elapsed":526101,"internal_node_id":"0.0-57.0"},{"result":163,"points":2,"place":1,"phase":0,"sequence":38,"prices":[175,187,176,209,180,188,163,165,154,208],"times":[669,469,509,548,517,610,1293],"next_num":7,"trial_type":"ticket-choose","trial_index":58,"time_elapsed":534160,"internal_node_id":"0.0-58.0"},{"result":169,"points":3,"place":0,"phase":0,"sequence":39,"prices":[169,196,170,184,187,211,171,201,202,185],"times":[1488],"next_num":1,"trial_type":"ticket-choose","trial_index":59,"time_elapsed":537411,"internal_node_id":"0.0-59.0"},{"result":169,"points":1,"place":3,"phase":0,"sequence":40,"prices":[198,193,169,163,202,182,152,164,177,171],"times":[561,562,1198],"next_num":3,"trial_type":"ticket-choose","trial_index":60,"time_elapsed":542177,"internal_node_id":"0.0-60.0"},{"result":150,"points":3,"place":0,"phase":0,"sequence":41,"prices":[189,150,175,160,188,207,158,194,178,199],"times":[843,1343],"next_num":2,"trial_type":"ticket-choose","trial_index":61,"time_elapsed":547974,"internal_node_id":"0.0-61.0"},{"result":168,"points":3,"place":0,"phase":0,"sequence":42,"prices":[168,192,171,178,188,217,172,195,197,186],"times":[1616],"next_num":1,"trial_type":"ticket-choose","trial_index":62,"time_elapsed":551935,"internal_node_id":"0.0-62.0"},{"result":158,"points":2,"place":1,"phase":0,"sequence":43,"prices":[175,186,158,209,181,188,177,167,208,154],"times":[661,573,1662],"next_num":3,"trial_type":"ticket-choose","trial_index":63,"time_elapsed":557136,"internal_node_id":"0.0-63.0"},{"result":167,"points":2,"place":1,"phase":0,"sequence":44,"prices":[174,186,178,217,181,188,167,168,208,156],"times":[829,561,548,557,852,532,3008],"next_num":7,"trial_type":"ticket-choose","trial_index":64,"time_elapsed":567300,"internal_node_id":"0.0-64.0"},{"result":163,"points":2,"place":1,"phase":0,"sequence":45,"prices":[174,186,163,212,181,187,176,166,153,209],"times":[646,543,3090],"next_num":3,"trial_type":"ticket-choose","trial_index":65,"time_elapsed":577185,"internal_node_id":"0.0-65.0"},{"result":167,"points":2,"place":1,"phase":0,"sequence":46,"prices":[189,167,180,197,165,168,172,213,178,171],"times":[795,1424],"next_num":2,"trial_type":"ticket-choose","trial_index":66,"time_elapsed":581858,"internal_node_id":"0.0-66.0"},{"result":156,"points":3,"place":0,"phase":0,"sequence":47,"prices":[156,201,162,166,185,214,165,202,204,179],"times":[1551],"next_num":1,"trial_type":"ticket-choose","trial_index":67,"time_elapsed":585574,"internal_node_id":"0.0-67.0"},{"result":163,"points":2,"place":1,"phase":0,"sequence":48,"prices":[175,186,163,211,179,187,176,165,153,210],"times":[1315,777,5754],"next_num":3,"trial_type":"ticket-choose","trial_index":68,"time_elapsed":596545,"internal_node_id":"0.0-68.0"},{"result":167,"points":2,"place":1,"phase":0,"sequence":49,"prices":[175,187,178,209,179,187,167,169,208,153],"times":[833,632,934,573,592,600,1441],"next_num":7,"trial_type":"ticket-choose","trial_index":69,"time_elapsed":605929,"internal_node_id":"0.0-69.0"},{"responses":[{"value":0,"offby":0,"category":"$106 - $134","category_index":0},{"value":0,"offby":-1,"category":"$135 - $150","category_index":1},{"value":0,"offby":-3,"category":"$151 - $165","category_index":2},{"value":20,"offby":14,"category":"$166 - $180","category_index":3},{"value":0,"offby":-6,"category":"$181 - $195","category_index":4},{"value":0,"offby":-3,"category":"$196 - $210","category_index":5},{"value":0,"offby":-1,"category":"$211 - $225","category_index":6}],"phase":0,"number":1,"trial_type":"bar-choose","trial_index":70,"time_elapsed":622308,"internal_node_id":"0.0-70.0"},{"rt":3040,"url":"\/tickets\/utils\/start2.html","trial_type":"html","trial_index":71,"time_elapsed":626470,"internal_node_id":"0.0-71.0"},{"trial_type":"number-animation","trial_index":72,"time_elapsed":637469,"internal_node_id":"0.0-72.0"},{"phase":1,"sequence":0,"avg":182,"response":160,"trial_type":"training_avg","trial_index":73,"time_elapsed":648754,"internal_node_id":"0.0-73.0"},{"trial_type":"number-animation","trial_index":74,"time_elapsed":656110,"internal_node_id":"0.0-74.0"},{"phase":1,"sequence":1,"avg":188,"response":175,"trial_type":"training_avg","trial_index":75,"time_elapsed":665228,"internal_node_id":"0.0-75.0"},{"trial_type":"number-animation","trial_index":76,"time_elapsed":672442,"internal_node_id":"0.0-76.0"},{"phase":1,"sequence":2,"avg":176,"response":180,"trial_type":"training_avg","trial_index":77,"time_elapsed":682268,"internal_node_id":"0.0-77.0"},{"trial_type":"number-animation","trial_index":78,"time_elapsed":687987,"internal_node_id":"0.0-78.0"},{"phase":1,"sequence":3,"avg":180,"response":175,"trial_type":"training_avg","trial_index":79,"time_elapsed":700501,"internal_node_id":"0.0-79.0"},{"trial_type":"number-animation","trial_index":80,"time_elapsed":707267,"internal_node_id":"0.0-80.0"},{"phase":1,"sequence":4,"avg":174,"response":173,"trial_type":"training_avg","trial_index":81,"time_elapsed":717700,"internal_node_id":"0.0-81.0"},{"responses":[{"value":0,"offby":-1,"category":"$90 - $120","category_index":0},{"value":0,"offby":-3,"category":"$121 - $145","category_index":1},{"value":0,"offby":-3,"category":"$146 - $170","category_index":2},{"value":10,"offby":4,"category":"$171 - $195","category_index":3},{"value":10,"offby":6,"category":"$196 - $220","category_index":4},{"value":0,"offby":-2,"category":"$221 - $245","category_index":5},{"value":0,"offby":-1,"category":"$246 - $270","category_index":6}],"phase":1,"number":0,"trial_type":"bar-choose","trial_index":82,"time_elapsed":735419,"internal_node_id":"0.0-82.0"},{"rt":15245,"url":"\/tickets\/utils\/testing2.html","trial_type":"html","trial_index":83,"time_elapsed":751782,"internal_node_id":"0.0-83.0"},{"phase":1,"order":[5,41,45,10,34,4,38,16,22,12,19,25,42,29,47,1,6,35,17,7,20,2,43,21,36,27,31,44,14,33,37,13,40,15,11,23,26,18,3,32,46,24,9,28,30,49,48,0,8,39],"trial_type":"store_order","trial_index":84,"time_elapsed":752786,"internal_node_id":"0.0-84.0"},{"result":146,"points":2,"place":1,"phase":1,"sequence":0,"prices":[171,195,172,242,179,196,146,150,128,235],"times":[845,385,342,312,664,465,1318],"next_num":7,"trial_type":"ticket-choose","trial_index":85,"time_elapsed":760394,"internal_node_id":"0.0-85.0"},{"result":131,"points":2,"place":1,"phase":1,"sequence":1,"prices":[221,234,131,136,132,149,154,90,176,173],"times":[538,395,1422],"next_num":3,"trial_type":"ticket-choose","trial_index":86,"time_elapsed":765147,"internal_node_id":"0.0-86.0"},{"result":154,"points":2,"place":1,"phase":1,"sequence":2,"prices":[244,203,196,189,154,206,197,149,171,159],"times":[489,342,641,470,1264],"next_num":5,"trial_type":"ticket-choose","trial_index":87,"time_elapsed":771785,"internal_node_id":"0.0-87.0"},{"result":158,"points":1,"place":2,"phase":1,"sequence":3,"prices":[169,193,154,255,178,194,176,158,239,126],"times":[429,368,448,319,478,490,493,1115],"next_num":8,"trial_type":"ticket-choose","trial_index":88,"time_elapsed":779745,"internal_node_id":"0.0-88.0"},{"result":130,"points":2,"place":1,"phase":1,"sequence":4,"prices":[181,130,116,142,157,193,165,218,173,207],"times":[531,1057],"next_num":2,"trial_type":"ticket-choose","trial_index":89,"time_elapsed":783464,"internal_node_id":"0.0-89.0"},{"result":146,"points":2,"place":1,"phase":1,"sequence":5,"prices":[172,191,176,272,179,194,146,152,126,235],"times":[1563,492,452,518,502,530,1312],"next_num":7,"trial_type":"ticket-choose","trial_index":90,"time_elapsed":792264,"internal_node_id":"0.0-90.0"},{"result":156,"points":1,"place":2,"phase":1,"sequence":6,"prices":[156,218,212,216,191,210,275,146,174,152],"times":[1068],"next_num":1,"trial_type":"ticket-choose","trial_index":91,"time_elapsed":795351,"internal_node_id":"0.0-91.0"},{"result":136,"points":2,"place":1,"phase":1,"sequence":7,"prices":[171,192,136,265,180,194,174,152,239,127],"times":[1607,542,1106],"next_num":3,"trial_type":"ticket-choose","trial_index":92,"time_elapsed":801215,"internal_node_id":"0.0-92.0"},{"result":126,"points":3,"place":0,"phase":1,"sequence":8,"prices":[172,194,174,243,182,193,136,150,237,126],"times":[1031,490,445,541,457,473,468,343,618,1351],"next_num":10,"trial_type":"ticket-choose","trial_index":93,"time_elapsed":811711,"internal_node_id":"0.0-93.0"},{"result":168,"points":1,"place":3,"phase":1,"sequence":9,"prices":[168,192,176,242,183,197,154,156,237,132],"times":[1267],"next_num":1,"trial_type":"ticket-choose","trial_index":94,"time_elapsed":815222,"internal_node_id":"0.0-94.0"},{"result":136,"points":2,"place":1,"phase":1,"sequence":10,"prices":[172,190,136,270,179,192,174,152,237,129],"times":[756,485,990],"next_num":3,"trial_type":"ticket-choose","trial_index":95,"time_elapsed":819965,"internal_node_id":"0.0-95.0"},{"result":132,"points":3,"place":0,"phase":1,"sequence":11,"prices":[132,222,144,153,190,248,151,224,228,179],"times":[1205],"next_num":1,"trial_type":"ticket-choose","trial_index":96,"time_elapsed":822970,"internal_node_id":"0.0-96.0"},{"result":165,"points":2,"place":1,"phase":1,"sequence":12,"prices":[263,165,224,214,105,230,215,185,177,193],"times":[1826,748],"next_num":2,"trial_type":"ticket-choose","trial_index":97,"time_elapsed":827524,"internal_node_id":"0.0-97.0"},{"result":128,"points":2,"place":1,"phase":1,"sequence":13,"prices":[121,191,128,141,166,217,129,196,202,157],"times":[518,569,609],"next_num":3,"trial_type":"ticket-choose","trial_index":98,"time_elapsed":831396,"internal_node_id":"0.0-98.0"},{"result":124,"points":3,"place":0,"phase":1,"sequence":14,"prices":[219,183,227,124,176,161,140,129,171,201],"times":[601,496,484,674],"next_num":4,"trial_type":"ticket-choose","trial_index":99,"time_elapsed":836180,"internal_node_id":"0.0-99.0"},{"result":169,"points":1,"place":3,"phase":1,"sequence":15,"prices":[169,193,146,237,180,196,172,150,129,236],"times":[934],"next_num":1,"trial_type":"ticket-choose","trial_index":100,"time_elapsed":838871,"internal_node_id":"0.0-100.0"},{"result":168,"points":1,"place":3,"phase":1,"sequence":16,"prices":[168,191,172,240,183,193,146,151,125,238],"times":[675],"next_num":1,"trial_type":"ticket-choose","trial_index":101,"time_elapsed":841290,"internal_node_id":"0.0-101.0"},{"result":155,"points":1,"place":2,"phase":1,"sequence":17,"prices":[155,129,164,189,210,108,187,241,174,275],"times":[708],"next_num":1,"trial_type":"ticket-choose","trial_index":102,"time_elapsed":843676,"internal_node_id":"0.0-102.0"},{"result":136,"points":2,"place":1,"phase":1,"sequence":18,"prices":[171,192,136,243,182,195,174,154,236,128],"times":[609,501,704],"next_num":3,"trial_type":"ticket-choose","trial_index":103,"time_elapsed":847571,"internal_node_id":"0.0-103.0"},{"result":146,"points":2,"place":1,"phase":1,"sequence":19,"prices":[171,191,172,268,179,194,146,150,127,239],"times":[749,463,714,506,522,530,809],"next_num":7,"trial_type":"ticket-choose","trial_index":104,"time_elapsed":854828,"internal_node_id":"0.0-104.0"},{"result":169,"points":1,"place":3,"phase":1,"sequence":20,"prices":[169,192,174,246,180,195,136,152,238,126],"times":[1241],"next_num":1,"trial_type":"ticket-choose","trial_index":105,"time_elapsed":857979,"internal_node_id":"0.0-105.0"},{"result":168,"points":1,"place":3,"phase":1,"sequence":21,"prices":[168,191,146,252,183,193,172,153,126,238],"times":[814],"next_num":1,"trial_type":"ticket-choose","trial_index":106,"time_elapsed":860561,"internal_node_id":"0.0-106.0"},{"result":135,"points":3,"place":0,"phase":1,"sequence":22,"prices":[221,193,135,188,217,179,196,190,175,159],"times":[815,573,857],"next_num":3,"trial_type":"ticket-choose","trial_index":107,"time_elapsed":864962,"internal_node_id":"0.0-107.0"},{"result":136,"points":2,"place":1,"phase":1,"sequence":23,"prices":[170,192,174,242,181,196,136,153,236,128],"times":[1407,517,488,538,515,497,849],"next_num":7,"trial_type":"ticket-choose","trial_index":108,"time_elapsed":872852,"internal_node_id":"0.0-108.0"},{"result":149,"points":2,"place":1,"phase":1,"sequence":24,"prices":[196,221,149,164,216,167,175,128,176,181],"times":[700,918,782],"next_num":3,"trial_type":"ticket-choose","trial_index":109,"time_elapsed":877427,"internal_node_id":"0.0-109.0"},{"result":157,"points":3,"place":0,"phase":1,"sequence":25,"prices":[157,205,161,175,197,254,165,210,214,192],"times":[1396],"next_num":1,"trial_type":"ticket-choose","trial_index":110,"time_elapsed":880580,"internal_node_id":"0.0-110.0"},{"result":161,"points":0,"place":6,"phase":1,"sequence":26,"prices":[117,161,120,147,153,259,144,191,195,149],"times":[561,797],"next_num":2,"trial_type":"ticket-choose","trial_index":111,"time_elapsed":883851,"internal_node_id":"0.0-111.0"},{"result":138,"points":1,"place":2,"phase":1,"sequence":27,"prices":[181,138,118,170,190,101,146,169,175,233],"times":[515,669],"next_num":2,"trial_type":"ticket-choose","trial_index":112,"time_elapsed":886891,"internal_node_id":"0.0-112.0"},{"result":169,"points":1,"place":3,"phase":1,"sequence":28,"prices":[169,192,176,244,178,194,154,159,237,125],"times":[1037],"next_num":1,"trial_type":"ticket-choose","trial_index":113,"time_elapsed":889561,"internal_node_id":"0.0-113.0"},{"result":137,"points":3,"place":0,"phase":1,"sequence":29,"prices":[137,187,152,156,166,231,155,194,202,160],"times":[687],"next_num":1,"trial_type":"ticket-choose","trial_index":114,"time_elapsed":891858,"internal_node_id":"0.0-114.0"},{"result":158,"points":1,"place":3,"phase":1,"sequence":30,"prices":[216,206,158,145,224,185,124,149,175,162],"times":[664,516,694],"next_num":3,"trial_type":"ticket-choose","trial_index":115,"time_elapsed":895842,"internal_node_id":"0.0-115.0"},{"result":154,"points":2,"place":1,"phase":1,"sequence":31,"prices":[170,190,176,251,183,192,154,157,236,131],"times":[495,471,626,530,580,489,907],"next_num":7,"trial_type":"ticket-choose","trial_index":116,"time_elapsed":902966,"internal_node_id":"0.0-116.0"},{"result":119,"points":3,"place":0,"phase":1,"sequence":32,"prices":[198,119,169,141,195,233,136,208,177,217],"times":[610,794],"next_num":2,"trial_type":"ticket-choose","trial_index":117,"time_elapsed":906271,"internal_node_id":"0.0-117.0"},{"result":154,"points":2,"place":1,"phase":1,"sequence":33,"prices":[170,193,176,245,178,194,154,159,236,126],"times":[508,582,492,477,526,491,729],"next_num":7,"trial_type":"ticket-choose","trial_index":118,"time_elapsed":913090,"internal_node_id":"0.0-118.0"},{"result":169,"points":1,"place":3,"phase":1,"sequence":34,"prices":[169,194,154,271,178,201,176,158,236,127],"times":[948],"next_num":1,"trial_type":"ticket-choose","trial_index":119,"time_elapsed":915693,"internal_node_id":"0.0-119.0"},{"result":136,"points":2,"place":1,"phase":1,"sequence":35,"prices":[173,191,174,270,180,193,136,153,239,129],"times":[964,607,502,505,569,510,672],"next_num":7,"trial_type":"ticket-choose","trial_index":120,"time_elapsed":923027,"internal_node_id":"0.0-120.0"},{"result":124,"points":3,"place":0,"phase":1,"sequence":36,"prices":[124,220,136,165,185,234,143,225,228,179],"times":[2907],"next_num":1,"trial_type":"ticket-choose","trial_index":121,"time_elapsed":927652,"internal_node_id":"0.0-121.0"},{"result":136,"points":2,"place":1,"phase":1,"sequence":37,"prices":[173,194,136,239,182,200,174,150,236,127],"times":[1291,472,781],"next_num":3,"trial_type":"ticket-choose","trial_index":122,"time_elapsed":932363,"internal_node_id":"0.0-122.0"},{"result":146,"points":2,"place":1,"phase":1,"sequence":38,"prices":[170,193,146,268,178,195,172,149,126,241],"times":[860,492,960],"next_num":3,"trial_type":"ticket-choose","trial_index":123,"time_elapsed":937125,"internal_node_id":"0.0-123.0"},{"result":143,"points":3,"place":0,"phase":1,"sequence":39,"prices":[143,206,153,194,201,267,168,208,210,196],"times":[1054],"next_num":1,"trial_type":"ticket-choose","trial_index":124,"time_elapsed":940002,"internal_node_id":"0.0-124.0"},{"result":136,"points":3,"place":0,"phase":1,"sequence":40,"prices":[240,188,273,207,250,136,217,170,171,236],"times":[925,614,496,495,874,704],"next_num":6,"trial_type":"ticket-choose","trial_index":125,"time_elapsed":946853,"internal_node_id":"0.0-125.0"},{"result":142,"points":3,"place":0,"phase":1,"sequence":41,"prices":[142,207,171,182,190,269,180,218,256,188],"times":[1153],"next_num":1,"trial_type":"ticket-choose","trial_index":126,"time_elapsed":949598,"internal_node_id":"0.0-126.0"},{"result":169,"points":1,"place":3,"phase":1,"sequence":42,"prices":[169,191,154,268,183,197,176,155,236,133],"times":[727],"next_num":1,"trial_type":"ticket-choose","trial_index":127,"time_elapsed":952059,"internal_node_id":"0.0-127.0"},{"result":157,"points":3,"place":0,"phase":1,"sequence":43,"prices":[157,213,159,187,194,242,161,222,225,189],"times":[924],"next_num":1,"trial_type":"ticket-choose","trial_index":128,"time_elapsed":954685,"internal_node_id":"0.0-128.0"},{"result":135,"points":3,"place":0,"phase":1,"sequence":44,"prices":[135,202,150,169,183,225,160,211,220,172],"times":[741],"next_num":1,"trial_type":"ticket-choose","trial_index":129,"time_elapsed":957071,"internal_node_id":"0.0-129.0"},{"result":146,"points":1,"place":2,"phase":1,"sequence":45,"prices":[186,146,191,179,152,116,140,201,172,187],"times":[905,766],"next_num":2,"trial_type":"ticket-choose","trial_index":130,"time_elapsed":960658,"internal_node_id":"0.0-130.0"},{"result":159,"points":2,"place":1,"phase":1,"sequence":46,"prices":[182,249,159,114,184,205,175,189,172,178],"times":[529,519,792],"next_num":3,"trial_type":"ticket-choose","trial_index":131,"time_elapsed":964630,"internal_node_id":"0.0-131.0"},{"result":146,"points":2,"place":1,"phase":1,"sequence":47,"prices":[173,191,146,242,178,194,172,152,126,235],"times":[484,470,723],"next_num":3,"trial_type":"ticket-choose","trial_index":132,"time_elapsed":968415,"internal_node_id":"0.0-132.0"},{"result":168,"points":1,"place":3,"phase":1,"sequence":48,"prices":[168,192,154,237,182,196,176,156,235,133],"times":[826],"next_num":1,"trial_type":"ticket-choose","trial_index":133,"time_elapsed":970866,"internal_node_id":"0.0-133.0"},{"result":153,"points":2,"place":1,"phase":1,"sequence":49,"prices":[197,153,181,215,150,155,164,247,177,162],"times":[805,633],"next_num":2,"trial_type":"ticket-choose","trial_index":134,"time_elapsed":974160,"internal_node_id":"0.0-134.0"},{"responses":[{"value":0,"offby":-1,"category":"$90 - $120","category_index":0},{"value":0,"offby":-3,"category":"$121 - $145","category_index":1},{"value":0,"offby":-3,"category":"$146 - $170","category_index":2},{"value":10,"offby":4,"category":"$171 - $195","category_index":3},{"value":10,"offby":6,"category":"$196 - $220","category_index":4},{"value":0,"offby":-2,"category":"$221 - $245","category_index":5},{"value":0,"offby":-1,"category":"$246 - $270","category_index":6}],"phase":1,"number":1,"trial_type":"bar-choose","trial_index":135,"time_elapsed":988192,"internal_node_id":"0.0-135.0"},{"special_comment":"no","trial_type":"special_sequence","trial_index":136,"time_elapsed":992504,"internal_node_id":"0.0-136.0"},{"during":"Nothing","bonus":276,"trial_type":"final","trial_index":137,"time_elapsed":1015500,"internal_node_id":"0.0-137.0"}],"bonus":276}