{"start_time":"2017-02-24 15:49:33","end_time":"2017-02-24 16:12:23","points_phase0":111,"points_phase1":106,"phase_order":0,"age":35,"gender":"f","tries":1,"during":"Nothing","worker_id":"A1U6A617Q95MTZ","assignment_id":"3GFK2QRXXAALBFXUSDCOMFLNZN15W2","data":[{"rt":22471,"url":"\/tickets\/utils\/consent.html","trial_type":"html","trial_index":0,"time_elapsed":23136,"internal_node_id":"0.0-0.0"},{"age":35,"gender":"f","trial_type":"age","trial_index":1,"time_elapsed":31542,"internal_node_id":"0.0-1.0"},{"worker_id":"A1U6A617Q95MTZ","trial_type":"workerid","trial_index":2,"time_elapsed":41656,"internal_node_id":"0.0-2.0"},{"tries":1,"trial_type":"instructions_check","trial_index":3,"time_elapsed":60141,"internal_node_id":"0.0-3.0"},{"rt":11315,"url":"\/tickets\/utils\/start.html","trial_type":"html","trial_index":4,"time_elapsed":72622,"internal_node_id":"0.0-4.0"},{"trial_type":"number-animation","trial_index":5,"time_elapsed":88517,"internal_node_id":"0.0-5.0"},{"phase":0,"sequence":0,"avg":180,"response":178,"trial_type":"training_avg","trial_index":6,"time_elapsed":101387,"internal_node_id":"0.0-6.0"},{"trial_type":"number-animation","trial_index":7,"time_elapsed":111519,"internal_node_id":"0.0-7.0"},{"phase":0,"sequence":1,"avg":178,"response":180,"trial_type":"training_avg","trial_index":8,"time_elapsed":118796,"internal_node_id":"0.0-8.0"},{"trial_type":"number-animation","trial_index":9,"time_elapsed":128983,"internal_node_id":"0.0-9.0"},{"phase":0,"sequence":2,"avg":176,"response":180,"trial_type":"training_avg","trial_index":10,"time_elapsed":135272,"internal_node_id":"0.0-10.0"},{"trial_type":"number-animation","trial_index":11,"time_elapsed":144613,"internal_node_id":"0.0-11.0"},{"phase":0,"sequence":3,"avg":178,"response":171,"trial_type":"training_avg","trial_index":12,"time_elapsed":150778,"internal_node_id":"0.0-12.0"},{"trial_type":"number-animation","trial_index":13,"time_elapsed":165440,"internal_node_id":"0.0-13.0"},{"phase":0,"sequence":4,"avg":179,"response":178,"trial_type":"training_avg","trial_index":14,"time_elapsed":171852,"internal_node_id":"0.0-14.0"},{"responses":[{"value":0,"offby":0,"category":"$140 - $250","category_index":0},{"value":0,"offby":0,"category":"$151 - $160","category_index":1},{"value":0,"offby":-4,"category":"$161 - $170","category_index":2},{"value":20,"offby":14,"category":"$171 - $180","category_index":3},{"value":0,"offby":-7,"category":"$181 - $190","category_index":4},{"value":0,"offby":-3,"category":"$191 - $200","category_index":5},{"value":0,"offby":0,"category":"$201 - $210","category_index":6}],"phase":0,"number":0,"trial_type":"bar-choose","trial_index":15,"time_elapsed":230832,"internal_node_id":"0.0-15.0"},{"rt":6168,"url":"\/tickets\/\/utils\/testing.html","trial_type":"html","trial_index":16,"time_elapsed":238162,"internal_node_id":"0.0-16.0"},{"phase":0,"order":[30,12,8,27,17,23,22,2,16,29,46,25,37,49,4,18,19,35,10,6,11,1,31,28,44,39,21,33,0,45,40,41,43,38,24,15,48,7,36,14,34,9,5,42,32,20,47,3,13,26],"trial_type":"store_order","trial_index":17,"time_elapsed":239164,"internal_node_id":"0.0-17.0"},{"result":165,"points":2,"place":1,"phase":0,"sequence":-1,"prices":[184,180,224,165,181,199,185,193,218,126],"times":[1658,1531,814,1400],"next_num":4,"trial_type":"ticket-choose","trial_index":18,"time_elapsed":248180,"internal_node_id":"0.0-18.0"},{"rt":7493,"url":"\/tickets\/utils\/testing_after.html","trial_type":"html","trial_index":19,"time_elapsed":256835,"internal_node_id":"0.0-19.0"},{"result":177,"points":1,"place":4,"phase":0,"sequence":0,"prices":[160,185,170,174,182,196,173,186,194,177],"times":[1845,869,667,704,690,684,646,669,589,671],"next_num":11,"trial_type":"ticket-choose","trial_index":20,"time_elapsed":270213,"internal_node_id":"0.0-20.0"},{"result":170,"points":2,"place":1,"phase":0,"sequence":1,"prices":[176,180,178,194,179,183,170,173,165,184],"times":[1166,672,706,687,912,770,1633],"next_num":7,"trial_type":"ticket-choose","trial_index":21,"time_elapsed":281454,"internal_node_id":"0.0-21.0"},{"result":170,"points":2,"place":1,"phase":0,"sequence":2,"prices":[176,180,170,194,179,183,178,173,165,184],"times":[1337,716,1299],"next_num":3,"trial_type":"ticket-choose","trial_index":22,"time_elapsed":288005,"internal_node_id":"0.0-22.0"},{"result":168,"points":3,"place":0,"phase":0,"sequence":3,"prices":[168,188,171,181,184,196,180,194,195,183],"times":[1361],"next_num":1,"trial_type":"ticket-choose","trial_index":23,"time_elapsed":293852,"internal_node_id":"0.0-23.0"},{"result":168,"points":2,"place":1,"phase":0,"sequence":4,"prices":[174,178,168,192,177,181,176,171,163,182],"times":[1087,686,1206],"next_num":3,"trial_type":"ticket-choose","trial_index":24,"time_elapsed":299824,"internal_node_id":"0.0-24.0"},{"result":168,"points":2,"place":1,"phase":0,"sequence":5,"prices":[173,178,176,193,177,182,168,172,164,183],"times":[1122,598,580,1003,660,863,1108],"next_num":7,"trial_type":"ticket-choose","trial_index":25,"time_elapsed":309942,"internal_node_id":"0.0-25.0"},{"result":168,"points":2,"place":1,"phase":0,"sequence":6,"prices":[173,178,176,193,177,182,168,172,164,183],"times":[1175,582,684,714,707,817,1199],"next_num":7,"trial_type":"ticket-choose","trial_index":26,"time_elapsed":319647,"internal_node_id":"0.0-26.0"},{"result":173,"points":1,"place":2,"phase":0,"sequence":7,"prices":[174,179,169,194,178,183,177,173,165,184],"times":[1256,554,557,635,994,693,714,1291],"next_num":8,"trial_type":"ticket-choose","trial_index":27,"time_elapsed":330810,"internal_node_id":"0.0-27.0"},{"result":168,"points":2,"place":1,"phase":0,"sequence":8,"prices":[174,178,168,192,177,181,176,171,163,182],"times":[1096,645,1363],"next_num":3,"trial_type":"ticket-choose","trial_index":28,"time_elapsed":336873,"internal_node_id":"0.0-28.0"},{"result":166,"points":3,"place":0,"phase":0,"sequence":9,"prices":[166,190,170,173,178,203,172,192,198,174],"times":[1459],"next_num":1,"trial_type":"ticket-choose","trial_index":29,"time_elapsed":341171,"internal_node_id":"0.0-29.0"},{"result":166,"points":3,"place":0,"phase":0,"sequence":10,"prices":[179,186,197,201,166,187,188,193,190,177],"times":[1185,778,653,776,1166],"next_num":5,"trial_type":"ticket-choose","trial_index":30,"time_elapsed":348909,"internal_node_id":"0.0-30.0"},{"result":163,"points":3,"place":0,"phase":0,"sequence":11,"prices":[163,185,165,174,181,198,173,186,187,180],"times":[1269],"next_num":1,"trial_type":"ticket-choose","trial_index":31,"time_elapsed":352731,"internal_node_id":"0.0-31.0"},{"result":168,"points":2,"place":1,"phase":0,"sequence":12,"prices":[181,175,182,168,183,173,153,170,193,179],"times":[1115,1119,694,1219],"next_num":4,"trial_type":"ticket-choose","trial_index":32,"time_elapsed":359735,"internal_node_id":"0.0-32.0"},{"result":170,"points":2,"place":1,"phase":0,"sequence":13,"prices":[175,189,193,170,179,165,180,186,177,184],"times":[1085,661,683,1546],"next_num":4,"trial_type":"ticket-choose","trial_index":33,"time_elapsed":366833,"internal_node_id":"0.0-33.0"},{"result":169,"points":2,"place":1,"phase":0,"sequence":14,"prices":[175,179,177,193,178,182,169,172,164,183],"times":[1297,652,712,675,689,684,1238],"next_num":7,"trial_type":"ticket-choose","trial_index":34,"time_elapsed":376424,"internal_node_id":"0.0-34.0"},{"result":168,"points":2,"place":1,"phase":0,"sequence":15,"prices":[173,178,168,193,177,182,176,172,164,183],"times":[1038,633,1299],"next_num":3,"trial_type":"ticket-choose","trial_index":35,"time_elapsed":382061,"internal_node_id":"0.0-35.0"},{"result":168,"points":2,"place":1,"phase":0,"sequence":16,"prices":[173,178,168,193,177,182,176,172,164,183],"times":[1038,614,1180],"next_num":3,"trial_type":"ticket-choose","trial_index":36,"time_elapsed":387655,"internal_node_id":"0.0-36.0"},{"result":154,"points":3,"place":0,"phase":0,"sequence":17,"prices":[188,179,154,183,173,170,177,160,169,175],"times":[710,668,1321],"next_num":3,"trial_type":"ticket-choose","trial_index":37,"time_elapsed":393138,"internal_node_id":"0.0-37.0"},{"result":166,"points":3,"place":0,"phase":0,"sequence":18,"prices":[175,180,170,195,179,184,178,174,166,185],"times":[1108,636,630,803,728,665,768,1559,1111],"next_num":9,"trial_type":"ticket-choose","trial_index":38,"time_elapsed":405241,"internal_node_id":"0.0-38.0"},{"result":169,"points":2,"place":1,"phase":0,"sequence":19,"prices":[174,179,177,194,178,183,169,173,165,184],"times":[1203,595,599,723,621,644,1197],"next_num":7,"trial_type":"ticket-choose","trial_index":39,"time_elapsed":414536,"internal_node_id":"0.0-39.0"},{"result":166,"points":3,"place":0,"phase":0,"sequence":20,"prices":[175,180,170,195,179,184,178,174,166,185],"times":[1101,661,621,648,646,744,696,648,1131],"next_num":9,"trial_type":"ticket-choose","trial_index":40,"time_elapsed":425892,"internal_node_id":"0.0-40.0"},{"result":169,"points":2,"place":1,"phase":0,"sequence":21,"prices":[175,179,169,193,178,182,177,172,164,183],"times":[943,688,1140],"next_num":3,"trial_type":"ticket-choose","trial_index":41,"time_elapsed":431389,"internal_node_id":"0.0-41.0"},{"result":157,"points":3,"place":0,"phase":0,"sequence":22,"prices":[157,184,163,174,181,190,168,187,189,177],"times":[1142],"next_num":1,"trial_type":"ticket-choose","trial_index":42,"time_elapsed":434922,"internal_node_id":"0.0-42.0"},{"result":159,"points":3,"place":0,"phase":0,"sequence":23,"prices":[159,178,170,174,176,194,173,182,185,175],"times":[1079],"next_num":1,"trial_type":"ticket-choose","trial_index":43,"time_elapsed":438411,"internal_node_id":"0.0-43.0"},{"result":150,"points":3,"place":0,"phase":0,"sequence":24,"prices":[175,150,164,155,171,199,158,180,184,196],"times":[1065,1250],"next_num":2,"trial_type":"ticket-choose","trial_index":44,"time_elapsed":443424,"internal_node_id":"0.0-44.0"},{"result":171,"points":1,"place":2,"phase":0,"sequence":25,"prices":[195,177,197,179,171,173,175,156,163,204],"times":[1047,648,736,668,1402],"next_num":5,"trial_type":"ticket-choose","trial_index":45,"time_elapsed":451457,"internal_node_id":"0.0-45.0"},{"result":168,"points":2,"place":1,"phase":0,"sequence":26,"prices":[174,178,176,192,177,181,168,171,163,182],"times":[1072,585,629,671,637,682,1167],"next_num":7,"trial_type":"ticket-choose","trial_index":46,"time_elapsed":460450,"internal_node_id":"0.0-46.0"},{"result":179,"points":1,"place":4,"phase":0,"sequence":27,"prices":[170,183,172,175,180,189,174,187,188,179],"times":[987,636,665,665,673,759,931,829,1079,1507],"next_num":10,"trial_type":"ticket-choose","trial_index":47,"time_elapsed":473490,"internal_node_id":"0.0-47.0"},{"result":164,"points":3,"place":0,"phase":0,"sequence":28,"prices":[175,179,169,193,178,182,177,172,164,183],"times":[1088,597,1310,623,620,627,885,636,1142],"next_num":9,"trial_type":"ticket-choose","trial_index":48,"time_elapsed":485319,"internal_node_id":"0.0-48.0"},{"result":162,"points":3,"place":0,"phase":0,"sequence":29,"prices":[179,174,172,162,202,184,165,197,185,169],"times":[1045,588,635,1118],"next_num":4,"trial_type":"ticket-choose","trial_index":49,"time_elapsed":491736,"internal_node_id":"0.0-49.0"},{"result":167,"points":3,"place":0,"phase":0,"sequence":30,"prices":[179,174,199,178,196,167,170,184,177,190],"times":[943,574,613,590,699,1218],"next_num":6,"trial_type":"ticket-choose","trial_index":50,"time_elapsed":500316,"internal_node_id":"0.0-50.0"},{"result":165,"points":3,"place":0,"phase":0,"sequence":31,"prices":[180,165,177,193,186,196,187,169,171,182],"times":[920,1128],"next_num":2,"trial_type":"ticket-choose","trial_index":51,"time_elapsed":505003,"internal_node_id":"0.0-51.0"},{"result":157,"points":2,"place":1,"phase":0,"sequence":32,"prices":[188,191,179,157,181,164,166,156,175,182],"times":[1075,656,660,1137],"next_num":4,"trial_type":"ticket-choose","trial_index":52,"time_elapsed":511485,"internal_node_id":"0.0-52.0"},{"result":177,"points":1,"place":2,"phase":0,"sequence":33,"prices":[181,179,199,188,170,172,178,187,191,177],"times":[1174,622,633,643,1857,652,668,799,1018,1404],"next_num":10,"trial_type":"ticket-choose","trial_index":53,"time_elapsed":525832,"internal_node_id":"0.0-53.0"},{"result":161,"points":3,"place":0,"phase":0,"sequence":34,"prices":[161,180,170,174,178,198,173,182,188,176],"times":[1557],"next_num":1,"trial_type":"ticket-choose","trial_index":54,"time_elapsed":529676,"internal_node_id":"0.0-54.0"},{"result":170,"points":2,"place":1,"phase":0,"sequence":35,"prices":[175,180,178,195,179,184,170,174,166,185],"times":[1065,671,622,746,654,1033,1227],"next_num":7,"trial_type":"ticket-choose","trial_index":55,"time_elapsed":539209,"internal_node_id":"0.0-55.0"},{"result":171,"points":3,"place":0,"phase":0,"sequence":36,"prices":[193,173,175,182,179,198,181,171,176,187],"times":[933,1615,666,670,760,659,728,1446],"next_num":8,"trial_type":"ticket-choose","trial_index":56,"time_elapsed":550947,"internal_node_id":"0.0-56.0"},{"result":169,"points":2,"place":1,"phase":0,"sequence":37,"prices":[174,179,177,194,178,183,169,173,165,184],"times":[1073,610,597,853,747,695,1135],"next_num":7,"trial_type":"ticket-choose","trial_index":57,"time_elapsed":560287,"internal_node_id":"0.0-57.0"},{"result":169,"points":1,"place":2,"phase":0,"sequence":38,"prices":[189,185,169,168,167,171,180,173,174,188],"times":[1212,792,1368],"next_num":3,"trial_type":"ticket-choose","trial_index":58,"time_elapsed":566972,"internal_node_id":"0.0-58.0"},{"result":170,"points":2,"place":1,"phase":0,"sequence":39,"prices":[175,180,178,195,179,184,170,174,166,185],"times":[804,630,651,721,654,684,1315],"next_num":7,"trial_type":"ticket-choose","trial_index":59,"time_elapsed":576071,"internal_node_id":"0.0-59.0"},{"result":165,"points":2,"place":1,"phase":0,"sequence":40,"prices":[181,180,191,186,165,197,159,167,194,185],"times":[976,618,660,668,1158],"next_num":5,"trial_type":"ticket-choose","trial_index":60,"time_elapsed":583331,"internal_node_id":"0.0-60.0"},{"result":173,"points":1,"place":2,"phase":0,"sequence":41,"prices":[176,180,170,194,179,183,178,173,165,184],"times":[989,587,635,637,772,684,642,1222],"next_num":8,"trial_type":"ticket-choose","trial_index":61,"time_elapsed":593432,"internal_node_id":"0.0-61.0"},{"result":169,"points":2,"place":1,"phase":0,"sequence":42,"prices":[175,179,177,193,178,182,169,172,164,183],"times":[919,622,621,656,669,668,1130],"next_num":7,"trial_type":"ticket-choose","trial_index":62,"time_elapsed":602476,"internal_node_id":"0.0-62.0"},{"result":160,"points":3,"place":0,"phase":0,"sequence":43,"prices":[175,193,175,160,180,170,175,205,177,167],"times":[1190,650,723,1189],"next_num":4,"trial_type":"ticket-choose","trial_index":63,"time_elapsed":609361,"internal_node_id":"0.0-63.0"},{"result":175,"points":1,"place":4,"phase":0,"sequence":44,"prices":[171,180,172,174,179,188,173,183,186,175],"times":[1075,707,655,677,607,650,869,683,681,1508],"next_num":10,"trial_type":"ticket-choose","trial_index":64,"time_elapsed":621752,"internal_node_id":"0.0-64.0"},{"result":168,"points":2,"place":1,"phase":0,"sequence":45,"prices":[174,178,176,192,177,181,168,171,163,182],"times":[1513,742,726,643,629,669,1110],"next_num":7,"trial_type":"ticket-choose","trial_index":65,"time_elapsed":631154,"internal_node_id":"0.0-65.0"},{"result":174,"points":2,"place":1,"phase":0,"sequence":46,"prices":[180,175,173,177,191,190,184,196,174,181],"times":[1192,1476,643,660,2317,661,716,714,1133],"next_num":9,"trial_type":"ticket-choose","trial_index":66,"time_elapsed":644674,"internal_node_id":"0.0-66.0"},{"result":169,"points":2,"place":1,"phase":0,"sequence":47,"prices":[174,179,169,194,178,183,177,173,165,184],"times":[1229,723,1134],"next_num":3,"trial_type":"ticket-choose","trial_index":67,"time_elapsed":650235,"internal_node_id":"0.0-67.0"},{"result":165,"points":3,"place":0,"phase":0,"sequence":48,"prices":[176,180,178,194,179,183,170,173,165,184],"times":[856,875,842,695,675,712,677,1050,1157],"next_num":9,"trial_type":"ticket-choose","trial_index":68,"time_elapsed":661753,"internal_node_id":"0.0-68.0"},{"result":165,"points":3,"place":0,"phase":0,"sequence":49,"prices":[165,187,173,177,186,196,176,191,192,181],"times":[1651],"next_num":1,"trial_type":"ticket-choose","trial_index":69,"time_elapsed":665721,"internal_node_id":"0.0-69.0"},{"responses":[{"value":0,"offby":0,"category":"$140 - $250","category_index":0},{"value":1,"offby":1,"category":"$151 - $160","category_index":1},{"value":4,"offby":0,"category":"$161 - $170","category_index":2},{"value":5,"offby":-1,"category":"$171 - $180","category_index":3},{"value":1,"offby":-6,"category":"$181 - $190","category_index":4},{"value":1,"offby":-2,"category":"$191 - $200","category_index":5},{"value":0,"offby":0,"category":"$201 - $210","category_index":6}],"phase":0,"number":1,"trial_type":"bar-choose","trial_index":70,"time_elapsed":691448,"internal_node_id":"0.0-70.0"},{"rt":103311,"url":"\/tickets\/utils\/start2.html","trial_type":"html","trial_index":71,"time_elapsed":796008,"internal_node_id":"0.0-71.0"},{"trial_type":"number-animation","trial_index":72,"time_elapsed":808079,"internal_node_id":"0.0-72.0"},{"phase":1,"sequence":0,"avg":166,"response":135,"trial_type":"training_avg","trial_index":73,"time_elapsed":814827,"internal_node_id":"0.0-73.0"},{"trial_type":"number-animation","trial_index":74,"time_elapsed":825308,"internal_node_id":"0.0-74.0"},{"phase":1,"sequence":1,"avg":198,"response":190,"trial_type":"training_avg","trial_index":75,"time_elapsed":839696,"internal_node_id":"0.0-75.0"},{"trial_type":"number-animation","trial_index":76,"time_elapsed":850281,"internal_node_id":"0.0-76.0"},{"phase":1,"sequence":2,"avg":177,"response":133,"trial_type":"training_avg","trial_index":77,"time_elapsed":855759,"internal_node_id":"0.0-77.0"},{"trial_type":"number-animation","trial_index":78,"time_elapsed":865560,"internal_node_id":"0.0-78.0"},{"phase":1,"sequence":3,"avg":190,"response":184,"trial_type":"training_avg","trial_index":79,"time_elapsed":874481,"internal_node_id":"0.0-79.0"},{"trial_type":"number-animation","trial_index":80,"time_elapsed":883572,"internal_node_id":"0.0-80.0"},{"phase":1,"sequence":4,"avg":201,"response":218,"trial_type":"training_avg","trial_index":81,"time_elapsed":893184,"internal_node_id":"0.0-81.0"},{"responses":[{"value":1,"offby":0,"category":"$30 - $75","category_index":0},{"value":2,"offby":0,"category":"$76 - $120","category_index":1},{"value":3,"offby":-1,"category":"$121 - $165","category_index":2},{"value":5,"offby":-1,"category":"$166 - $210","category_index":3},{"value":8,"offby":2,"category":"$211 - $255","category_index":4},{"value":1,"offby":0,"category":"$256 - $300","category_index":5},{"value":0,"offby":0,"category":"$301 - $345","category_index":6}],"phase":1,"number":0,"trial_type":"bar-choose","trial_index":82,"time_elapsed":915182,"internal_node_id":"0.0-82.0"},{"rt":5617,"url":"\/tickets\/utils\/testing2.html","trial_type":"html","trial_index":83,"time_elapsed":921976,"internal_node_id":"0.0-83.0"},{"phase":1,"order":[25,45,40,6,13,41,49,21,34,16,1,20,11,46,22,27,5,4,24,31,19,8,44,9,42,39,7,33,38,48,47,14,3,43,12,29,23,36,37,2,26,17,0,10,18,35,30,28,15,32],"trial_type":"store_order","trial_index":84,"time_elapsed":922981,"internal_node_id":"0.0-84.0"},{"result":95,"points":3,"place":0,"phase":1,"sequence":0,"prices":[95,205,106,151,186,271,145,210,215,181],"times":[8607],"next_num":1,"trial_type":"ticket-choose","trial_index":85,"time_elapsed":934300,"internal_node_id":"0.0-85.0"},{"result":150,"points":1,"place":4,"phase":1,"sequence":1,"prices":[176,150,141,91,290,201,106,266,206,126],"times":[1138,1502],"next_num":2,"trial_type":"ticket-choose","trial_index":86,"time_elapsed":939723,"internal_node_id":"0.0-86.0"},{"result":150,"points":1,"place":2,"phase":1,"sequence":2,"prices":[176,150,276,171,261,116,130,201,166,231],"times":[1262,1254],"next_num":2,"trial_type":"ticket-choose","trial_index":87,"time_elapsed":945310,"internal_node_id":"0.0-87.0"},{"result":126,"points":2,"place":1,"phase":1,"sequence":3,"prices":[150,175,166,251,170,196,126,145,105,201],"times":[1650,581,700,588,564,582,1128],"next_num":7,"trial_type":"ticket-choose","trial_index":88,"time_elapsed":954785,"internal_node_id":"0.0-88.0"},{"result":131,"points":2,"place":1,"phase":1,"sequence":4,"prices":[160,180,170,251,176,195,131,146,105,200],"times":[1368,614,512,578,591,603,1220],"next_num":7,"trial_type":"ticket-choose","trial_index":89,"time_elapsed":963935,"internal_node_id":"0.0-89.0"},{"result":106,"points":3,"place":0,"phase":1,"sequence":5,"prices":[180,106,166,245,211,261,215,125,135,190],"times":[943,1305],"next_num":2,"trial_type":"ticket-choose","trial_index":90,"time_elapsed":968690,"internal_node_id":"0.0-90.0"},{"result":130,"points":2,"place":1,"phase":1,"sequence":6,"prices":[155,225,245,130,176,106,180,211,165,200],"times":[1188,654,621,1157],"next_num":4,"trial_type":"ticket-choose","trial_index":91,"time_elapsed":975180,"internal_node_id":"0.0-91.0"},{"result":120,"points":2,"place":1,"phase":1,"sequence":7,"prices":[150,170,160,241,166,186,120,136,96,191],"times":[1108,573,606,618,620,597,1198],"next_num":7,"trial_type":"ticket-choose","trial_index":92,"time_elapsed":984044,"internal_node_id":"0.0-92.0"},{"result":106,"points":2,"place":1,"phase":1,"sequence":8,"prices":[185,180,235,210,106,266,76,115,250,205],"times":[866,581,714,645,1257],"next_num":5,"trial_type":"ticket-choose","trial_index":93,"time_elapsed":991321,"internal_node_id":"0.0-93.0"},{"result":95,"points":3,"place":0,"phase":1,"sequence":9,"prices":[150,171,121,241,165,185,160,136,95,191],"times":[1006,534,566,630,792,575,628,1221,1312],"next_num":9,"trial_type":"ticket-choose","trial_index":94,"time_elapsed":1002758,"internal_node_id":"0.0-94.0"},{"result":125,"points":2,"place":1,"phase":1,"sequence":10,"prices":[156,175,125,245,170,190,165,140,101,196],"times":[1116,627,1088],"next_num":3,"trial_type":"ticket-choose","trial_index":95,"time_elapsed":1008413,"internal_node_id":"0.0-95.0"},{"result":95,"points":3,"place":0,"phase":1,"sequence":11,"prices":[150,170,160,240,166,185,121,136,95,191],"times":[1039,581,688,585,582,580,616,1067,1237],"next_num":9,"trial_type":"ticket-choose","trial_index":96,"time_elapsed":1019330,"internal_node_id":"0.0-96.0"},{"result":130,"points":2,"place":1,"phase":1,"sequence":12,"prices":[156,181,130,255,175,200,170,150,111,205],"times":[1091,806,1224],"next_num":3,"trial_type":"ticket-choose","trial_index":97,"time_elapsed":1025501,"internal_node_id":"0.0-97.0"},{"result":165,"points":2,"place":1,"phase":1,"sequence":13,"prices":[175,211,266,286,111,216,220,245,230,165],"times":[1098,607,589,582,607,707,830,829,745,1421],"next_num":10,"trial_type":"ticket-choose","trial_index":98,"time_elapsed":1037828,"internal_node_id":"0.0-98.0"},{"result":145,"points":1,"place":3,"phase":1,"sequence":14,"prices":[145,171,161,245,165,191,120,140,100,196],"times":[1277],"next_num":1,"trial_type":"ticket-choose","trial_index":99,"time_elapsed":1042187,"internal_node_id":"0.0-99.0"},{"result":196,"points":1,"place":4,"phase":1,"sequence":15,"prices":[120,221,135,185,200,261,181,251,255,196],"times":[1569,575,650,756,686,580,715,908,689,1342],"next_num":10,"trial_type":"ticket-choose","trial_index":100,"time_elapsed":1054912,"internal_node_id":"0.0-100.0"},{"result":126,"points":2,"place":1,"phase":1,"sequence":16,"prices":[156,176,165,246,171,190,126,141,101,196],"times":[1078,636,732,572,597,603,1170],"next_num":7,"trial_type":"ticket-choose","trial_index":101,"time_elapsed":1063861,"internal_node_id":"0.0-101.0"},{"result":125,"points":2,"place":1,"phase":1,"sequence":17,"prices":[155,175,166,245,171,190,125,140,101,196],"times":[1059,577,567,663,722,604,1323],"next_num":7,"trial_type":"ticket-choose","trial_index":102,"time_elapsed":1072840,"internal_node_id":"0.0-102.0"},{"result":86,"points":3,"place":0,"phase":1,"sequence":18,"prices":[86,180,130,151,170,271,145,191,220,160],"times":[1131],"next_num":1,"trial_type":"ticket-choose","trial_index":103,"time_elapsed":1076669,"internal_node_id":"0.0-103.0"},{"result":66,"points":3,"place":0,"phase":1,"sequence":19,"prices":[66,201,96,150,185,230,121,216,225,165],"times":[1054],"next_num":1,"trial_type":"ticket-choose","trial_index":104,"time_elapsed":1080582,"internal_node_id":"0.0-104.0"},{"result":121,"points":2,"place":1,"phase":1,"sequence":20,"prices":[146,170,121,245,166,190,161,141,100,195],"times":[1131,614,1188],"next_num":3,"trial_type":"ticket-choose","trial_index":105,"time_elapsed":1086378,"internal_node_id":"0.0-105.0"},{"result":105,"points":3,"place":0,"phase":1,"sequence":21,"prices":[161,180,131,251,175,196,171,146,105,201],"times":[931,666,1081,699,598,590,604,926,1162],"next_num":9,"trial_type":"ticket-choose","trial_index":106,"time_elapsed":1098042,"internal_node_id":"0.0-106.0"},{"result":30,"points":3,"place":0,"phase":1,"sequence":22,"prices":[155,30,101,55,136,276,70,181,200,261],"times":[918,1257],"next_num":2,"trial_type":"ticket-choose","trial_index":107,"time_elapsed":1103055,"internal_node_id":"0.0-107.0"},{"result":105,"points":3,"place":0,"phase":1,"sequence":23,"prices":[160,180,130,251,176,195,170,146,105,200],"times":[1072,603,1428,659,642,588,629,946,1348],"next_num":9,"trial_type":"ticket-choose","trial_index":108,"time_elapsed":1115069,"internal_node_id":"0.0-108.0"},{"result":81,"points":3,"place":0,"phase":1,"sequence":24,"prices":[155,245,155,81,180,130,156,306,166,115],"times":[1085,671,2215,1095],"next_num":4,"trial_type":"ticket-choose","trial_index":109,"time_elapsed":1123059,"internal_node_id":"0.0-109.0"},{"result":136,"points":1,"place":2,"phase":1,"sequence":25,"prices":[255,166,266,175,136,145,155,61,96,301],"times":[945,822,706,691,1173],"next_num":5,"trial_type":"ticket-choose","trial_index":110,"time_elapsed":1130513,"internal_node_id":"0.0-110.0"},{"result":126,"points":2,"place":1,"phase":1,"sequence":26,"prices":[151,175,166,251,170,195,126,146,105,201],"times":[1108,612,623,644,591,799,1250],"next_num":7,"trial_type":"ticket-choose","trial_index":111,"time_elapsed":1139812,"internal_node_id":"0.0-111.0"},{"result":175,"points":1,"place":4,"phase":1,"sequence":27,"prices":[130,195,141,155,181,226,150,216,221,175],"times":[1388,668,670,689,674,661,702,793,1133,1191],"next_num":11,"trial_type":"ticket-choose","trial_index":112,"time_elapsed":1152750,"internal_node_id":"0.0-112.0"},{"result":130,"points":3,"place":0,"phase":1,"sequence":28,"prices":[185,175,276,221,130,141,171,216,235,165],"times":[1055,689,775,640,1181],"next_num":5,"trial_type":"ticket-choose","trial_index":113,"time_elapsed":1160186,"internal_node_id":"0.0-113.0"},{"result":145,"points":2,"place":1,"phase":1,"sequence":29,"prices":[246,145,155,191,176,270,185,136,160,215],"times":[764,1291],"next_num":2,"trial_type":"ticket-choose","trial_index":114,"time_elapsed":1164729,"internal_node_id":"0.0-114.0"},{"result":145,"points":3,"place":0,"phase":1,"sequence":30,"prices":[181,156,145,165,236,231,201,260,150,185],"times":[1081,798,1118],"next_num":3,"trial_type":"ticket-choose","trial_index":115,"time_elapsed":1170502,"internal_node_id":"0.0-115.0"},{"result":130,"points":2,"place":1,"phase":1,"sequence":31,"prices":[155,181,170,255,176,200,130,150,110,205],"times":[998,677,761,647,661,698,1462],"next_num":7,"trial_type":"ticket-choose","trial_index":116,"time_elapsed":1179893,"internal_node_id":"0.0-116.0"},{"result":145,"points":1,"place":2,"phase":1,"sequence":32,"prices":[150,176,126,251,171,195,165,145,105,200],"times":[1035,629,1702,722,632,688,1032,1364],"next_num":8,"trial_type":"ticket-choose","trial_index":117,"time_elapsed":1192243,"internal_node_id":"0.0-117.0"},{"result":65,"points":2,"place":1,"phase":1,"sequence":33,"prices":[220,236,176,65,185,101,110,61,156,191],"times":[965,734,841,1281],"next_num":4,"trial_type":"ticket-choose","trial_index":118,"time_elapsed":1198960,"internal_node_id":"0.0-118.0"},{"result":131,"points":2,"place":1,"phase":1,"sequence":34,"prices":[161,180,171,250,176,195,131,146,105,201],"times":[1678,1749,927,676,691,635,1111],"next_num":7,"trial_type":"ticket-choose","trial_index":119,"time_elapsed":1210157,"internal_node_id":"0.0-119.0"},{"result":150,"points":1,"place":4,"phase":1,"sequence":35,"prices":[111,231,131,146,171,295,141,241,271,150],"times":[1832,626,905,755,666,620,887,688,650,1277],"next_num":10,"trial_type":"ticket-choose","trial_index":120,"time_elapsed":1223529,"internal_node_id":"0.0-120.0"},{"result":120,"points":2,"place":1,"phase":1,"sequence":36,"prices":[145,170,160,245,165,190,120,141,100,195],"times":[1221,639,594,643,621,623,1424],"next_num":7,"trial_type":"ticket-choose","trial_index":121,"time_elapsed":1232959,"internal_node_id":"0.0-121.0"},{"result":125,"points":1,"place":2,"phase":1,"sequence":37,"prices":[226,205,125,120,115,135,180,145,150,220],"times":[983,838,1530],"next_num":3,"trial_type":"ticket-choose","trial_index":122,"time_elapsed":1239431,"internal_node_id":"0.0-122.0"},{"result":120,"points":2,"place":1,"phase":1,"sequence":38,"prices":[186,156,191,120,195,145,45,130,246,176],"times":[886,1342,670,1376],"next_num":4,"trial_type":"ticket-choose","trial_index":123,"time_elapsed":1246504,"internal_node_id":"0.0-123.0"},{"result":126,"points":2,"place":1,"phase":1,"sequence":39,"prices":[151,176,126,251,170,196,165,145,105,201],"times":[1090,652,1855],"next_num":3,"trial_type":"ticket-choose","trial_index":124,"time_elapsed":1252764,"internal_node_id":"0.0-124.0"},{"result":105,"points":3,"place":0,"phase":1,"sequence":40,"prices":[105,216,146,165,210,260,161,235,241,185],"times":[1202],"next_num":1,"trial_type":"ticket-choose","trial_index":125,"time_elapsed":1256280,"internal_node_id":"0.0-125.0"},{"result":120,"points":2,"place":1,"phase":1,"sequence":41,"prices":[150,171,120,241,165,185,160,135,96,190],"times":[1181,1713,1020],"next_num":3,"trial_type":"ticket-choose","trial_index":126,"time_elapsed":1262925,"internal_node_id":"0.0-126.0"},{"result":126,"points":2,"place":1,"phase":1,"sequence":42,"prices":[156,175,126,246,170,190,165,140,100,196],"times":[1657,661,1221],"next_num":3,"trial_type":"ticket-choose","trial_index":127,"time_elapsed":1269459,"internal_node_id":"0.0-127.0"},{"result":131,"points":2,"place":1,"phase":1,"sequence":43,"prices":[156,181,131,256,176,200,171,151,111,206],"times":[1096,661,1168],"next_num":3,"trial_type":"ticket-choose","trial_index":128,"time_elapsed":1275300,"internal_node_id":"0.0-128.0"},{"result":120,"points":2,"place":1,"phase":1,"sequence":44,"prices":[146,171,120,245,165,191,160,140,100,196],"times":[1223,669,1254],"next_num":3,"trial_type":"ticket-choose","trial_index":129,"time_elapsed":1281461,"internal_node_id":"0.0-129.0"},{"result":51,"points":3,"place":0,"phase":1,"sequence":45,"prices":[221,175,51,196,146,130,166,80,126,156],"times":[1241,696,1212],"next_num":3,"trial_type":"ticket-choose","trial_index":130,"time_elapsed":1287491,"internal_node_id":"0.0-130.0"},{"result":81,"points":3,"place":0,"phase":1,"sequence":46,"prices":[81,205,130,151,191,261,145,210,250,165],"times":[1474],"next_num":1,"trial_type":"ticket-choose","trial_index":131,"time_elapsed":1291566,"internal_node_id":"0.0-131.0"},{"result":75,"points":3,"place":0,"phase":1,"sequence":47,"prices":[75,171,131,151,161,250,145,190,206,156],"times":[1612],"next_num":1,"trial_type":"ticket-choose","trial_index":132,"time_elapsed":1295836,"internal_node_id":"0.0-132.0"},{"result":131,"points":2,"place":1,"phase":1,"sequence":48,"prices":[156,181,171,256,175,200,131,150,110,206],"times":[2047,636,612,654,662,667,1234],"next_num":7,"trial_type":"ticket-choose","trial_index":133,"time_elapsed":1306033,"internal_node_id":"0.0-133.0"},{"result":155,"points":1,"place":4,"phase":1,"sequence":49,"prices":[135,180,141,151,175,220,145,196,211,155],"times":[1138,652,611,654,650,622,636,720,626,1960],"next_num":11,"trial_type":"ticket-choose","trial_index":134,"time_elapsed":1318707,"internal_node_id":"0.0-134.0"},{"responses":[{"value":1,"offby":0,"category":"$30 - $75","category_index":0},{"value":2,"offby":0,"category":"$76 - $120","category_index":1},{"value":5,"offby":1,"category":"$121 - $165","category_index":2},{"value":3,"offby":-3,"category":"$166 - $210","category_index":3},{"value":1,"offby":-5,"category":"$211 - $255","category_index":4},{"value":1,"offby":0,"category":"$256 - $300","category_index":5},{"value":0,"offby":0,"category":"$301 - $345","category_index":6}],"phase":1,"number":1,"trial_type":"bar-choose","trial_index":135,"time_elapsed":1339494,"internal_node_id":"0.0-135.0"},{"special_comment":"no","trial_type":"special_sequence","trial_index":136,"time_elapsed":1347807,"internal_node_id":"0.0-136.0"},{"during":"Nothing","bonus":288,"trial_type":"final","trial_index":137,"time_elapsed":1366686,"internal_node_id":"0.0-137.0"}],"bonus":288}