{"start_time":"2017-02-27 11:01:18","end_time":"2017-02-27 11:23:04","points_phase0":115,"points_phase1":117,"phase_order":0,"age":32,"gender":"m","tries":2,"during":"Nothing","worker_id":"A1UCB0D27PY623","assignment_id":"3X87C8JFV74HXKZJS0QQN1DTPEBSQM","data":[{"rt":17122,"url":"\/tickets\/utils\/consent.html","trial_type":"html","trial_index":0,"time_elapsed":17202,"internal_node_id":"0.0-0.0"},{"age":32,"gender":"m","trial_type":"age","trial_index":1,"time_elapsed":21445,"internal_node_id":"0.0-1.0"},{"worker_id":"A1UCB0D27PY623","trial_type":"workerid","trial_index":2,"time_elapsed":29172,"internal_node_id":"0.0-2.0"},{"tries":2,"trial_type":"instructions_check","trial_index":3,"time_elapsed":67681,"internal_node_id":"0.0-3.0"},{"rt":6767,"url":"\/tickets\/utils\/start.html","trial_type":"html","trial_index":4,"time_elapsed":75578,"internal_node_id":"0.0-4.0"},{"trial_type":"number-animation","trial_index":5,"time_elapsed":87939,"internal_node_id":"0.0-5.0"},{"phase":0,"sequence":0,"avg":180,"response":180,"trial_type":"training_avg","trial_index":6,"time_elapsed":94365,"internal_node_id":"0.0-6.0"},{"trial_type":"number-animation","trial_index":7,"time_elapsed":104772,"internal_node_id":"0.0-7.0"},{"phase":0,"sequence":1,"avg":178,"response":180,"trial_type":"training_avg","trial_index":8,"time_elapsed":109751,"internal_node_id":"0.0-8.0"},{"trial_type":"number-animation","trial_index":9,"time_elapsed":118806,"internal_node_id":"0.0-9.0"},{"phase":0,"sequence":2,"avg":176,"response":177,"trial_type":"training_avg","trial_index":10,"time_elapsed":123256,"internal_node_id":"0.0-10.0"},{"trial_type":"number-animation","trial_index":11,"time_elapsed":133293,"internal_node_id":"0.0-11.0"},{"phase":0,"sequence":3,"avg":178,"response":175,"trial_type":"training_avg","trial_index":12,"time_elapsed":137559,"internal_node_id":"0.0-12.0"},{"trial_type":"number-animation","trial_index":13,"time_elapsed":147261,"internal_node_id":"0.0-13.0"},{"phase":0,"sequence":4,"avg":179,"response":180,"trial_type":"training_avg","trial_index":14,"time_elapsed":152729,"internal_node_id":"0.0-14.0"},{"responses":[{"value":0,"offby":0,"category":"$140 - $250","category_index":0},{"value":2,"offby":2,"category":"$151 - $160","category_index":1},{"value":4,"offby":0,"category":"$161 - $170","category_index":2},{"value":6,"offby":0,"category":"$171 - $180","category_index":3},{"value":5,"offby":-2,"category":"$181 - $190","category_index":4},{"value":3,"offby":0,"category":"$191 - $200","category_index":5},{"value":0,"offby":0,"category":"$201 - $210","category_index":6}],"phase":0,"number":0,"trial_type":"bar-choose","trial_index":15,"time_elapsed":218466,"internal_node_id":"0.0-15.0"},{"rt":14004,"url":"\/tickets\/\/utils\/testing.html","trial_type":"html","trial_index":16,"time_elapsed":233594,"internal_node_id":"0.0-16.0"},{"phase":0,"order":[13,4,24,5,34,43,39,16,27,31,18,32,38,48,46,17,29,49,42,12,2,19,22,3,23,44,41,45,28,8,25,9,20,1,30,10,36,6,0,33,47,7,21,26,15,14,35,40,11,37],"trial_type":"store_order","trial_index":17,"time_elapsed":234596,"internal_node_id":"0.0-17.0"},{"result":126,"points":3,"place":0,"phase":0,"sequence":-1,"prices":[184,180,224,165,181,199,185,193,218,126],"times":[1791,1151,958,1845,823,822,878,848,854,1389],"next_num":10,"trial_type":"ticket-choose","trial_index":18,"time_elapsed":250068,"internal_node_id":"0.0-18.0"},{"rt":15639,"url":"\/tickets\/utils\/testing_after.html","trial_type":"html","trial_index":19,"time_elapsed":266826,"internal_node_id":"0.0-19.0"},{"result":170,"points":2,"place":1,"phase":0,"sequence":0,"prices":[176,180,178,194,179,183,170,173,165,184],"times":[1663,677,604,694,845,686,1562],"next_num":7,"trial_type":"ticket-choose","trial_index":20,"time_elapsed":277632,"internal_node_id":"0.0-20.0"},{"result":169,"points":2,"place":1,"phase":0,"sequence":1,"prices":[175,179,177,193,178,182,169,172,164,183],"times":[1266,576,574,552,666,693,1248],"next_num":7,"trial_type":"ticket-choose","trial_index":21,"time_elapsed":286442,"internal_node_id":"0.0-21.0"},{"result":176,"points":1,"place":4,"phase":0,"sequence":2,"prices":[161,180,170,174,178,198,173,182,188,176],"times":[2175,518,560,551,494,703,1000,678,919,834],"next_num":10,"trial_type":"ticket-choose","trial_index":22,"time_elapsed":298926,"internal_node_id":"0.0-22.0"},{"result":169,"points":2,"place":1,"phase":0,"sequence":3,"prices":[175,179,177,193,178,182,169,172,164,183],"times":[3310,724,671,783,872,1205,1176],"next_num":7,"trial_type":"ticket-choose","trial_index":23,"time_elapsed":310908,"internal_node_id":"0.0-23.0"},{"result":159,"points":3,"place":0,"phase":0,"sequence":4,"prices":[181,180,191,186,165,197,159,167,194,185],"times":[751,615,607,565,1679,582,1007],"next_num":7,"trial_type":"ticket-choose","trial_index":24,"time_elapsed":320333,"internal_node_id":"0.0-24.0"},{"result":157,"points":2,"place":1,"phase":0,"sequence":5,"prices":[188,191,179,157,181,164,166,156,175,182],"times":[726,583,663,1015],"next_num":4,"trial_type":"ticket-choose","trial_index":25,"time_elapsed":325870,"internal_node_id":"0.0-25.0"},{"result":156,"points":3,"place":0,"phase":0,"sequence":6,"prices":[195,177,197,179,171,173,175,156,163,204],"times":[720,556,554,579,621,588,806,1003],"next_num":8,"trial_type":"ticket-choose","trial_index":26,"time_elapsed":334847,"internal_node_id":"0.0-26.0"},{"result":163,"points":3,"place":0,"phase":0,"sequence":7,"prices":[174,178,168,192,177,181,176,171,163,182],"times":[975,517,1137,599,592,601,973,975,1088],"next_num":9,"trial_type":"ticket-choose","trial_index":27,"time_elapsed":346097,"internal_node_id":"0.0-27.0"},{"result":183,"points":1,"place":4,"phase":0,"sequence":8,"prices":[168,188,171,181,184,196,180,194,195,183],"times":[881,467,511,534,624,623,622,719,727,824],"next_num":10,"trial_type":"ticket-choose","trial_index":28,"time_elapsed":356409,"internal_node_id":"0.0-28.0"},{"result":177,"points":1,"place":4,"phase":0,"sequence":9,"prices":[157,184,163,174,181,190,168,187,189,177],"times":[1638,576,649,616,559,583,917,670,752,646],"next_num":10,"trial_type":"ticket-choose","trial_index":29,"time_elapsed":367753,"internal_node_id":"0.0-29.0"},{"result":164,"points":3,"place":0,"phase":0,"sequence":10,"prices":[173,178,168,193,177,182,176,172,164,183],"times":[1388,615,999,558,577,598,672,1407,896],"next_num":9,"trial_type":"ticket-choose","trial_index":30,"time_elapsed":379043,"internal_node_id":"0.0-30.0"},{"result":173,"points":1,"place":2,"phase":0,"sequence":11,"prices":[171,180,172,174,179,188,173,183,186,175],"times":[3797,2384,541,536,524,673,1022],"next_num":7,"trial_type":"ticket-choose","trial_index":31,"time_elapsed":391546,"internal_node_id":"0.0-31.0"},{"result":177,"points":1,"place":2,"phase":0,"sequence":12,"prices":[181,179,199,188,170,172,178,187,191,177],"times":[697,524,542,584,567,552,550,668,751,662],"next_num":10,"trial_type":"ticket-choose","trial_index":32,"time_elapsed":401451,"internal_node_id":"0.0-32.0"},{"result":171,"points":3,"place":0,"phase":0,"sequence":13,"prices":[193,173,175,182,179,198,181,171,176,187],"times":[880,1641,506,507,552,542,535,1311],"next_num":8,"trial_type":"ticket-choose","trial_index":33,"time_elapsed":411484,"internal_node_id":"0.0-33.0"},{"result":166,"points":3,"place":0,"phase":0,"sequence":14,"prices":[179,186,197,201,166,187,188,193,190,177],"times":[636,541,558,655,952],"next_num":5,"trial_type":"ticket-choose","trial_index":34,"time_elapsed":417581,"internal_node_id":"0.0-34.0"},{"result":163,"points":3,"place":0,"phase":0,"sequence":15,"prices":[174,178,168,192,177,181,176,171,163,182],"times":[880,519,1313,553,498,560,560,686,966],"next_num":9,"trial_type":"ticket-choose","trial_index":35,"time_elapsed":427585,"internal_node_id":"0.0-35.0"},{"result":174,"points":1,"place":4,"phase":0,"sequence":16,"prices":[166,190,170,173,178,203,172,192,198,174],"times":[1389,438,483,502,561,543,577,524,677,703],"next_num":10,"trial_type":"ticket-choose","trial_index":36,"time_elapsed":437592,"internal_node_id":"0.0-36.0"},{"result":165,"points":3,"place":0,"phase":0,"sequence":17,"prices":[175,189,193,170,179,165,180,186,177,184],"times":[958,576,534,543,599,1110],"next_num":6,"trial_type":"ticket-choose","trial_index":37,"time_elapsed":444793,"internal_node_id":"0.0-37.0"},{"result":160,"points":3,"place":0,"phase":0,"sequence":18,"prices":[175,193,175,160,180,170,175,205,177,167],"times":[808,582,521,943],"next_num":4,"trial_type":"ticket-choose","trial_index":38,"time_elapsed":450153,"internal_node_id":"0.0-38.0"},{"result":165,"points":3,"place":0,"phase":0,"sequence":19,"prices":[176,180,178,194,179,183,170,173,165,184],"times":[664,575,535,543,518,568,1064,742,936],"next_num":9,"trial_type":"ticket-choose","trial_index":39,"time_elapsed":459675,"internal_node_id":"0.0-39.0"},{"result":169,"points":2,"place":1,"phase":0,"sequence":20,"prices":[174,179,169,194,178,183,177,173,165,184],"times":[978,514,1376],"next_num":3,"trial_type":"ticket-choose","trial_index":40,"time_elapsed":464795,"internal_node_id":"0.0-40.0"},{"result":164,"points":3,"place":0,"phase":0,"sequence":21,"prices":[173,178,168,193,177,182,176,172,164,183],"times":[729,461,1464,581,513,591,511,860,831],"next_num":9,"trial_type":"ticket-choose","trial_index":41,"time_elapsed":474677,"internal_node_id":"0.0-41.0"},{"result":168,"points":2,"place":1,"phase":0,"sequence":22,"prices":[173,178,176,193,177,182,168,172,164,183],"times":[821,520,857,592,551,536,1887],"next_num":7,"trial_type":"ticket-choose","trial_index":42,"time_elapsed":483509,"internal_node_id":"0.0-42.0"},{"result":165,"points":3,"place":0,"phase":0,"sequence":23,"prices":[174,179,169,194,178,183,177,173,165,184],"times":[1848,1175,551,447,496,601,518,629,1031],"next_num":9,"trial_type":"ticket-choose","trial_index":43,"time_elapsed":494279,"internal_node_id":"0.0-43.0"},{"result":168,"points":2,"place":1,"phase":0,"sequence":24,"prices":[173,178,176,193,177,182,168,172,164,183],"times":[744,559,551,551,527,536,2238],"next_num":7,"trial_type":"ticket-choose","trial_index":44,"time_elapsed":502946,"internal_node_id":"0.0-44.0"},{"result":155,"points":2,"place":1,"phase":0,"sequence":25,"prices":[175,150,164,155,171,199,158,180,184,196],"times":[646,496,1192,911],"next_num":4,"trial_type":"ticket-choose","trial_index":45,"time_elapsed":508539,"internal_node_id":"0.0-45.0"},{"result":169,"points":2,"place":1,"phase":0,"sequence":26,"prices":[180,165,177,193,186,196,187,169,171,182],"times":[703,902,488,544,526,575,582,1367],"next_num":8,"trial_type":"ticket-choose","trial_index":46,"time_elapsed":517457,"internal_node_id":"0.0-46.0"},{"result":162,"points":3,"place":0,"phase":0,"sequence":27,"prices":[179,174,172,162,202,184,165,197,185,169],"times":[664,750,547,912],"next_num":4,"trial_type":"ticket-choose","trial_index":47,"time_elapsed":522810,"internal_node_id":"0.0-47.0"},{"result":159,"points":3,"place":0,"phase":0,"sequence":28,"prices":[159,178,170,174,176,194,173,182,185,175],"times":[1290],"next_num":1,"trial_type":"ticket-choose","trial_index":48,"time_elapsed":526014,"internal_node_id":"0.0-48.0"},{"result":165,"points":3,"place":0,"phase":0,"sequence":29,"prices":[176,180,170,194,179,183,178,173,165,184],"times":[787,550,581,602,553,542,630,634,853],"next_num":9,"trial_type":"ticket-choose","trial_index":49,"time_elapsed":535239,"internal_node_id":"0.0-49.0"},{"result":180,"points":1,"place":4,"phase":0,"sequence":30,"prices":[163,185,165,174,181,198,173,186,187,180],"times":[1339,486,655,541,518,560,591,575,688,734],"next_num":10,"trial_type":"ticket-choose","trial_index":50,"time_elapsed":545549,"internal_node_id":"0.0-50.0"},{"result":165,"points":3,"place":0,"phase":0,"sequence":31,"prices":[176,180,170,194,179,183,178,173,165,184],"times":[1022,1144,486,575,720,679,617,581,1087],"next_num":9,"trial_type":"ticket-choose","trial_index":51,"time_elapsed":555975,"internal_node_id":"0.0-51.0"},{"result":168,"points":2,"place":1,"phase":0,"sequence":32,"prices":[174,178,176,192,177,181,168,171,163,182],"times":[709,569,607,591,582,607,971],"next_num":7,"trial_type":"ticket-choose","trial_index":52,"time_elapsed":563585,"internal_node_id":"0.0-52.0"},{"result":169,"points":2,"place":1,"phase":0,"sequence":33,"prices":[175,179,169,193,178,182,177,172,164,183],"times":[948,535,896],"next_num":3,"trial_type":"ticket-choose","trial_index":53,"time_elapsed":568184,"internal_node_id":"0.0-53.0"},{"result":160,"points":3,"place":0,"phase":0,"sequence":34,"prices":[160,185,170,174,182,196,173,186,194,177],"times":[845],"next_num":1,"trial_type":"ticket-choose","trial_index":54,"time_elapsed":570777,"internal_node_id":"0.0-54.0"},{"result":166,"points":3,"place":0,"phase":0,"sequence":35,"prices":[175,180,170,195,179,184,178,174,166,185],"times":[926,559,870,590,599,648,584,571,983],"next_num":9,"trial_type":"ticket-choose","trial_index":55,"time_elapsed":580585,"internal_node_id":"0.0-55.0"},{"result":169,"points":1,"place":2,"phase":0,"sequence":36,"prices":[189,185,169,168,167,171,180,173,174,188],"times":[726,591,1174],"next_num":3,"trial_type":"ticket-choose","trial_index":56,"time_elapsed":585330,"internal_node_id":"0.0-56.0"},{"result":169,"points":2,"place":1,"phase":0,"sequence":37,"prices":[174,179,177,194,178,183,169,173,165,184],"times":[774,519,543,585,495,517,954],"next_num":7,"trial_type":"ticket-choose","trial_index":57,"time_elapsed":592699,"internal_node_id":"0.0-57.0"},{"result":164,"points":3,"place":0,"phase":0,"sequence":38,"prices":[175,179,169,193,178,182,177,172,164,183],"times":[1589,463,3416,503,494,536,719,631,883],"next_num":9,"trial_type":"ticket-choose","trial_index":58,"time_elapsed":605302,"internal_node_id":"0.0-58.0"},{"result":179,"points":1,"place":4,"phase":0,"sequence":39,"prices":[170,183,172,175,180,189,174,187,188,179],"times":[1405,566,575,535,559,792,824,606,752,606],"next_num":10,"trial_type":"ticket-choose","trial_index":59,"time_elapsed":616150,"internal_node_id":"0.0-59.0"},{"result":174,"points":2,"place":1,"phase":0,"sequence":40,"prices":[180,175,173,177,191,190,184,196,174,181],"times":[1605,726,558,561,598,575,607,678,1528],"next_num":9,"trial_type":"ticket-choose","trial_index":60,"time_elapsed":627071,"internal_node_id":"0.0-60.0"},{"result":169,"points":2,"place":1,"phase":0,"sequence":41,"prices":[174,179,177,194,178,183,169,173,165,184],"times":[815,600,542,655,511,623,1001],"next_num":7,"trial_type":"ticket-choose","trial_index":61,"time_elapsed":634840,"internal_node_id":"0.0-61.0"},{"result":168,"points":2,"place":1,"phase":0,"sequence":42,"prices":[174,178,176,192,177,181,168,171,163,182],"times":[885,495,487,573,561,543,1110],"next_num":7,"trial_type":"ticket-choose","trial_index":62,"time_elapsed":642409,"internal_node_id":"0.0-62.0"},{"result":165,"points":3,"place":0,"phase":0,"sequence":43,"prices":[165,187,173,177,186,196,176,191,192,181],"times":[1047],"next_num":1,"trial_type":"ticket-choose","trial_index":63,"time_elapsed":645442,"internal_node_id":"0.0-63.0"},{"result":170,"points":2,"place":1,"phase":0,"sequence":44,"prices":[175,180,178,195,179,184,170,174,166,185],"times":[817,572,552,542,567,607,865],"next_num":7,"trial_type":"ticket-choose","trial_index":64,"time_elapsed":652978,"internal_node_id":"0.0-64.0"},{"result":170,"points":2,"place":1,"phase":0,"sequence":45,"prices":[175,180,178,195,179,184,170,174,166,185],"times":[895,514,510,528,559,653,980],"next_num":7,"trial_type":"ticket-choose","trial_index":65,"time_elapsed":660595,"internal_node_id":"0.0-65.0"},{"result":154,"points":3,"place":0,"phase":0,"sequence":46,"prices":[188,179,154,183,173,170,177,160,169,175],"times":[1053,495,880],"next_num":3,"trial_type":"ticket-choose","trial_index":66,"time_elapsed":665308,"internal_node_id":"0.0-66.0"},{"result":167,"points":3,"place":0,"phase":0,"sequence":47,"prices":[179,174,199,178,196,167,170,184,177,190],"times":[909,767,528,508,599,922],"next_num":6,"trial_type":"ticket-choose","trial_index":67,"time_elapsed":672413,"internal_node_id":"0.0-67.0"},{"result":166,"points":3,"place":0,"phase":0,"sequence":48,"prices":[175,180,170,195,179,184,178,174,166,185],"times":[516,534,1407,583,552,614,566,600,911],"next_num":9,"trial_type":"ticket-choose","trial_index":68,"time_elapsed":682087,"internal_node_id":"0.0-68.0"},{"result":153,"points":3,"place":0,"phase":0,"sequence":49,"prices":[181,175,182,168,183,173,153,170,193,179],"times":[573,799,1016,1054,552,527,832],"next_num":7,"trial_type":"ticket-choose","trial_index":69,"time_elapsed":690431,"internal_node_id":"0.0-69.0"},{"responses":[{"value":0,"offby":0,"category":"$140 - $250","category_index":0},{"value":2,"offby":2,"category":"$151 - $160","category_index":1},{"value":4,"offby":0,"category":"$161 - $170","category_index":2},{"value":8,"offby":2,"category":"$171 - $180","category_index":3},{"value":4,"offby":-3,"category":"$181 - $190","category_index":4},{"value":2,"offby":-1,"category":"$191 - $200","category_index":5},{"value":0,"offby":0,"category":"$201 - $210","category_index":6}],"phase":0,"number":1,"trial_type":"bar-choose","trial_index":70,"time_elapsed":712782,"internal_node_id":"0.0-70.0"},{"rt":9165,"url":"\/tickets\/utils\/start2.html","trial_type":"html","trial_index":71,"time_elapsed":723061,"internal_node_id":"0.0-71.0"},{"trial_type":"number-animation","trial_index":72,"time_elapsed":735526,"internal_node_id":"0.0-72.0"},{"phase":1,"sequence":0,"avg":166,"response":180,"trial_type":"training_avg","trial_index":73,"time_elapsed":744298,"internal_node_id":"0.0-73.0"},{"trial_type":"number-animation","trial_index":74,"time_elapsed":755425,"internal_node_id":"0.0-74.0"},{"phase":1,"sequence":1,"avg":198,"response":175,"trial_type":"training_avg","trial_index":75,"time_elapsed":795952,"internal_node_id":"0.0-75.0"},{"trial_type":"number-animation","trial_index":76,"time_elapsed":804868,"internal_node_id":"0.0-76.0"},{"phase":1,"sequence":2,"avg":177,"response":150,"trial_type":"training_avg","trial_index":77,"time_elapsed":810402,"internal_node_id":"0.0-77.0"},{"trial_type":"number-animation","trial_index":78,"time_elapsed":819446,"internal_node_id":"0.0-78.0"},{"phase":1,"sequence":3,"avg":190,"response":190,"trial_type":"training_avg","trial_index":79,"time_elapsed":828010,"internal_node_id":"0.0-79.0"},{"trial_type":"number-animation","trial_index":80,"time_elapsed":836889,"internal_node_id":"0.0-80.0"},{"phase":1,"sequence":4,"avg":201,"response":210,"trial_type":"training_avg","trial_index":81,"time_elapsed":842581,"internal_node_id":"0.0-81.0"},{"responses":[{"value":1,"offby":0,"category":"$30 - $75","category_index":0},{"value":2,"offby":0,"category":"$76 - $120","category_index":1},{"value":4,"offby":0,"category":"$121 - $165","category_index":2},{"value":5,"offby":-1,"category":"$166 - $210","category_index":3},{"value":5,"offby":-1,"category":"$211 - $255","category_index":4},{"value":3,"offby":2,"category":"$256 - $300","category_index":5},{"value":0,"offby":0,"category":"$301 - $345","category_index":6}],"phase":1,"number":0,"trial_type":"bar-choose","trial_index":82,"time_elapsed":870036,"internal_node_id":"0.0-82.0"},{"rt":7796,"url":"\/tickets\/utils\/testing2.html","trial_type":"html","trial_index":83,"time_elapsed":878952,"internal_node_id":"0.0-83.0"},{"phase":1,"order":[21,46,12,37,18,4,49,19,28,9,6,38,29,42,44,2,48,45,15,3,25,10,35,26,47,23,1,7,24,34,33,32,41,39,0,5,31,20,30,8,36,27,13,40,22,17,14,11,43,16],"trial_type":"store_order","trial_index":84,"time_elapsed":879958,"internal_node_id":"0.0-84.0"},{"result":120,"points":2,"place":1,"phase":1,"sequence":0,"prices":[150,170,160,241,166,186,120,136,96,191],"times":[1140,549,569,606,542,537,958],"next_num":7,"trial_type":"ticket-choose","trial_index":85,"time_elapsed":887977,"internal_node_id":"0.0-85.0"},{"result":111,"points":3,"place":0,"phase":1,"sequence":1,"prices":[175,211,266,286,111,216,220,245,230,165],"times":[618,503,478,484,1104],"next_num":5,"trial_type":"ticket-choose","trial_index":86,"time_elapsed":893716,"internal_node_id":"0.0-86.0"},{"result":131,"points":2,"place":1,"phase":1,"sequence":2,"prices":[161,180,171,250,176,195,131,146,105,201],"times":[598,475,511,486,567,698,733],"next_num":7,"trial_type":"ticket-choose","trial_index":87,"time_elapsed":900802,"internal_node_id":"0.0-87.0"},{"result":120,"points":2,"place":1,"phase":1,"sequence":3,"prices":[186,156,191,120,195,145,45,130,246,176],"times":[478,511,517,840],"next_num":4,"trial_type":"ticket-choose","trial_index":88,"time_elapsed":905563,"internal_node_id":"0.0-88.0"},{"result":120,"points":2,"place":1,"phase":1,"sequence":4,"prices":[146,171,120,245,165,191,160,140,100,196],"times":[1480,565,1182],"next_num":3,"trial_type":"ticket-choose","trial_index":89,"time_elapsed":910900,"internal_node_id":"0.0-89.0"},{"result":125,"points":2,"place":1,"phase":1,"sequence":5,"prices":[155,175,166,245,171,190,125,140,101,196],"times":[605,476,479,446,645,552,1103],"next_num":7,"trial_type":"ticket-choose","trial_index":90,"time_elapsed":918118,"internal_node_id":"0.0-90.0"},{"result":106,"points":3,"place":0,"phase":1,"sequence":6,"prices":[155,225,245,130,176,106,180,211,165,200],"times":[605,487,470,1158,438,1040],"next_num":6,"trial_type":"ticket-choose","trial_index":91,"time_elapsed":925198,"internal_node_id":"0.0-91.0"},{"result":121,"points":2,"place":1,"phase":1,"sequence":7,"prices":[146,170,121,245,166,190,161,141,100,195],"times":[604,485,782],"next_num":3,"trial_type":"ticket-choose","trial_index":92,"time_elapsed":929198,"internal_node_id":"0.0-92.0"},{"result":75,"points":3,"place":0,"phase":1,"sequence":8,"prices":[75,171,131,151,161,250,145,190,206,156],"times":[917],"next_num":1,"trial_type":"ticket-choose","trial_index":93,"time_elapsed":931799,"internal_node_id":"0.0-93.0"},{"result":105,"points":3,"place":0,"phase":1,"sequence":9,"prices":[160,180,130,251,176,195,170,146,105,200],"times":[648,472,461,495,462,493,536,469,855],"next_num":9,"trial_type":"ticket-choose","trial_index":94,"time_elapsed":939991,"internal_node_id":"0.0-94.0"},{"result":126,"points":2,"place":1,"phase":1,"sequence":10,"prices":[150,175,166,251,170,196,126,145,105,201],"times":[710,471,445,447,464,526,832],"next_num":7,"trial_type":"ticket-choose","trial_index":95,"time_elapsed":946816,"internal_node_id":"0.0-95.0"},{"result":130,"points":3,"place":0,"phase":1,"sequence":11,"prices":[185,175,276,221,130,141,171,216,235,165],"times":[662,519,528,511,943],"next_num":5,"trial_type":"ticket-choose","trial_index":96,"time_elapsed":952497,"internal_node_id":"0.0-96.0"},{"result":111,"points":3,"place":0,"phase":1,"sequence":12,"prices":[111,231,131,146,171,295,141,241,271,150],"times":[892],"next_num":1,"trial_type":"ticket-choose","trial_index":97,"time_elapsed":955138,"internal_node_id":"0.0-97.0"},{"result":81,"points":3,"place":0,"phase":1,"sequence":13,"prices":[155,245,155,81,180,130,156,306,166,115],"times":[636,472,495,735],"next_num":4,"trial_type":"ticket-choose","trial_index":98,"time_elapsed":959786,"internal_node_id":"0.0-98.0"},{"result":30,"points":3,"place":0,"phase":1,"sequence":14,"prices":[155,30,101,55,136,276,70,181,200,261],"times":[585,686],"next_num":2,"trial_type":"ticket-choose","trial_index":99,"time_elapsed":962914,"internal_node_id":"0.0-99.0"},{"result":105,"points":3,"place":0,"phase":1,"sequence":15,"prices":[151,176,126,251,170,196,165,145,105,201],"times":[685,511,447,455,446,486,463,823,791],"next_num":9,"trial_type":"ticket-choose","trial_index":100,"time_elapsed":971451,"internal_node_id":"0.0-100.0"},{"result":136,"points":3,"place":0,"phase":1,"sequence":16,"prices":[246,145,155,191,176,270,185,136,160,215],"times":[566,519,494,463,471,502,502,1267],"next_num":8,"trial_type":"ticket-choose","trial_index":101,"time_elapsed":979372,"internal_node_id":"0.0-101.0"},{"result":91,"points":3,"place":0,"phase":1,"sequence":17,"prices":[176,150,141,91,290,201,106,266,206,126],"times":[662,911,519,862],"next_num":4,"trial_type":"ticket-choose","trial_index":102,"time_elapsed":984757,"internal_node_id":"0.0-102.0"},{"result":110,"points":3,"place":0,"phase":1,"sequence":18,"prices":[156,181,171,256,175,200,131,150,110,206],"times":[606,534,491,494,464,600,1021,513,742],"next_num":9,"trial_type":"ticket-choose","trial_index":103,"time_elapsed":993534,"internal_node_id":"0.0-103.0"},{"result":105,"points":3,"place":0,"phase":1,"sequence":19,"prices":[150,176,126,251,171,195,165,145,105,200],"times":[857,518,504,832,573,573,615,590,832],"next_num":9,"trial_type":"ticket-choose","trial_index":104,"time_elapsed":1002863,"internal_node_id":"0.0-104.0"},{"result":95,"points":3,"place":0,"phase":1,"sequence":20,"prices":[95,205,106,151,186,271,145,210,215,181],"times":[1024],"next_num":1,"trial_type":"ticket-choose","trial_index":105,"time_elapsed":1005649,"internal_node_id":"0.0-105.0"},{"result":131,"points":2,"place":1,"phase":1,"sequence":21,"prices":[156,181,131,256,176,200,171,151,111,206],"times":[779,567,904],"next_num":3,"trial_type":"ticket-choose","trial_index":106,"time_elapsed":1010153,"internal_node_id":"0.0-106.0"},{"result":51,"points":3,"place":0,"phase":1,"sequence":22,"prices":[221,175,51,196,146,130,166,80,126,156],"times":[644,504,734],"next_num":3,"trial_type":"ticket-choose","trial_index":107,"time_elapsed":1014097,"internal_node_id":"0.0-107.0"},{"result":105,"points":3,"place":0,"phase":1,"sequence":23,"prices":[105,216,146,165,210,260,161,235,241,185],"times":[860],"next_num":1,"trial_type":"ticket-choose","trial_index":108,"time_elapsed":1016699,"internal_node_id":"0.0-108.0"},{"result":185,"points":0,"place":5,"phase":1,"sequence":24,"prices":[181,156,145,165,236,231,201,260,150,185],"times":[765,470,463,470,545,502,1011,564,832,594],"next_num":10,"trial_type":"ticket-choose","trial_index":109,"time_elapsed":1026499,"internal_node_id":"0.0-109.0"},{"result":120,"points":2,"place":1,"phase":1,"sequence":25,"prices":[145,170,160,245,165,190,120,141,100,195],"times":[860,545,724,602,571,725,830],"next_num":7,"trial_type":"ticket-choose","trial_index":110,"time_elapsed":1034363,"internal_node_id":"0.0-110.0"},{"result":125,"points":2,"place":1,"phase":1,"sequence":26,"prices":[156,175,125,245,170,190,165,140,101,196],"times":[756,519,1503],"next_num":3,"trial_type":"ticket-choose","trial_index":111,"time_elapsed":1039332,"internal_node_id":"0.0-111.0"},{"result":126,"points":2,"place":1,"phase":1,"sequence":27,"prices":[151,175,166,251,170,195,126,146,105,201],"times":[613,487,495,494,550,495,824],"next_num":7,"trial_type":"ticket-choose","trial_index":112,"time_elapsed":1046189,"internal_node_id":"0.0-112.0"},{"result":160,"points":1,"place":4,"phase":1,"sequence":28,"prices":[86,180,130,151,170,271,145,191,220,160],"times":[635,1150,4096,495,526,526,495,623,737,557],"next_num":10,"trial_type":"ticket-choose","trial_index":113,"time_elapsed":1059800,"internal_node_id":"0.0-113.0"},{"result":106,"points":2,"place":1,"phase":1,"sequence":29,"prices":[185,180,235,210,106,266,76,115,250,205],"times":[809,533,485,599,757],"next_num":5,"trial_type":"ticket-choose","trial_index":114,"time_elapsed":1065495,"internal_node_id":"0.0-114.0"},{"result":175,"points":1,"place":4,"phase":1,"sequence":30,"prices":[130,195,141,155,181,226,150,216,221,175],"times":[866,500,561,503,525,526,631,594,540,578],"next_num":10,"trial_type":"ticket-choose","trial_index":115,"time_elapsed":1074881,"internal_node_id":"0.0-115.0"},{"result":155,"points":1,"place":4,"phase":1,"sequence":31,"prices":[135,180,141,151,175,220,145,196,211,155],"times":[683,578,510,577,494,535,799,551,574,560],"next_num":10,"trial_type":"ticket-choose","trial_index":116,"time_elapsed":1084378,"internal_node_id":"0.0-116.0"},{"result":106,"points":3,"place":0,"phase":1,"sequence":32,"prices":[180,106,166,245,211,261,215,125,135,190],"times":[739,730],"next_num":2,"trial_type":"ticket-choose","trial_index":117,"time_elapsed":1087739,"internal_node_id":"0.0-117.0"},{"result":61,"points":3,"place":0,"phase":1,"sequence":33,"prices":[255,166,266,175,136,145,155,61,96,301],"times":[916,752,488,465,887,591,534,1007],"next_num":8,"trial_type":"ticket-choose","trial_index":118,"time_elapsed":1096499,"internal_node_id":"0.0-118.0"},{"result":100,"points":3,"place":0,"phase":1,"sequence":34,"prices":[156,175,126,246,170,190,165,140,100,196],"times":[556,553,735,534,559,504,550,791,791],"next_num":9,"trial_type":"ticket-choose","trial_index":119,"time_elapsed":1105404,"internal_node_id":"0.0-119.0"},{"result":126,"points":2,"place":1,"phase":1,"sequence":35,"prices":[156,176,165,246,171,190,126,141,101,196],"times":[927,509,503,511,638,575,1232],"next_num":7,"trial_type":"ticket-choose","trial_index":120,"time_elapsed":1113246,"internal_node_id":"0.0-120.0"},{"result":66,"points":3,"place":0,"phase":1,"sequence":36,"prices":[66,201,96,150,185,230,121,216,225,165],"times":[824],"next_num":1,"trial_type":"ticket-choose","trial_index":121,"time_elapsed":1115813,"internal_node_id":"0.0-121.0"},{"result":121,"points":2,"place":1,"phase":1,"sequence":37,"prices":[150,170,160,240,166,185,121,136,95,191],"times":[701,495,463,519,656,703,1351],"next_num":7,"trial_type":"ticket-choose","trial_index":122,"time_elapsed":1123703,"internal_node_id":"0.0-122.0"},{"result":81,"points":3,"place":0,"phase":1,"sequence":38,"prices":[81,205,130,151,191,261,145,210,250,165],"times":[760],"next_num":1,"trial_type":"ticket-choose","trial_index":123,"time_elapsed":1126255,"internal_node_id":"0.0-123.0"},{"result":105,"points":3,"place":0,"phase":1,"sequence":39,"prices":[161,180,131,251,175,196,171,146,105,201],"times":[723,502,470,514,542,580,535,511,944],"next_num":9,"trial_type":"ticket-choose","trial_index":124,"time_elapsed":1134888,"internal_node_id":"0.0-124.0"},{"result":125,"points":1,"place":2,"phase":1,"sequence":40,"prices":[226,205,125,120,115,135,180,145,150,220],"times":[722,559,1264],"next_num":3,"trial_type":"ticket-choose","trial_index":125,"time_elapsed":1139817,"internal_node_id":"0.0-125.0"},{"result":196,"points":1,"place":4,"phase":1,"sequence":41,"prices":[120,221,135,185,200,261,181,251,255,196],"times":[1142,559,517,503,582,535,489,606,485,711],"next_num":10,"trial_type":"ticket-choose","trial_index":126,"time_elapsed":1149601,"internal_node_id":"0.0-126.0"},{"result":131,"points":2,"place":1,"phase":1,"sequence":42,"prices":[160,180,170,251,176,195,131,146,105,200],"times":[638,502,551,590,520,533,1663],"next_num":7,"trial_type":"ticket-choose","trial_index":127,"time_elapsed":1157530,"internal_node_id":"0.0-127.0"},{"result":116,"points":3,"place":0,"phase":1,"sequence":43,"prices":[176,150,276,171,261,116,130,201,166,231],"times":[557,736,528,590,519,1120],"next_num":6,"trial_type":"ticket-choose","trial_index":128,"time_elapsed":1164444,"internal_node_id":"0.0-128.0"},{"result":120,"points":2,"place":1,"phase":1,"sequence":44,"prices":[145,171,161,245,165,191,120,140,100,196],"times":[779,480,463,614,679,560,1221],"next_num":7,"trial_type":"ticket-choose","trial_index":129,"time_elapsed":1172245,"internal_node_id":"0.0-129.0"},{"result":120,"points":2,"place":1,"phase":1,"sequence":45,"prices":[150,171,120,241,165,185,160,135,96,190],"times":[778,496,852],"next_num":3,"trial_type":"ticket-choose","trial_index":130,"time_elapsed":1176613,"internal_node_id":"0.0-130.0"},{"result":110,"points":3,"place":0,"phase":1,"sequence":46,"prices":[155,181,170,255,176,200,130,150,110,205],"times":[619,542,521,520,529,653,541,616,831],"next_num":9,"trial_type":"ticket-choose","trial_index":131,"time_elapsed":1185505,"internal_node_id":"0.0-131.0"},{"result":111,"points":3,"place":0,"phase":1,"sequence":47,"prices":[156,181,130,255,175,200,170,150,111,205],"times":[490,502,495,558,574,545,578,822,872],"next_num":9,"trial_type":"ticket-choose","trial_index":132,"time_elapsed":1194336,"internal_node_id":"0.0-132.0"},{"result":65,"points":2,"place":1,"phase":1,"sequence":48,"prices":[220,236,176,65,185,101,110,61,156,191],"times":[672,567,588,783],"next_num":4,"trial_type":"ticket-choose","trial_index":133,"time_elapsed":1199288,"internal_node_id":"0.0-133.0"},{"result":136,"points":1,"place":2,"phase":1,"sequence":49,"prices":[150,171,121,241,165,185,160,136,95,191],"times":[794,467,544,550,836,543,519,927],"next_num":8,"trial_type":"ticket-choose","trial_index":134,"time_elapsed":1207681,"internal_node_id":"0.0-134.0"},{"responses":[{"value":1,"offby":0,"category":"$30 - $75","category_index":0},{"value":2,"offby":0,"category":"$76 - $120","category_index":1},{"value":5,"offby":1,"category":"$121 - $165","category_index":2},{"value":5,"offby":-1,"category":"$166 - $210","category_index":3},{"value":4,"offby":-2,"category":"$211 - $255","category_index":4},{"value":2,"offby":1,"category":"$256 - $300","category_index":5},{"value":1,"offby":1,"category":"$301 - $345","category_index":6}],"phase":1,"number":1,"trial_type":"bar-choose","trial_index":135,"time_elapsed":1230182,"internal_node_id":"0.0-135.0"},{"special_comment":"No","trial_type":"special_sequence","trial_index":136,"time_elapsed":1235144,"internal_node_id":"0.0-136.0"},{"during":"Nothing","bonus":308,"trial_type":"final","trial_index":137,"time_elapsed":1301196,"internal_node_id":"0.0-137.0"}],"bonus":308}