{"start_time":"2017-02-21 12:52:35","end_time":"2017-02-21 13:29:04","points_phase0":111,"points_phase1":106,"phase_order":0,"age":58,"gender":"m","tries":1,"during":"Nothing","worker_id":"A1V2H0UF94ATWY","assignment_id":"34QN5IT0T0KBQ7FBX4Q6R4MA0QD08N","data":[{"rt":152434,"url":"\/tickets\/utils\/consent.html","trial_type":"html","trial_index":0,"time_elapsed":152541,"internal_node_id":"0.0-0.0"},{"age":58,"gender":"m","trial_type":"age","trial_index":1,"time_elapsed":161061,"internal_node_id":"0.0-1.0"},{"worker_id":"A1V2H0UF94ATWY","trial_type":"workerid","trial_index":2,"time_elapsed":180189,"internal_node_id":"0.0-2.0"},{"tries":1,"trial_type":"instructions_check","trial_index":3,"time_elapsed":229133,"internal_node_id":"0.0-3.0"},{"rt":17191,"url":"\/tickets\/utils\/start.html","trial_type":"html","trial_index":4,"time_elapsed":247469,"internal_node_id":"0.0-4.0"},{"trial_type":"number-animation","trial_index":5,"time_elapsed":371868,"internal_node_id":"0.0-5.0"},{"phase":0,"sequence":0,"avg":181,"response":170,"trial_type":"training_avg","trial_index":6,"time_elapsed":388141,"internal_node_id":"0.0-6.0"},{"trial_type":"number-animation","trial_index":7,"time_elapsed":452437,"internal_node_id":"0.0-7.0"},{"phase":0,"sequence":1,"avg":188,"response":185,"trial_type":"training_avg","trial_index":8,"time_elapsed":466533,"internal_node_id":"0.0-8.0"},{"trial_type":"number-animation","trial_index":9,"time_elapsed":510541,"internal_node_id":"0.0-9.0"},{"phase":0,"sequence":2,"avg":188,"response":180,"trial_type":"training_avg","trial_index":10,"time_elapsed":528357,"internal_node_id":"0.0-10.0"},{"trial_type":"number-animation","trial_index":11,"time_elapsed":571925,"internal_node_id":"0.0-11.0"},{"phase":0,"sequence":3,"avg":177,"response":176,"trial_type":"training_avg","trial_index":12,"time_elapsed":582341,"internal_node_id":"0.0-12.0"},{"trial_type":"number-animation","trial_index":13,"time_elapsed":630037,"internal_node_id":"0.0-13.0"},{"phase":0,"sequence":4,"avg":182,"response":181,"trial_type":"training_avg","trial_index":14,"time_elapsed":640917,"internal_node_id":"0.0-14.0"},{"responses":[{"value":0,"offby":0,"category":"$106 - $134","category_index":0},{"value":0,"offby":-1,"category":"$135 - $150","category_index":1},{"value":2,"offby":-1,"category":"$151 - $165","category_index":2},{"value":8,"offby":2,"category":"$166 - $180","category_index":3},{"value":8,"offby":2,"category":"$181 - $195","category_index":4},{"value":2,"offby":-1,"category":"$196 - $210","category_index":5},{"value":0,"offby":-1,"category":"$211 - $225","category_index":6}],"phase":0,"number":0,"trial_type":"bar-choose","trial_index":15,"time_elapsed":798550,"internal_node_id":"0.0-15.0"},{"rt":72664,"url":"\/tickets\/\/utils\/testing.html","trial_type":"html","trial_index":16,"time_elapsed":872348,"internal_node_id":"0.0-16.0"},{"phase":0,"order":[27,35,43,47,18,4,41,10,49,20,39,15,22,13,0,24,3,19,48,29,38,40,14,8,12,46,5,21,23,34,37,31,28,1,36,11,17,25,6,7,26,44,45,9,32,2,33,16,30,42],"trial_type":"store_order","trial_index":17,"time_elapsed":873349,"internal_node_id":"0.0-17.0"},{"result":165,"points":2,"place":1,"phase":0,"sequence":-1,"prices":[184,180,224,165,181,199,185,193,218,126],"times":[5459,1670,895,11471],"next_num":4,"trial_type":"ticket-choose","trial_index":18,"time_elapsed":896861,"internal_node_id":"0.0-18.0"},{"rt":41694,"url":"\/tickets\/utils\/testing_after.html","trial_type":"html","trial_index":19,"time_elapsed":939701,"internal_node_id":"0.0-19.0"},{"result":168,"points":3,"place":0,"phase":0,"sequence":0,"prices":[168,192,171,178,188,217,172,195,197,186],"times":[10292],"next_num":1,"trial_type":"ticket-choose","trial_index":20,"time_elapsed":956037,"internal_node_id":"0.0-20.0"},{"result":168,"points":1,"place":2,"phase":0,"sequence":1,"prices":[168,154,172,185,195,144,184,211,177,227],"times":[7092],"next_num":1,"trial_type":"ticket-choose","trial_index":21,"time_elapsed":966397,"internal_node_id":"0.0-21.0"},{"result":157,"points":3,"place":0,"phase":0,"sequence":2,"prices":[201,187,157,184,198,179,188,185,178,170],"times":[2685,1471,1262],"next_num":3,"trial_type":"ticket-choose","trial_index":22,"time_elapsed":975829,"internal_node_id":"0.0-22.0"},{"result":152,"points":3,"place":0,"phase":0,"sequence":3,"prices":[200,181,203,152,175,171,160,154,176,191],"times":[1674,5534,749,1326],"next_num":4,"trial_type":"ticket-choose","trial_index":23,"time_elapsed":988829,"internal_node_id":"0.0-23.0"},{"result":158,"points":2,"place":1,"phase":0,"sequence":4,"prices":[176,187,158,210,181,187,177,165,208,153],"times":[5149,774,1134],"next_num":3,"trial_type":"ticket-choose","trial_index":24,"time_elapsed":999293,"internal_node_id":"0.0-24.0"},{"result":163,"points":2,"place":1,"phase":0,"sequence":5,"prices":[176,186,176,210,179,187,163,166,153,208],"times":[1918,695,854,686,919,743,1279],"next_num":7,"trial_type":"ticket-choose","trial_index":25,"time_elapsed":1010197,"internal_node_id":"0.0-25.0"},{"result":155,"points":2,"place":1,"phase":0,"sequence":6,"prices":[201,207,155,158,156,165,167,135,178,177],"times":[1531,654,1158],"next_num":3,"trial_type":"ticket-choose","trial_index":26,"time_elapsed":1016645,"internal_node_id":"0.0-26.0"},{"result":167,"points":2,"place":1,"phase":0,"sequence":7,"prices":[175,186,167,225,179,187,178,169,209,153],"times":[1935,678,1423],"next_num":3,"trial_type":"ticket-choose","trial_index":27,"time_elapsed":1023653,"internal_node_id":"0.0-27.0"},{"result":163,"points":1,"place":2,"phase":0,"sequence":8,"prices":[183,163,185,180,166,148,160,186,176,184],"times":[1084,1150],"next_num":2,"trial_type":"ticket-choose","trial_index":28,"time_elapsed":1028941,"internal_node_id":"0.0-28.0"},{"result":158,"points":2,"place":1,"phase":0,"sequence":9,"prices":[175,186,177,221,180,187,158,166,209,153],"times":[1172,654,606,621,621,638,1278],"next_num":7,"trial_type":"ticket-choose","trial_index":29,"time_elapsed":1038269,"internal_node_id":"0.0-29.0"},{"result":167,"points":2,"place":1,"phase":0,"sequence":10,"prices":[189,167,180,197,165,168,172,213,178,171],"times":[1096,1798],"next_num":2,"trial_type":"ticket-choose","trial_index":30,"time_elapsed":1043903,"internal_node_id":"0.0-30.0"},{"result":167,"points":2,"place":1,"phase":0,"sequence":11,"prices":[175,187,178,209,179,187,167,169,208,153],"times":[1313,575,566,591,774,646,1182],"next_num":7,"trial_type":"ticket-choose","trial_index":31,"time_elapsed":1053237,"internal_node_id":"0.0-31.0"},{"result":158,"points":2,"place":1,"phase":0,"sequence":12,"prices":[176,187,177,225,181,187,158,165,208,153],"times":[1097,614,517,638,719,662,1310],"next_num":7,"trial_type":"ticket-choose","trial_index":32,"time_elapsed":1062309,"internal_node_id":"0.0-32.0"},{"result":167,"points":2,"place":1,"phase":0,"sequence":13,"prices":[175,185,178,215,181,186,167,168,208,156],"times":[1170,598,616,662,630,710,4110],"next_num":7,"trial_type":"ticket-choose","trial_index":33,"time_elapsed":1074637,"internal_node_id":"0.0-33.0"},{"result":163,"points":2,"place":1,"phase":0,"sequence":14,"prices":[176,186,163,214,179,187,176,166,153,208],"times":[1302,597,1158],"next_num":3,"trial_type":"ticket-choose","trial_index":34,"time_elapsed":1080893,"internal_node_id":"0.0-34.0"},{"result":161,"points":3,"place":0,"phase":0,"sequence":15,"prices":[161,193,175,181,185,224,180,199,218,184],"times":[1314],"next_num":1,"trial_type":"ticket-choose","trial_index":35,"time_elapsed":1085549,"internal_node_id":"0.0-35.0"},{"result":163,"points":2,"place":1,"phase":0,"sequence":16,"prices":[175,186,163,211,179,187,176,165,153,210],"times":[1332,582,1198],"next_num":3,"trial_type":"ticket-choose","trial_index":36,"time_elapsed":1091413,"internal_node_id":"0.0-36.0"},{"result":158,"points":2,"place":1,"phase":0,"sequence":17,"prices":[176,185,158,217,180,186,177,166,209,154],"times":[1127,598,1101],"next_num":3,"trial_type":"ticket-choose","trial_index":37,"time_elapsed":1097069,"internal_node_id":"0.0-37.0"},{"result":147,"points":3,"place":0,"phase":0,"sequence":18,"prices":[181,215,169,147,182,193,177,184,176,179],"times":[1002,566,7478,959],"next_num":4,"trial_type":"ticket-choose","trial_index":38,"time_elapsed":1110925,"internal_node_id":"0.0-38.0"},{"result":150,"points":3,"place":0,"phase":0,"sequence":19,"prices":[150,185,154,161,173,199,155,188,191,168],"times":[1227],"next_num":1,"trial_type":"ticket-choose","trial_index":39,"time_elapsed":1115061,"internal_node_id":"0.0-39.0"},{"result":168,"points":1,"place":2,"phase":0,"sequence":20,"prices":[168,199,196,198,185,195,227,163,177,166],"times":[1506],"next_num":1,"trial_type":"ticket-choose","trial_index":40,"time_elapsed":1119277,"internal_node_id":"0.0-40.0"},{"result":150,"points":3,"place":0,"phase":0,"sequence":21,"prices":[189,150,175,160,188,207,158,194,178,199],"times":[1234,1119],"next_num":2,"trial_type":"ticket-choose","trial_index":41,"time_elapsed":1124821,"internal_node_id":"0.0-41.0"},{"result":167,"points":2,"place":1,"phase":0,"sequence":22,"prices":[175,186,178,212,179,187,167,169,209,153],"times":[1279,614,838,695,1598,814,1094],"next_num":7,"trial_type":"ticket-choose","trial_index":42,"time_elapsed":1135293,"internal_node_id":"0.0-42.0"},{"result":167,"points":2,"place":1,"phase":0,"sequence":23,"prices":[174,186,167,211,181,188,178,168,208,156],"times":[8602,607,1133],"next_num":3,"trial_type":"ticket-choose","trial_index":43,"time_elapsed":1148685,"internal_node_id":"0.0-43.0"},{"result":167,"points":2,"place":1,"phase":0,"sequence":24,"prices":[174,186,178,217,181,188,167,168,208,156],"times":[1084,556,702,638,614,718,1158],"next_num":7,"trial_type":"ticket-choose","trial_index":44,"time_elapsed":1157789,"internal_node_id":"0.0-44.0"},{"result":158,"points":3,"place":0,"phase":0,"sequence":25,"prices":[210,184,226,193,215,158,199,175,176,208],"times":[870,582,631,632,597,1054],"next_num":6,"trial_type":"ticket-choose","trial_index":45,"time_elapsed":1165701,"internal_node_id":"0.0-45.0"},{"result":163,"points":2,"place":1,"phase":0,"sequence":26,"prices":[175,187,176,209,180,188,163,165,154,208],"times":[864,573,727,582,678,670,1087],"next_num":7,"trial_type":"ticket-choose","trial_index":46,"time_elapsed":1174365,"internal_node_id":"0.0-46.0"},{"result":158,"points":2,"place":1,"phase":0,"sequence":27,"prices":[175,186,177,209,181,188,158,167,208,154],"times":[770,590,679,598,590,694,1159],"next_num":7,"trial_type":"ticket-choose","trial_index":47,"time_elapsed":1182973,"internal_node_id":"0.0-47.0"},{"result":158,"points":2,"place":1,"phase":0,"sequence":28,"prices":[176,185,177,218,180,186,158,166,209,154],"times":[1303,670,542,566,686,670,1247],"next_num":7,"trial_type":"ticket-choose","trial_index":48,"time_elapsed":1191805,"internal_node_id":"0.0-48.0"},{"result":155,"points":2,"place":1,"phase":0,"sequence":29,"prices":[181,155,148,161,168,187,172,199,176,194],"times":[1050,878],"next_num":2,"trial_type":"ticket-choose","trial_index":49,"time_elapsed":1196301,"internal_node_id":"0.0-49.0"},{"result":163,"points":2,"place":1,"phase":0,"sequence":30,"prices":[198,193,169,163,202,182,152,164,177,171],"times":[1200,671,1245,2382],"next_num":4,"trial_type":"ticket-choose","trial_index":50,"time_elapsed":1204621,"internal_node_id":"0.0-50.0"},{"result":148,"points":3,"place":0,"phase":0,"sequence":31,"prices":[148,171,150,163,167,220,162,186,187,165],"times":[1447],"next_num":1,"trial_type":"ticket-choose","trial_index":51,"time_elapsed":1208685,"internal_node_id":"0.0-51.0"},{"result":185,"points":1,"place":4,"phase":0,"sequence":32,"prices":[169,196,170,184,187,211,171,201,202,185],"times":[1679,671,630,655,726,614,2070,678,743,957],"next_num":11,"trial_type":"ticket-choose","trial_index":52,"time_elapsed":1222629,"internal_node_id":"0.0-52.0"},{"result":163,"points":2,"place":1,"phase":0,"sequence":33,"prices":[175,187,163,209,180,188,176,165,154,208],"times":[1179,559,2341],"next_num":3,"trial_type":"ticket-choose","trial_index":53,"time_elapsed":1229533,"internal_node_id":"0.0-53.0"},{"result":165,"points":2,"place":1,"phase":0,"sequence":34,"prices":[188,200,165,172,198,174,177,154,177,180],"times":[1385,598,1487],"next_num":3,"trial_type":"ticket-choose","trial_index":54,"time_elapsed":1235493,"internal_node_id":"0.0-54.0"},{"result":167,"points":2,"place":1,"phase":0,"sequence":35,"prices":[175,187,167,212,179,187,178,169,208,153],"times":[1139,587,1230],"next_num":3,"trial_type":"ticket-choose","trial_index":55,"time_elapsed":1241093,"internal_node_id":"0.0-55.0"},{"result":158,"points":2,"place":1,"phase":0,"sequence":36,"prices":[175,186,158,209,181,188,177,167,208,154],"times":[1017,622,1182],"next_num":3,"trial_type":"ticket-choose","trial_index":56,"time_elapsed":1246293,"internal_node_id":"0.0-56.0"},{"result":156,"points":3,"place":0,"phase":0,"sequence":37,"prices":[156,201,162,166,185,214,165,202,204,179],"times":[1161],"next_num":1,"trial_type":"ticket-choose","trial_index":57,"time_elapsed":1249637,"internal_node_id":"0.0-57.0"},{"result":163,"points":2,"place":1,"phase":0,"sequence":38,"prices":[174,186,176,217,181,187,163,166,153,209],"times":[1928,582,694,622,638,574,1127],"next_num":7,"trial_type":"ticket-choose","trial_index":58,"time_elapsed":1261493,"internal_node_id":"0.0-58.0"},{"result":163,"points":2,"place":1,"phase":0,"sequence":39,"prices":[175,186,176,224,179,187,163,165,153,210],"times":[1176,637,654,622,566,717,1006],"next_num":7,"trial_type":"ticket-choose","trial_index":59,"time_elapsed":1270573,"internal_node_id":"0.0-59.0"},{"result":152,"points":3,"place":0,"phase":0,"sequence":40,"prices":[152,200,158,173,182,207,161,202,204,180],"times":[1162],"next_num":1,"trial_type":"ticket-choose","trial_index":60,"time_elapsed":1274045,"internal_node_id":"0.0-60.0"},{"result":159,"points":1,"place":2,"phase":0,"sequence":41,"prices":[180,159,149,175,185,141,163,174,178,207],"times":[1021,966],"next_num":2,"trial_type":"ticket-choose","trial_index":61,"time_elapsed":1278525,"internal_node_id":"0.0-61.0"},{"result":164,"points":3,"place":0,"phase":0,"sequence":42,"prices":[212,192,188,184,167,193,189,164,176,170],"times":[714,709,590,646,1367,598,583,966],"next_num":8,"trial_type":"ticket-choose","trial_index":62,"time_elapsed":1288421,"internal_node_id":"0.0-62.0"},{"result":167,"points":2,"place":1,"phase":0,"sequence":43,"prices":[175,185,167,224,181,186,178,168,208,156],"times":[2500,662,1397],"next_num":3,"trial_type":"ticket-choose","trial_index":63,"time_elapsed":1295669,"internal_node_id":"0.0-63.0"},{"result":161,"points":3,"place":0,"phase":0,"sequence":44,"prices":[161,193,167,187,190,224,174,194,195,188],"times":[1142],"next_num":1,"trial_type":"ticket-choose","trial_index":64,"time_elapsed":1299021,"internal_node_id":"0.0-64.0"},{"result":163,"points":2,"place":1,"phase":0,"sequence":45,"prices":[174,186,163,212,181,187,176,166,153,209],"times":[1769,558,1375],"next_num":3,"trial_type":"ticket-choose","trial_index":65,"time_elapsed":1305261,"internal_node_id":"0.0-65.0"},{"result":159,"points":3,"place":0,"phase":0,"sequence":46,"prices":[159,183,166,168,173,205,167,187,191,170],"times":[1267],"next_num":1,"trial_type":"ticket-choose","trial_index":66,"time_elapsed":1308741,"internal_node_id":"0.0-66.0"},{"result":158,"points":2,"place":1,"phase":0,"sequence":47,"prices":[175,186,158,211,180,187,177,166,209,153],"times":[1017,582,1071],"next_num":3,"trial_type":"ticket-choose","trial_index":67,"time_elapsed":1313917,"internal_node_id":"0.0-67.0"},{"result":157,"points":3,"place":0,"phase":0,"sequence":48,"prices":[157,191,165,175,182,203,170,195,200,176],"times":[1042],"next_num":1,"trial_type":"ticket-choose","trial_index":68,"time_elapsed":1317037,"internal_node_id":"0.0-68.0"},{"result":143,"points":3,"place":0,"phase":0,"sequence":49,"prices":[222,173,202,197,143,205,198,183,178,186],"times":[1234,1469,645,696,1197],"next_num":5,"trial_type":"ticket-choose","trial_index":69,"time_elapsed":1326654,"internal_node_id":"0.0-69.0"},{"responses":[{"value":0,"offby":0,"category":"$106 - $134","category_index":0},{"value":1,"offby":0,"category":"$135 - $150","category_index":1},{"value":4,"offby":1,"category":"$151 - $165","category_index":2},{"value":6,"offby":0,"category":"$166 - $180","category_index":3},{"value":5,"offby":-1,"category":"$181 - $195","category_index":4},{"value":3,"offby":0,"category":"$196 - $210","category_index":5},{"value":1,"offby":0,"category":"$211 - $225","category_index":6}],"phase":0,"number":1,"trial_type":"bar-choose","trial_index":70,"time_elapsed":1410670,"internal_node_id":"0.0-70.0"},{"rt":12900,"url":"\/tickets\/utils\/start2.html","trial_type":"html","trial_index":71,"time_elapsed":1424717,"internal_node_id":"0.0-71.0"},{"trial_type":"number-animation","trial_index":72,"time_elapsed":1460797,"internal_node_id":"0.0-72.0"},{"phase":1,"sequence":0,"avg":182,"response":180,"trial_type":"training_avg","trial_index":73,"time_elapsed":1470862,"internal_node_id":"0.0-73.0"},{"trial_type":"number-animation","trial_index":74,"time_elapsed":1499990,"internal_node_id":"0.0-74.0"},{"phase":1,"sequence":1,"avg":188,"response":178,"trial_type":"training_avg","trial_index":75,"time_elapsed":1510974,"internal_node_id":"0.0-75.0"},{"trial_type":"number-animation","trial_index":76,"time_elapsed":1550437,"internal_node_id":"0.0-76.0"},{"phase":1,"sequence":2,"avg":176,"response":180,"trial_type":"training_avg","trial_index":77,"time_elapsed":1559093,"internal_node_id":"0.0-77.0"},{"trial_type":"number-animation","trial_index":78,"time_elapsed":1590997,"internal_node_id":"0.0-78.0"},{"phase":1,"sequence":3,"avg":180,"response":180,"trial_type":"training_avg","trial_index":79,"time_elapsed":1601166,"internal_node_id":"0.0-79.0"},{"trial_type":"number-animation","trial_index":80,"time_elapsed":1637782,"internal_node_id":"0.0-80.0"},{"phase":1,"sequence":4,"avg":174,"response":165,"trial_type":"training_avg","trial_index":81,"time_elapsed":1646669,"internal_node_id":"0.0-81.0"},{"responses":[{"value":0,"offby":-1,"category":"$90 - $120","category_index":0},{"value":4,"offby":1,"category":"$121 - $145","category_index":1},{"value":9,"offby":6,"category":"$146 - $170","category_index":2},{"value":6,"offby":0,"category":"$171 - $195","category_index":3},{"value":1,"offby":-3,"category":"$196 - $220","category_index":4},{"value":0,"offby":-2,"category":"$221 - $245","category_index":5},{"value":0,"offby":-1,"category":"$246 - $270","category_index":6}],"phase":1,"number":0,"trial_type":"bar-choose","trial_index":82,"time_elapsed":1753584,"internal_node_id":"0.0-82.0"},{"rt":6489,"url":"\/tickets\/utils\/testing2.html","trial_type":"html","trial_index":83,"time_elapsed":1761222,"internal_node_id":"0.0-83.0"},{"phase":1,"order":[20,27,26,6,10,8,49,34,48,44,24,1,38,31,29,22,15,45,40,5,42,35,4,13,43,25,23,19,2,47,0,11,17,33,14,18,37,7,21,3,12,9,36,46,39,16,30,32,28,41],"trial_type":"store_order","trial_index":84,"time_elapsed":1762230,"internal_node_id":"0.0-84.0"},{"result":136,"points":2,"place":1,"phase":1,"sequence":0,"prices":[169,192,174,246,180,195,136,152,238,126],"times":[2736,814,735,646,663,630,1143],"next_num":7,"trial_type":"ticket-choose","trial_index":85,"time_elapsed":1773558,"internal_node_id":"0.0-85.0"},{"result":157,"points":3,"place":0,"phase":1,"sequence":1,"prices":[157,205,161,175,197,254,165,210,214,192],"times":[1227],"next_num":1,"trial_type":"ticket-choose","trial_index":86,"time_elapsed":1777398,"internal_node_id":"0.0-86.0"},{"result":124,"points":3,"place":0,"phase":1,"sequence":2,"prices":[124,220,136,165,185,234,143,225,228,179],"times":[1011],"next_num":1,"trial_type":"ticket-choose","trial_index":87,"time_elapsed":1780941,"internal_node_id":"0.0-87.0"},{"result":146,"points":2,"place":1,"phase":1,"sequence":3,"prices":[168,191,172,240,183,193,146,151,125,238],"times":[1594,623,590,615,662,607,1015],"next_num":7,"trial_type":"ticket-choose","trial_index":88,"time_elapsed":1790318,"internal_node_id":"0.0-88.0"},{"result":169,"points":1,"place":3,"phase":1,"sequence":4,"prices":[169,193,154,255,178,194,176,158,239,126],"times":[1620],"next_num":1,"trial_type":"ticket-choose","trial_index":89,"time_elapsed":1794222,"internal_node_id":"0.0-89.0"},{"result":168,"points":1,"place":3,"phase":1,"sequence":5,"prices":[168,192,154,237,182,196,176,156,235,133],"times":[1295],"next_num":1,"trial_type":"ticket-choose","trial_index":90,"time_elapsed":1797782,"internal_node_id":"0.0-90.0"},{"result":146,"points":1,"place":2,"phase":1,"sequence":6,"prices":[186,146,191,179,152,116,140,201,172,187],"times":[1126,998],"next_num":2,"trial_type":"ticket-choose","trial_index":91,"time_elapsed":1802486,"internal_node_id":"0.0-91.0"},{"result":130,"points":2,"place":1,"phase":1,"sequence":7,"prices":[181,130,116,142,157,193,165,218,173,207],"times":[874,967],"next_num":2,"trial_type":"ticket-choose","trial_index":92,"time_elapsed":1806774,"internal_node_id":"0.0-92.0"},{"result":159,"points":2,"place":1,"phase":1,"sequence":8,"prices":[182,249,159,114,184,205,175,189,172,178],"times":[1055,744,1223],"next_num":3,"trial_type":"ticket-choose","trial_index":93,"time_elapsed":1812238,"internal_node_id":"0.0-93.0"},{"result":138,"points":1,"place":2,"phase":1,"sequence":9,"prices":[181,138,118,170,190,101,146,169,175,233],"times":[735,934],"next_num":2,"trial_type":"ticket-choose","trial_index":94,"time_elapsed":1816686,"internal_node_id":"0.0-94.0"},{"result":142,"points":3,"place":0,"phase":1,"sequence":10,"prices":[142,207,171,182,190,269,180,218,256,188],"times":[1106],"next_num":1,"trial_type":"ticket-choose","trial_index":95,"time_elapsed":1819926,"internal_node_id":"0.0-95.0"},{"result":146,"points":2,"place":1,"phase":1,"sequence":11,"prices":[169,193,146,237,180,196,172,150,129,236],"times":[921,607,967],"next_num":3,"trial_type":"ticket-choose","trial_index":96,"time_elapsed":1824902,"internal_node_id":"0.0-96.0"},{"result":156,"points":1,"place":2,"phase":1,"sequence":12,"prices":[156,218,212,216,191,210,275,146,174,152],"times":[1312],"next_num":1,"trial_type":"ticket-choose","trial_index":97,"time_elapsed":1828182,"internal_node_id":"0.0-97.0"},{"result":117,"points":3,"place":0,"phase":1,"sequence":13,"prices":[117,161,120,147,153,259,144,191,195,149],"times":[962],"next_num":1,"trial_type":"ticket-choose","trial_index":98,"time_elapsed":1831614,"internal_node_id":"0.0-98.0"},{"result":121,"points":3,"place":0,"phase":1,"sequence":14,"prices":[121,191,128,141,166,217,129,196,202,157],"times":[1010],"next_num":1,"trial_type":"ticket-choose","trial_index":99,"time_elapsed":1834734,"internal_node_id":"0.0-99.0"},{"result":136,"points":2,"place":1,"phase":1,"sequence":15,"prices":[172,194,174,243,182,193,136,150,237,126],"times":[1205,695,694,599,671,582,1021],"next_num":7,"trial_type":"ticket-choose","trial_index":100,"time_elapsed":1843606,"internal_node_id":"0.0-100.0"},{"result":154,"points":2,"place":1,"phase":1,"sequence":16,"prices":[170,193,176,245,178,194,154,159,236,126],"times":[854,624,607,607,719,678,1182],"next_num":7,"trial_type":"ticket-choose","trial_index":101,"time_elapsed":1852125,"internal_node_id":"0.0-101.0"},{"result":154,"points":2,"place":1,"phase":1,"sequence":17,"prices":[244,203,196,189,154,206,197,149,171,159],"times":[1084,591,591,791,944],"next_num":5,"trial_type":"ticket-choose","trial_index":102,"time_elapsed":1859230,"internal_node_id":"0.0-102.0"},{"result":169,"points":1,"place":3,"phase":1,"sequence":18,"prices":[198,119,169,141,195,233,136,208,177,217],"times":[767,447,3942],"next_num":3,"trial_type":"ticket-choose","trial_index":103,"time_elapsed":1866966,"internal_node_id":"0.0-103.0"},{"result":146,"points":2,"place":1,"phase":1,"sequence":19,"prices":[171,195,172,242,179,196,146,150,128,235],"times":[1243,580,887,598,623,630,1038],"next_num":7,"trial_type":"ticket-choose","trial_index":104,"time_elapsed":1875766,"internal_node_id":"0.0-104.0"},{"result":105,"points":3,"place":0,"phase":1,"sequence":20,"prices":[263,165,224,214,105,230,215,185,177,193],"times":[823,5823,639,655,1014],"next_num":5,"trial_type":"ticket-choose","trial_index":105,"time_elapsed":1887662,"internal_node_id":"0.0-105.0"},{"result":155,"points":1,"place":2,"phase":1,"sequence":21,"prices":[155,129,164,189,210,108,187,241,174,275],"times":[1071],"next_num":1,"trial_type":"ticket-choose","trial_index":106,"time_elapsed":1890750,"internal_node_id":"0.0-106.0"},{"result":146,"points":2,"place":1,"phase":1,"sequence":22,"prices":[172,191,176,272,179,194,146,152,126,235],"times":[1168,623,573,574,676,615,1094],"next_num":7,"trial_type":"ticket-choose","trial_index":107,"time_elapsed":1899286,"internal_node_id":"0.0-107.0"},{"result":154,"points":2,"place":1,"phase":1,"sequence":23,"prices":[170,190,176,251,183,192,154,157,236,131],"times":[878,710,622,622,623,615,1055],"next_num":7,"trial_type":"ticket-choose","trial_index":108,"time_elapsed":1907566,"internal_node_id":"0.0-108.0"},{"result":135,"points":3,"place":0,"phase":1,"sequence":24,"prices":[221,193,135,188,217,179,196,190,175,159],"times":[599,678,1007],"next_num":3,"trial_type":"ticket-choose","trial_index":109,"time_elapsed":1912214,"internal_node_id":"0.0-109.0"},{"result":132,"points":3,"place":0,"phase":1,"sequence":25,"prices":[132,222,144,153,190,248,151,224,228,179],"times":[1019],"next_num":1,"trial_type":"ticket-choose","trial_index":110,"time_elapsed":1915286,"internal_node_id":"0.0-110.0"},{"result":153,"points":1,"place":2,"phase":1,"sequence":26,"prices":[173,191,174,270,180,193,136,153,239,129],"times":[1259,644,791,607,560,591,526,1695],"next_num":8,"trial_type":"ticket-choose","trial_index":111,"time_elapsed":1925614,"internal_node_id":"0.0-111.0"},{"result":136,"points":2,"place":1,"phase":1,"sequence":27,"prices":[172,190,136,270,179,192,174,152,237,129],"times":[1705,694,983],"next_num":3,"trial_type":"ticket-choose","trial_index":112,"time_elapsed":1931934,"internal_node_id":"0.0-112.0"},{"result":146,"points":2,"place":1,"phase":1,"sequence":28,"prices":[168,191,146,252,183,193,172,153,126,238],"times":[2848,646,958],"next_num":3,"trial_type":"ticket-choose","trial_index":113,"time_elapsed":1938742,"internal_node_id":"0.0-113.0"},{"result":124,"points":3,"place":0,"phase":1,"sequence":29,"prices":[219,183,227,124,176,161,140,129,171,201],"times":[1475,702,608,980],"next_num":4,"trial_type":"ticket-choose","trial_index":114,"time_elapsed":1945086,"internal_node_id":"0.0-114.0"},{"result":146,"points":2,"place":1,"phase":1,"sequence":30,"prices":[173,191,146,242,178,194,172,152,126,235],"times":[973,631,991],"next_num":3,"trial_type":"ticket-choose","trial_index":115,"time_elapsed":1950070,"internal_node_id":"0.0-115.0"},{"result":154,"points":2,"place":1,"phase":1,"sequence":31,"prices":[169,194,154,271,178,201,176,158,236,127],"times":[1059,630,990],"next_num":3,"trial_type":"ticket-choose","trial_index":116,"time_elapsed":1955256,"internal_node_id":"0.0-116.0"},{"result":136,"points":2,"place":1,"phase":1,"sequence":32,"prices":[171,192,136,243,182,195,174,154,236,128],"times":[1009,607,926],"next_num":3,"trial_type":"ticket-choose","trial_index":117,"time_elapsed":1960214,"internal_node_id":"0.0-117.0"},{"result":137,"points":3,"place":0,"phase":1,"sequence":33,"prices":[137,187,152,156,166,231,155,194,202,160],"times":[1094],"next_num":1,"trial_type":"ticket-choose","trial_index":118,"time_elapsed":1963382,"internal_node_id":"0.0-118.0"},{"result":154,"points":2,"place":1,"phase":1,"sequence":34,"prices":[169,192,176,244,178,194,154,159,237,125],"times":[1220,638,590,655,847,687,1023],"next_num":7,"trial_type":"ticket-choose","trial_index":119,"time_elapsed":1972158,"internal_node_id":"0.0-119.0"},{"result":136,"points":2,"place":1,"phase":1,"sequence":35,"prices":[173,194,136,239,182,200,174,150,236,127],"times":[696,582,1111],"next_num":3,"trial_type":"ticket-choose","trial_index":120,"time_elapsed":1976934,"internal_node_id":"0.0-120.0"},{"result":158,"points":1,"place":3,"phase":1,"sequence":36,"prices":[216,206,158,145,224,185,124,149,175,162],"times":[778,645,1327],"next_num":3,"trial_type":"ticket-choose","trial_index":121,"time_elapsed":1981990,"internal_node_id":"0.0-121.0"},{"result":146,"points":2,"place":1,"phase":1,"sequence":37,"prices":[171,191,172,268,179,194,146,150,127,239],"times":[460,583,621,654,711,631,1190],"next_num":7,"trial_type":"ticket-choose","trial_index":122,"time_elapsed":1989958,"internal_node_id":"0.0-122.0"},{"result":136,"points":2,"place":1,"phase":1,"sequence":38,"prices":[170,192,174,242,181,196,136,153,236,128],"times":[800,615,694,623,687,615,1135],"next_num":7,"trial_type":"ticket-choose","trial_index":123,"time_elapsed":1998238,"internal_node_id":"0.0-123.0"},{"result":146,"points":2,"place":1,"phase":1,"sequence":39,"prices":[170,193,146,268,178,195,172,149,126,241],"times":[711,622,1039],"next_num":3,"trial_type":"ticket-choose","trial_index":124,"time_elapsed":2002974,"internal_node_id":"0.0-124.0"},{"result":154,"points":2,"place":1,"phase":1,"sequence":40,"prices":[168,192,176,242,183,197,154,156,237,132],"times":[654,590,575,630,685,591,1231],"next_num":7,"trial_type":"ticket-choose","trial_index":125,"time_elapsed":2011230,"internal_node_id":"0.0-125.0"},{"result":154,"points":2,"place":1,"phase":1,"sequence":41,"prices":[169,191,154,268,183,197,176,155,236,133],"times":[817,566,1151],"next_num":3,"trial_type":"ticket-choose","trial_index":126,"time_elapsed":2016046,"internal_node_id":"0.0-126.0"},{"result":128,"points":3,"place":0,"phase":1,"sequence":42,"prices":[196,221,149,164,216,167,175,128,176,181],"times":[931,528,485,647,687,1070,807,1110],"next_num":8,"trial_type":"ticket-choose","trial_index":127,"time_elapsed":2025766,"internal_node_id":"0.0-127.0"},{"result":136,"points":3,"place":0,"phase":1,"sequence":43,"prices":[240,188,273,207,250,136,217,170,171,236],"times":[987,647,646,599,614,1047],"next_num":6,"trial_type":"ticket-choose","trial_index":128,"time_elapsed":2033366,"internal_node_id":"0.0-128.0"},{"result":153,"points":2,"place":1,"phase":1,"sequence":44,"prices":[197,153,181,215,150,155,164,247,177,162],"times":[943,911],"next_num":2,"trial_type":"ticket-choose","trial_index":129,"time_elapsed":2037470,"internal_node_id":"0.0-129.0"},{"result":136,"points":2,"place":1,"phase":1,"sequence":45,"prices":[171,192,136,265,180,194,174,152,239,127],"times":[783,567,982],"next_num":3,"trial_type":"ticket-choose","trial_index":130,"time_elapsed":2042358,"internal_node_id":"0.0-130.0"},{"result":135,"points":3,"place":0,"phase":1,"sequence":46,"prices":[135,202,150,169,183,225,160,211,220,172],"times":[1063],"next_num":1,"trial_type":"ticket-choose","trial_index":131,"time_elapsed":2045430,"internal_node_id":"0.0-131.0"},{"result":143,"points":3,"place":0,"phase":1,"sequence":47,"prices":[143,206,153,194,201,267,168,208,210,196],"times":[1358],"next_num":1,"trial_type":"ticket-choose","trial_index":132,"time_elapsed":2048790,"internal_node_id":"0.0-132.0"},{"result":157,"points":3,"place":0,"phase":1,"sequence":48,"prices":[157,213,159,187,194,242,161,222,225,189],"times":[1082],"next_num":1,"trial_type":"ticket-choose","trial_index":133,"time_elapsed":2051854,"internal_node_id":"0.0-133.0"},{"result":131,"points":2,"place":1,"phase":1,"sequence":49,"prices":[221,234,131,136,132,149,154,90,176,173],"times":[865,607,991],"next_num":3,"trial_type":"ticket-choose","trial_index":134,"time_elapsed":2056750,"internal_node_id":"0.0-134.0"},{"responses":[{"value":0,"offby":-1,"category":"$90 - $120","category_index":0},{"value":2,"offby":-1,"category":"$121 - $145","category_index":1},{"value":4,"offby":1,"category":"$146 - $170","category_index":2},{"value":6,"offby":0,"category":"$171 - $195","category_index":3},{"value":6,"offby":2,"category":"$196 - $220","category_index":4},{"value":2,"offby":0,"category":"$221 - $245","category_index":5},{"value":0,"offby":-1,"category":"$246 - $270","category_index":6}],"phase":1,"number":1,"trial_type":"bar-choose","trial_index":135,"time_elapsed":2092358,"internal_node_id":"0.0-135.0"},{"special_comment":"Itseemed towards the end that I noticed if there was a high price then a lower price that there would be an even lower price later.","trial_type":"special_sequence","trial_index":136,"time_elapsed":2150336,"internal_node_id":"0.0-136.0"},{"during":"Nothing","bonus":288,"trial_type":"final","trial_index":137,"time_elapsed":2186472,"internal_node_id":"0.0-137.0"}],"bonus":288}