{"start_time":"2017-02-22 09:58:32","end_time":"2017-02-22 10:20:50","points_phase0":110,"points_phase1":107,"phase_order":0,"age":23,"gender":"m","tries":1,"during":"Nothing","worker_id":"A1V7SD89P2M326","assignment_id":"3IXEICO793CP22TE2RHIR1SORB86TH","data":[{"rt":43029,"url":"\/tickets\/utils\/consent.html","trial_type":"html","trial_index":0,"time_elapsed":43611,"internal_node_id":"0.0-0.0"},{"age":23,"gender":"m","trial_type":"age","trial_index":1,"time_elapsed":48396,"internal_node_id":"0.0-1.0"},{"worker_id":"A1V7SD89P2M326","trial_type":"workerid","trial_index":2,"time_elapsed":54385,"internal_node_id":"0.0-2.0"},{"tries":1,"trial_type":"instructions_check","trial_index":3,"time_elapsed":94738,"internal_node_id":"0.0-3.0"},{"rt":8394,"url":"\/tickets\/utils\/start.html","trial_type":"html","trial_index":4,"time_elapsed":104261,"internal_node_id":"0.0-4.0"},{"trial_type":"number-animation","trial_index":5,"time_elapsed":116999,"internal_node_id":"0.0-5.0"},{"phase":0,"sequence":0,"avg":181,"response":170,"trial_type":"training_avg","trial_index":6,"time_elapsed":128338,"internal_node_id":"0.0-6.0"},{"trial_type":"number-animation","trial_index":7,"time_elapsed":198010,"internal_node_id":"0.0-7.0"},{"phase":0,"sequence":1,"avg":188,"response":190,"trial_type":"training_avg","trial_index":8,"time_elapsed":229996,"internal_node_id":"0.0-8.0"},{"trial_type":"number-animation","trial_index":9,"time_elapsed":262955,"internal_node_id":"0.0-9.0"},{"phase":0,"sequence":2,"avg":188,"response":195,"trial_type":"training_avg","trial_index":10,"time_elapsed":268711,"internal_node_id":"0.0-10.0"},{"trial_type":"number-animation","trial_index":11,"time_elapsed":280442,"internal_node_id":"0.0-11.0"},{"phase":0,"sequence":3,"avg":177,"response":178,"trial_type":"training_avg","trial_index":12,"time_elapsed":285976,"internal_node_id":"0.0-12.0"},{"trial_type":"number-animation","trial_index":13,"time_elapsed":297364,"internal_node_id":"0.0-13.0"},{"phase":0,"sequence":4,"avg":182,"response":174,"trial_type":"training_avg","trial_index":14,"time_elapsed":303521,"internal_node_id":"0.0-14.0"},{"responses":[{"value":0,"offby":0,"category":"$106 - $134","category_index":0},{"value":1,"offby":0,"category":"$135 - $150","category_index":1},{"value":1,"offby":-2,"category":"$151 - $165","category_index":2},{"value":3,"offby":-3,"category":"$166 - $180","category_index":3},{"value":10,"offby":4,"category":"$181 - $195","category_index":4},{"value":3,"offby":0,"category":"$196 - $210","category_index":5},{"value":2,"offby":1,"category":"$211 - $225","category_index":6}],"phase":0,"number":0,"trial_type":"bar-choose","trial_index":15,"time_elapsed":363932,"internal_node_id":"0.0-15.0"},{"rt":8690,"url":"\/tickets\/\/utils\/testing.html","trial_type":"html","trial_index":16,"time_elapsed":373753,"internal_node_id":"0.0-16.0"},{"phase":0,"order":[2,16,35,6,23,17,44,37,25,15,31,8,19,40,48,21,10,27,45,47,4,49,26,34,7,9,36,30,11,18,0,12,29,1,3,28,13,24,43,38,5,41,32,22,33,46,42,20,39,14],"trial_type":"store_order","trial_index":17,"time_elapsed":374758,"internal_node_id":"0.0-17.0"},{"result":165,"points":2,"place":1,"phase":0,"sequence":-1,"prices":[184,180,224,165,181,199,185,193,218,126],"times":[3374,913,649,998],"next_num":4,"trial_type":"ticket-choose","trial_index":18,"time_elapsed":383665,"internal_node_id":"0.0-18.0"},{"rt":12369,"url":"\/tickets\/utils\/testing_after.html","trial_type":"html","trial_index":19,"time_elapsed":397178,"internal_node_id":"0.0-19.0"},{"result":163,"points":2,"place":1,"phase":0,"sequence":0,"prices":[174,186,163,212,181,187,176,166,153,209],"times":[1303,1230,841],"next_num":3,"trial_type":"ticket-choose","trial_index":20,"time_elapsed":404013,"internal_node_id":"0.0-20.0"},{"result":158,"points":2,"place":1,"phase":0,"sequence":1,"prices":[175,186,158,211,180,187,177,166,209,153],"times":[3141,559,784],"next_num":3,"trial_type":"ticket-choose","trial_index":21,"time_elapsed":411331,"internal_node_id":"0.0-21.0"},{"result":154,"points":2,"place":1,"phase":0,"sequence":2,"prices":[168,154,172,185,195,144,184,211,177,227],"times":[1763,998],"next_num":2,"trial_type":"ticket-choose","trial_index":22,"time_elapsed":416265,"internal_node_id":"0.0-22.0"},{"result":163,"points":2,"place":1,"phase":0,"sequence":3,"prices":[174,186,176,217,181,187,163,166,153,209],"times":[648,747,613,608,612,634,666],"next_num":7,"trial_type":"ticket-choose","trial_index":23,"time_elapsed":424139,"internal_node_id":"0.0-23.0"},{"result":158,"points":2,"place":1,"phase":0,"sequence":4,"prices":[176,185,177,218,180,186,158,166,209,154],"times":[2885,563,533,598,730,681,780],"next_num":7,"trial_type":"ticket-choose","trial_index":24,"time_elapsed":434225,"internal_node_id":"0.0-24.0"},{"result":158,"points":2,"place":1,"phase":0,"sequence":5,"prices":[175,186,158,209,181,188,177,167,208,154],"times":[5629,490,977],"next_num":3,"trial_type":"ticket-choose","trial_index":25,"time_elapsed":443614,"internal_node_id":"0.0-25.0"},{"result":159,"points":1,"place":2,"phase":0,"sequence":6,"prices":[180,159,149,175,185,141,163,174,178,207],"times":[763,960],"next_num":2,"trial_type":"ticket-choose","trial_index":26,"time_elapsed":447621,"internal_node_id":"0.0-26.0"},{"result":169,"points":1,"place":3,"phase":0,"sequence":7,"prices":[198,193,169,163,202,182,152,164,177,171],"times":[801,715,826],"next_num":3,"trial_type":"ticket-choose","trial_index":27,"time_elapsed":452254,"internal_node_id":"0.0-27.0"},{"result":156,"points":3,"place":0,"phase":0,"sequence":8,"prices":[156,201,162,166,185,214,165,202,204,179],"times":[1005],"next_num":1,"trial_type":"ticket-choose","trial_index":28,"time_elapsed":455439,"internal_node_id":"0.0-28.0"},{"result":167,"points":2,"place":1,"phase":0,"sequence":9,"prices":[175,187,178,209,179,187,167,169,208,153],"times":[1018,550,615,591,655,566,915],"next_num":7,"trial_type":"ticket-choose","trial_index":29,"time_elapsed":463489,"internal_node_id":"0.0-29.0"},{"result":148,"points":3,"place":0,"phase":0,"sequence":10,"prices":[148,171,150,163,167,220,162,186,187,165],"times":[1778],"next_num":1,"trial_type":"ticket-choose","trial_index":30,"time_elapsed":467220,"internal_node_id":"0.0-30.0"},{"result":156,"points":3,"place":0,"phase":0,"sequence":11,"prices":[174,186,167,211,181,188,178,168,208,156],"times":[1230,1547,1028,549,579,596,665,1252,611,599],"next_num":10,"trial_type":"ticket-choose","trial_index":31,"time_elapsed":479785,"internal_node_id":"0.0-31.0"},{"result":158,"points":2,"place":1,"phase":0,"sequence":12,"prices":[176,185,158,217,180,186,177,166,209,154],"times":[1178,554,841],"next_num":3,"trial_type":"ticket-choose","trial_index":32,"time_elapsed":484688,"internal_node_id":"0.0-32.0"},{"result":150,"points":3,"place":0,"phase":0,"sequence":13,"prices":[189,150,175,160,188,207,158,194,178,199],"times":[580,760],"next_num":2,"trial_type":"ticket-choose","trial_index":33,"time_elapsed":488083,"internal_node_id":"0.0-33.0"},{"result":169,"points":2,"place":1,"phase":0,"sequence":14,"prices":[181,215,169,147,182,193,177,184,176,179],"times":[951,581,935],"next_num":3,"trial_type":"ticket-choose","trial_index":34,"time_elapsed":492747,"internal_node_id":"0.0-34.0"},{"result":158,"points":2,"place":1,"phase":0,"sequence":15,"prices":[175,186,177,209,181,188,158,167,208,154],"times":[478,543,560,539,648,532,649],"next_num":7,"trial_type":"ticket-choose","trial_index":35,"time_elapsed":499745,"internal_node_id":"0.0-35.0"},{"result":153,"points":3,"place":0,"phase":0,"sequence":16,"prices":[175,186,167,225,179,187,178,169,209,153],"times":[574,665,468,532,622,558,865,1138,561,566],"next_num":10,"trial_type":"ticket-choose","trial_index":36,"time_elapsed":510279,"internal_node_id":"0.0-36.0"},{"result":186,"points":1,"place":4,"phase":0,"sequence":17,"prices":[168,192,171,178,188,217,172,195,197,186],"times":[1771,526,768,528,603,643,758,613,555,730],"next_num":10,"trial_type":"ticket-choose","trial_index":37,"time_elapsed":522079,"internal_node_id":"0.0-37.0"},{"result":167,"points":2,"place":1,"phase":0,"sequence":18,"prices":[212,192,188,184,167,193,189,164,176,170],"times":[2949,606,757,580,895],"next_num":5,"trial_type":"ticket-choose","trial_index":38,"time_elapsed":530483,"internal_node_id":"0.0-38.0"},{"result":152,"points":3,"place":0,"phase":0,"sequence":19,"prices":[200,181,203,152,175,171,160,154,176,191],"times":[971,573,546,706],"next_num":4,"trial_type":"ticket-choose","trial_index":39,"time_elapsed":535807,"internal_node_id":"0.0-39.0"},{"result":163,"points":2,"place":1,"phase":0,"sequence":20,"prices":[176,186,176,210,179,187,163,166,153,208],"times":[922,1361,625,552,578,693,857],"next_num":7,"trial_type":"ticket-choose","trial_index":40,"time_elapsed":544438,"internal_node_id":"0.0-40.0"},{"result":163,"points":1,"place":2,"phase":0,"sequence":21,"prices":[183,163,185,180,166,148,160,186,176,184],"times":[529,859],"next_num":2,"trial_type":"ticket-choose","trial_index":41,"time_elapsed":547939,"internal_node_id":"0.0-41.0"},{"result":158,"points":2,"place":1,"phase":0,"sequence":22,"prices":[152,200,158,173,182,207,161,202,204,180],"times":[509,661,1009],"next_num":3,"trial_type":"ticket-choose","trial_index":42,"time_elapsed":552432,"internal_node_id":"0.0-42.0"},{"result":155,"points":2,"place":1,"phase":0,"sequence":23,"prices":[181,155,148,161,168,187,172,199,176,194],"times":[1120,912],"next_num":2,"trial_type":"ticket-choose","trial_index":43,"time_elapsed":556778,"internal_node_id":"0.0-43.0"},{"result":163,"points":2,"place":1,"phase":0,"sequence":24,"prices":[175,186,176,224,179,187,163,165,153,210],"times":[3251,622,560,573,649,541,887],"next_num":7,"trial_type":"ticket-choose","trial_index":44,"time_elapsed":566982,"internal_node_id":"0.0-44.0"},{"result":156,"points":3,"place":0,"phase":0,"sequence":25,"prices":[175,185,167,224,181,186,178,168,208,156],"times":[491,597,2531,505,567,585,820,883,953,668],"next_num":10,"trial_type":"ticket-choose","trial_index":45,"time_elapsed":579408,"internal_node_id":"0.0-45.0"},{"result":165,"points":2,"place":1,"phase":0,"sequence":26,"prices":[188,200,165,172,198,174,177,154,177,180],"times":[966,551,1641],"next_num":3,"trial_type":"ticket-choose","trial_index":46,"time_elapsed":584843,"internal_node_id":"0.0-46.0"},{"result":165,"points":2,"place":1,"phase":0,"sequence":27,"prices":[157,191,165,175,182,203,170,195,200,176],"times":[1492,657,1426],"next_num":3,"trial_type":"ticket-choose","trial_index":47,"time_elapsed":590680,"internal_node_id":"0.0-47.0"},{"result":153,"points":3,"place":0,"phase":0,"sequence":28,"prices":[175,187,167,212,179,187,178,169,208,153],"times":[611,550,1175,542,531,651,569,860,546,562],"next_num":10,"trial_type":"ticket-choose","trial_index":48,"time_elapsed":601025,"internal_node_id":"0.0-48.0"},{"result":158,"points":2,"place":1,"phase":0,"sequence":29,"prices":[176,187,158,210,181,187,177,165,208,153],"times":[1232,622,781],"next_num":3,"trial_type":"ticket-choose","trial_index":49,"time_elapsed":605806,"internal_node_id":"0.0-49.0"},{"result":163,"points":2,"place":1,"phase":0,"sequence":30,"prices":[176,186,163,214,179,187,176,166,153,208],"times":[634,601,1134],"next_num":3,"trial_type":"ticket-choose","trial_index":50,"time_elapsed":610359,"internal_node_id":"0.0-50.0"},{"result":167,"points":2,"place":1,"phase":0,"sequence":31,"prices":[174,186,178,217,181,188,167,168,208,156],"times":[4786,602,3884,655,589,574,890],"next_num":7,"trial_type":"ticket-choose","trial_index":51,"time_elapsed":625402,"internal_node_id":"0.0-51.0"},{"result":150,"points":3,"place":0,"phase":0,"sequence":32,"prices":[150,185,154,161,173,199,155,188,191,168],"times":[1148],"next_num":1,"trial_type":"ticket-choose","trial_index":52,"time_elapsed":628480,"internal_node_id":"0.0-52.0"},{"result":163,"points":2,"place":1,"phase":0,"sequence":33,"prices":[175,187,163,209,180,188,176,165,154,208],"times":[727,502,1296],"next_num":3,"trial_type":"ticket-choose","trial_index":53,"time_elapsed":633135,"internal_node_id":"0.0-53.0"},{"result":163,"points":2,"place":1,"phase":0,"sequence":34,"prices":[175,186,163,211,179,187,176,165,153,210],"times":[3096,481,869],"next_num":3,"trial_type":"ticket-choose","trial_index":54,"time_elapsed":639927,"internal_node_id":"0.0-54.0"},{"result":185,"points":1,"place":4,"phase":0,"sequence":35,"prices":[169,196,170,184,187,211,171,201,202,185],"times":[1316,530,568,542,749,616,796,544,580,935],"next_num":10,"trial_type":"ticket-choose","trial_index":55,"time_elapsed":650932,"internal_node_id":"0.0-55.0"},{"result":167,"points":2,"place":1,"phase":0,"sequence":36,"prices":[175,185,178,215,181,186,167,168,208,156],"times":[3609,567,508,578,737,567,1010],"next_num":7,"trial_type":"ticket-choose","trial_index":56,"time_elapsed":661527,"internal_node_id":"0.0-56.0"},{"result":161,"points":3,"place":0,"phase":0,"sequence":37,"prices":[161,193,175,181,185,224,180,199,218,184],"times":[907],"next_num":1,"trial_type":"ticket-choose","trial_index":57,"time_elapsed":664439,"internal_node_id":"0.0-57.0"},{"result":157,"points":3,"place":0,"phase":0,"sequence":38,"prices":[201,187,157,184,198,179,188,185,178,170],"times":[641,629,764],"next_num":3,"trial_type":"ticket-choose","trial_index":58,"time_elapsed":668593,"internal_node_id":"0.0-58.0"},{"result":163,"points":3,"place":0,"phase":0,"sequence":39,"prices":[168,199,196,198,185,195,227,163,177,166],"times":[854,800,495,565,570,600,572,851],"next_num":8,"trial_type":"ticket-choose","trial_index":59,"time_elapsed":677075,"internal_node_id":"0.0-59.0"},{"result":163,"points":2,"place":1,"phase":0,"sequence":40,"prices":[175,187,176,209,180,188,163,165,154,208],"times":[1121,536,507,597,525,577,703],"next_num":7,"trial_type":"ticket-choose","trial_index":60,"time_elapsed":684588,"internal_node_id":"0.0-60.0"},{"result":155,"points":2,"place":1,"phase":0,"sequence":41,"prices":[201,207,155,158,156,165,167,135,178,177],"times":[2444,1119,785],"next_num":3,"trial_type":"ticket-choose","trial_index":61,"time_elapsed":691209,"internal_node_id":"0.0-61.0"},{"result":161,"points":3,"place":0,"phase":0,"sequence":42,"prices":[161,193,167,187,190,224,174,194,195,188],"times":[1063],"next_num":1,"trial_type":"ticket-choose","trial_index":62,"time_elapsed":694144,"internal_node_id":"0.0-62.0"},{"result":158,"points":2,"place":1,"phase":0,"sequence":43,"prices":[176,187,177,225,181,187,158,165,208,153],"times":[938,516,606,550,572,512,715],"next_num":7,"trial_type":"ticket-choose","trial_index":63,"time_elapsed":701511,"internal_node_id":"0.0-63.0"},{"result":170,"points":1,"place":4,"phase":0,"sequence":44,"prices":[159,183,166,168,173,205,167,187,191,170],"times":[515,632,387,1066,540,755,849,624,517,581],"next_num":10,"trial_type":"ticket-choose","trial_index":64,"time_elapsed":711684,"internal_node_id":"0.0-64.0"},{"result":158,"points":3,"place":0,"phase":0,"sequence":45,"prices":[210,184,226,193,215,158,199,175,176,208],"times":[901,551,635,605,597,759],"next_num":6,"trial_type":"ticket-choose","trial_index":65,"time_elapsed":718429,"internal_node_id":"0.0-65.0"},{"result":143,"points":3,"place":0,"phase":0,"sequence":46,"prices":[222,173,202,197,143,205,198,183,178,186],"times":[1514,1049,488,594,843],"next_num":5,"trial_type":"ticket-choose","trial_index":66,"time_elapsed":725449,"internal_node_id":"0.0-66.0"},{"result":158,"points":2,"place":1,"phase":0,"sequence":47,"prices":[175,186,177,221,180,187,158,166,209,153],"times":[1236,528,847,521,538,565,722],"next_num":7,"trial_type":"ticket-choose","trial_index":67,"time_elapsed":733325,"internal_node_id":"0.0-67.0"},{"result":165,"points":3,"place":0,"phase":0,"sequence":48,"prices":[189,167,180,197,165,168,172,213,178,171],"times":[662,524,508,564,1237],"next_num":5,"trial_type":"ticket-choose","trial_index":68,"time_elapsed":739392,"internal_node_id":"0.0-68.0"},{"result":167,"points":2,"place":1,"phase":0,"sequence":49,"prices":[175,186,178,212,179,187,167,169,209,153],"times":[1182,672,539,571,582,574,729],"next_num":7,"trial_type":"ticket-choose","trial_index":69,"time_elapsed":747400,"internal_node_id":"0.0-69.0"},{"responses":[{"value":0,"offby":0,"category":"$106 - $134","category_index":0},{"value":1,"offby":0,"category":"$135 - $150","category_index":1},{"value":1,"offby":-2,"category":"$151 - $165","category_index":2},{"value":5,"offby":-1,"category":"$166 - $180","category_index":3},{"value":7,"offby":1,"category":"$181 - $195","category_index":4},{"value":4,"offby":1,"category":"$196 - $210","category_index":5},{"value":2,"offby":1,"category":"$211 - $225","category_index":6}],"phase":0,"number":1,"trial_type":"bar-choose","trial_index":70,"time_elapsed":793385,"internal_node_id":"0.0-70.0"},{"rt":9810,"url":"\/tickets\/utils\/start2.html","trial_type":"html","trial_index":71,"time_elapsed":804335,"internal_node_id":"0.0-71.0"},{"trial_type":"number-animation","trial_index":72,"time_elapsed":815149,"internal_node_id":"0.0-72.0"},{"phase":1,"sequence":0,"avg":182,"response":185,"trial_type":"training_avg","trial_index":73,"time_elapsed":821580,"internal_node_id":"0.0-73.0"},{"trial_type":"number-animation","trial_index":74,"time_elapsed":833754,"internal_node_id":"0.0-74.0"},{"phase":1,"sequence":1,"avg":188,"response":190,"trial_type":"training_avg","trial_index":75,"time_elapsed":840413,"internal_node_id":"0.0-75.0"},{"trial_type":"number-animation","trial_index":76,"time_elapsed":851665,"internal_node_id":"0.0-76.0"},{"phase":1,"sequence":2,"avg":176,"response":182,"trial_type":"training_avg","trial_index":77,"time_elapsed":857601,"internal_node_id":"0.0-77.0"},{"trial_type":"number-animation","trial_index":78,"time_elapsed":875632,"internal_node_id":"0.0-78.0"},{"phase":1,"sequence":3,"avg":180,"response":185,"trial_type":"training_avg","trial_index":79,"time_elapsed":882046,"internal_node_id":"0.0-79.0"},{"trial_type":"number-animation","trial_index":80,"time_elapsed":901425,"internal_node_id":"0.0-80.0"},{"phase":1,"sequence":4,"avg":174,"response":178,"trial_type":"training_avg","trial_index":81,"time_elapsed":906375,"internal_node_id":"0.0-81.0"},{"responses":[{"value":0,"offby":-1,"category":"$90 - $120","category_index":0},{"value":1,"offby":-2,"category":"$121 - $145","category_index":1},{"value":2,"offby":-1,"category":"$146 - $170","category_index":2},{"value":8,"offby":2,"category":"$171 - $195","category_index":3},{"value":5,"offby":1,"category":"$196 - $220","category_index":4},{"value":3,"offby":1,"category":"$221 - $245","category_index":5},{"value":1,"offby":0,"category":"$246 - $270","category_index":6}],"phase":1,"number":0,"trial_type":"bar-choose","trial_index":82,"time_elapsed":935731,"internal_node_id":"0.0-82.0"},{"rt":12802,"url":"\/tickets\/utils\/testing2.html","trial_type":"html","trial_index":83,"time_elapsed":949682,"internal_node_id":"0.0-83.0"},{"phase":1,"order":[31,29,44,1,25,26,23,41,32,35,14,11,4,47,43,15,39,20,19,17,49,27,5,9,24,13,10,22,42,21,8,6,36,30,28,38,0,7,45,46,40,37,16,18,34,48,2,12,3,33],"trial_type":"store_order","trial_index":84,"time_elapsed":950690,"internal_node_id":"0.0-84.0"},{"result":117,"points":3,"place":0,"phase":1,"sequence":0,"prices":[117,161,120,147,153,259,144,191,195,149],"times":[1207],"next_num":1,"trial_type":"ticket-choose","trial_index":85,"time_elapsed":954045,"internal_node_id":"0.0-85.0"},{"result":121,"points":3,"place":0,"phase":1,"sequence":1,"prices":[121,191,128,141,166,217,129,196,202,157],"times":[1195],"next_num":1,"trial_type":"ticket-choose","trial_index":86,"time_elapsed":957181,"internal_node_id":"0.0-86.0"},{"result":138,"points":1,"place":2,"phase":1,"sequence":2,"prices":[181,138,118,170,190,101,146,169,175,233],"times":[1063,697],"next_num":2,"trial_type":"ticket-choose","trial_index":87,"time_elapsed":960974,"internal_node_id":"0.0-87.0"},{"result":146,"points":2,"place":1,"phase":1,"sequence":3,"prices":[169,193,146,237,180,196,172,150,129,236],"times":[1108,697,986],"next_num":3,"trial_type":"ticket-choose","trial_index":88,"time_elapsed":965988,"internal_node_id":"0.0-88.0"},{"result":132,"points":3,"place":0,"phase":1,"sequence":4,"prices":[132,222,144,153,190,248,151,224,228,179],"times":[1817],"next_num":1,"trial_type":"ticket-choose","trial_index":89,"time_elapsed":969901,"internal_node_id":"0.0-89.0"},{"result":124,"points":3,"place":0,"phase":1,"sequence":5,"prices":[124,220,136,165,185,234,143,225,228,179],"times":[806],"next_num":1,"trial_type":"ticket-choose","trial_index":90,"time_elapsed":972499,"internal_node_id":"0.0-90.0"},{"result":136,"points":2,"place":1,"phase":1,"sequence":6,"prices":[173,191,174,270,180,193,136,153,239,129],"times":[736,573,578,650,878,565,730],"next_num":7,"trial_type":"ticket-choose","trial_index":91,"time_elapsed":980365,"internal_node_id":"0.0-91.0"},{"result":131,"points":2,"place":1,"phase":1,"sequence":7,"prices":[221,234,131,136,132,149,154,90,176,173],"times":[906,533,689],"next_num":3,"trial_type":"ticket-choose","trial_index":92,"time_elapsed":984699,"internal_node_id":"0.0-92.0"},{"result":196,"points":1,"place":4,"phase":1,"sequence":8,"prices":[143,206,153,194,201,267,168,208,210,196],"times":[1018,530,802,562,615,657,973,717,677,589],"next_num":10,"trial_type":"ticket-choose","trial_index":93,"time_elapsed":995557,"internal_node_id":"0.0-93.0"},{"result":108,"points":3,"place":0,"phase":1,"sequence":9,"prices":[155,129,164,189,210,108,187,241,174,275],"times":[1622,525,916,577,646,769],"next_num":6,"trial_type":"ticket-choose","trial_index":94,"time_elapsed":1003440,"internal_node_id":"0.0-94.0"},{"result":154,"points":2,"place":1,"phase":1,"sequence":10,"prices":[169,192,176,244,178,194,154,159,237,125],"times":[1662,548,577,568,594,546,1448],"next_num":7,"trial_type":"ticket-choose","trial_index":95,"time_elapsed":1012449,"internal_node_id":"0.0-95.0"},{"result":154,"points":2,"place":1,"phase":1,"sequence":11,"prices":[169,194,154,271,178,201,176,158,236,127],"times":[867,517,1447],"next_num":3,"trial_type":"ticket-choose","trial_index":96,"time_elapsed":1017531,"internal_node_id":"0.0-96.0"},{"result":146,"points":2,"place":1,"phase":1,"sequence":12,"prices":[172,191,176,272,179,194,146,152,126,235],"times":[1221,580,615,647,781,551,807],"next_num":7,"trial_type":"ticket-choose","trial_index":97,"time_elapsed":1026262,"internal_node_id":"0.0-97.0"},{"result":124,"points":3,"place":0,"phase":1,"sequence":13,"prices":[219,183,227,124,176,161,140,129,171,201],"times":[604,1048,642,1238],"next_num":4,"trial_type":"ticket-choose","trial_index":98,"time_elapsed":1032517,"internal_node_id":"0.0-98.0"},{"result":135,"points":3,"place":0,"phase":1,"sequence":14,"prices":[221,193,135,188,217,179,196,190,175,159],"times":[1083,1507,776],"next_num":3,"trial_type":"ticket-choose","trial_index":99,"time_elapsed":1038004,"internal_node_id":"0.0-99.0"},{"result":154,"points":2,"place":1,"phase":1,"sequence":15,"prices":[170,193,176,245,178,194,154,159,236,126],"times":[849,633,612,611,628,562,807],"next_num":7,"trial_type":"ticket-choose","trial_index":100,"time_elapsed":1045689,"internal_node_id":"0.0-100.0"},{"result":150,"points":3,"place":0,"phase":1,"sequence":16,"prices":[197,153,181,215,150,155,164,247,177,162],"times":[653,1041,524,583,1071],"next_num":5,"trial_type":"ticket-choose","trial_index":101,"time_elapsed":1052224,"internal_node_id":"0.0-101.0"},{"result":136,"points":2,"place":1,"phase":1,"sequence":17,"prices":[169,192,174,246,180,195,136,152,238,126],"times":[646,562,669,601,1029,544,782],"next_num":7,"trial_type":"ticket-choose","trial_index":102,"time_elapsed":1060126,"internal_node_id":"0.0-102.0"},{"result":136,"points":2,"place":1,"phase":1,"sequence":18,"prices":[172,190,136,270,179,192,174,152,237,129],"times":[929,529,739],"next_num":3,"trial_type":"ticket-choose","trial_index":103,"time_elapsed":1064404,"internal_node_id":"0.0-103.0"},{"result":136,"points":2,"place":1,"phase":1,"sequence":19,"prices":[171,192,136,243,182,195,174,154,236,128],"times":[726,555,778],"next_num":3,"trial_type":"ticket-choose","trial_index":104,"time_elapsed":1068564,"internal_node_id":"0.0-104.0"},{"result":116,"points":3,"place":0,"phase":1,"sequence":20,"prices":[186,146,191,179,152,116,140,201,172,187],"times":[755,702,499,605,764,833],"next_num":6,"trial_type":"ticket-choose","trial_index":105,"time_elapsed":1075481,"internal_node_id":"0.0-105.0"},{"result":192,"points":1,"place":4,"phase":1,"sequence":21,"prices":[157,205,161,175,197,254,165,210,214,192],"times":[1481,770,687,646,651,559,823,557,593,684],"next_num":10,"trial_type":"ticket-choose","trial_index":106,"time_elapsed":1086498,"internal_node_id":"0.0-106.0"},{"result":146,"points":2,"place":1,"phase":1,"sequence":22,"prices":[171,195,172,242,179,196,146,150,128,235],"times":[1389,617,593,633,605,603,821],"next_num":7,"trial_type":"ticket-choose","trial_index":107,"time_elapsed":1094702,"internal_node_id":"0.0-107.0"},{"result":154,"points":2,"place":1,"phase":1,"sequence":23,"prices":[169,191,154,268,183,197,176,155,236,133],"times":[1143,576,1352],"next_num":3,"trial_type":"ticket-choose","trial_index":108,"time_elapsed":1099871,"internal_node_id":"0.0-108.0"},{"result":142,"points":3,"place":0,"phase":1,"sequence":24,"prices":[142,207,171,182,190,269,180,218,256,188],"times":[1080],"next_num":1,"trial_type":"ticket-choose","trial_index":109,"time_elapsed":1102721,"internal_node_id":"0.0-109.0"},{"result":154,"points":2,"place":1,"phase":1,"sequence":25,"prices":[170,190,176,251,183,192,154,157,236,131],"times":[566,710,551,543,574,554,800],"next_num":7,"trial_type":"ticket-choose","trial_index":110,"time_elapsed":1109976,"internal_node_id":"0.0-110.0"},{"result":154,"points":2,"place":1,"phase":1,"sequence":26,"prices":[169,193,154,255,178,194,176,158,239,126],"times":[702,449,826],"next_num":3,"trial_type":"ticket-choose","trial_index":111,"time_elapsed":1114035,"internal_node_id":"0.0-111.0"},{"result":136,"points":2,"place":1,"phase":1,"sequence":27,"prices":[172,194,174,243,182,193,136,150,237,126],"times":[1589,520,517,554,606,840,727],"next_num":7,"trial_type":"ticket-choose","trial_index":112,"time_elapsed":1122396,"internal_node_id":"0.0-112.0"},{"result":105,"points":3,"place":0,"phase":1,"sequence":28,"prices":[263,165,224,214,105,230,215,185,177,193],"times":[1767,1654,505,547,770],"next_num":5,"trial_type":"ticket-choose","trial_index":113,"time_elapsed":1130228,"internal_node_id":"0.0-113.0"},{"result":136,"points":2,"place":1,"phase":1,"sequence":29,"prices":[170,192,174,242,181,196,136,153,236,128],"times":[662,605,1394,574,562,628,830],"next_num":7,"trial_type":"ticket-choose","trial_index":114,"time_elapsed":1138474,"internal_node_id":"0.0-114.0"},{"result":154,"points":2,"place":1,"phase":1,"sequence":30,"prices":[168,192,154,237,182,196,176,156,235,133],"times":[1226,494,826],"next_num":3,"trial_type":"ticket-choose","trial_index":115,"time_elapsed":1143118,"internal_node_id":"0.0-115.0"},{"result":146,"points":2,"place":1,"phase":1,"sequence":31,"prices":[168,191,172,240,183,193,146,151,125,238],"times":[666,564,1070,594,1275,566,1164],"next_num":7,"trial_type":"ticket-choose","trial_index":116,"time_elapsed":1152086,"internal_node_id":"0.0-116.0"},{"result":149,"points":2,"place":1,"phase":1,"sequence":32,"prices":[196,221,149,164,216,167,175,128,176,181],"times":[896,557,1143],"next_num":3,"trial_type":"ticket-choose","trial_index":117,"time_elapsed":1156751,"internal_node_id":"0.0-117.0"},{"result":135,"points":3,"place":0,"phase":1,"sequence":33,"prices":[135,202,150,169,183,225,160,211,220,172],"times":[1061],"next_num":1,"trial_type":"ticket-choose","trial_index":118,"time_elapsed":1159496,"internal_node_id":"0.0-118.0"},{"result":189,"points":1,"place":4,"phase":1,"sequence":34,"prices":[157,213,159,187,194,242,161,222,225,189],"times":[1083,474,765,470,549,531,805,528,578,586],"next_num":10,"trial_type":"ticket-choose","trial_index":119,"time_elapsed":1169442,"internal_node_id":"0.0-119.0"},{"result":146,"points":3,"place":0,"phase":1,"sequence":35,"prices":[156,218,212,216,191,210,275,146,174,152],"times":[1265,516,492,686,917,598,588,792],"next_num":8,"trial_type":"ticket-choose","trial_index":120,"time_elapsed":1178460,"internal_node_id":"0.0-120.0"},{"result":146,"points":2,"place":1,"phase":1,"sequence":36,"prices":[173,191,146,242,178,194,172,152,126,235],"times":[680,590,784],"next_num":3,"trial_type":"ticket-choose","trial_index":121,"time_elapsed":1182598,"internal_node_id":"0.0-121.0"},{"result":146,"points":2,"place":1,"phase":1,"sequence":37,"prices":[171,191,172,268,179,194,146,150,127,239],"times":[596,532,589,749,678,625,891],"next_num":7,"trial_type":"ticket-choose","trial_index":122,"time_elapsed":1190177,"internal_node_id":"0.0-122.0"},{"result":149,"points":3,"place":0,"phase":1,"sequence":38,"prices":[244,203,196,189,154,206,197,149,171,159],"times":[729,504,617,488,591,495,692,687],"next_num":8,"trial_type":"ticket-choose","trial_index":123,"time_elapsed":1198177,"internal_node_id":"0.0-123.0"},{"result":136,"points":3,"place":0,"phase":1,"sequence":39,"prices":[240,188,273,207,250,136,217,170,171,236],"times":[1938,611,1532,476,553,809],"next_num":6,"trial_type":"ticket-choose","trial_index":124,"time_elapsed":1206803,"internal_node_id":"0.0-124.0"},{"result":217,"points":0,"place":8,"phase":1,"sequence":40,"prices":[198,119,169,141,195,233,136,208,177,217],"times":[2824,518,537,441,721,539,665,817,700,523],"next_num":10,"trial_type":"ticket-choose","trial_index":125,"time_elapsed":1218705,"internal_node_id":"0.0-125.0"},{"result":158,"points":1,"place":3,"phase":1,"sequence":41,"prices":[216,206,158,145,224,185,124,149,175,162],"times":[4467,668,1102],"next_num":3,"trial_type":"ticket-choose","trial_index":126,"time_elapsed":1227352,"internal_node_id":"0.0-126.0"},{"result":136,"points":2,"place":1,"phase":1,"sequence":42,"prices":[171,192,136,265,180,194,174,152,239,127],"times":[904,495,775],"next_num":3,"trial_type":"ticket-choose","trial_index":127,"time_elapsed":1231961,"internal_node_id":"0.0-127.0"},{"result":136,"points":2,"place":1,"phase":1,"sequence":43,"prices":[173,194,136,239,182,200,174,150,236,127],"times":[818,738,722],"next_num":3,"trial_type":"ticket-choose","trial_index":128,"time_elapsed":1236477,"internal_node_id":"0.0-128.0"},{"result":130,"points":2,"place":1,"phase":1,"sequence":44,"prices":[181,130,116,142,157,193,165,218,173,207],"times":[1211,775],"next_num":2,"trial_type":"ticket-choose","trial_index":129,"time_elapsed":1240477,"internal_node_id":"0.0-129.0"},{"result":159,"points":2,"place":1,"phase":1,"sequence":45,"prices":[182,249,159,114,184,205,175,189,172,178],"times":[762,536,915],"next_num":3,"trial_type":"ticket-choose","trial_index":130,"time_elapsed":1245155,"internal_node_id":"0.0-130.0"},{"result":146,"points":2,"place":1,"phase":1,"sequence":46,"prices":[168,191,146,252,183,193,172,153,126,238],"times":[877,911,686],"next_num":3,"trial_type":"ticket-choose","trial_index":131,"time_elapsed":1250018,"internal_node_id":"0.0-131.0"},{"result":154,"points":2,"place":1,"phase":1,"sequence":47,"prices":[168,192,176,242,183,197,154,156,237,132],"times":[768,544,591,586,836,647,791],"next_num":7,"trial_type":"ticket-choose","trial_index":132,"time_elapsed":1257802,"internal_node_id":"0.0-132.0"},{"result":241,"points":0,"place":8,"phase":1,"sequence":48,"prices":[170,193,146,268,178,195,172,149,126,241],"times":[749,898,1015,495,580,587,507,1162,486,2537],"next_num":10,"trial_type":"ticket-choose","trial_index":133,"time_elapsed":1270539,"internal_node_id":"0.0-133.0"},{"result":137,"points":3,"place":0,"phase":1,"sequence":49,"prices":[137,187,152,156,166,231,155,194,202,160],"times":[1319],"next_num":1,"trial_type":"ticket-choose","trial_index":134,"time_elapsed":1273699,"internal_node_id":"0.0-134.0"},{"responses":[{"value":1,"offby":0,"category":"$90 - $120","category_index":0},{"value":2,"offby":-1,"category":"$121 - $145","category_index":1},{"value":4,"offby":1,"category":"$146 - $170","category_index":2},{"value":7,"offby":1,"category":"$171 - $195","category_index":3},{"value":4,"offby":0,"category":"$196 - $220","category_index":4},{"value":1,"offby":-1,"category":"$221 - $245","category_index":5},{"value":1,"offby":0,"category":"$246 - $270","category_index":6}],"phase":1,"number":1,"trial_type":"bar-choose","trial_index":135,"time_elapsed":1300548,"internal_node_id":"0.0-135.0"},{"special_comment":"Notin particular.","trial_type":"special_sequence","trial_index":136,"time_elapsed":1311104,"internal_node_id":"0.0-136.0"},{"during":"Nothing","bonus":288,"trial_type":"final","trial_index":137,"time_elapsed":1334898,"internal_node_id":"0.0-137.0"}],"bonus":288}