{"start_time":"2017-06-07 10:03:17","end_time":"2017-06-07 10:32:43","points_phase0":111,"points_phase1":112,"phase_order":1,"age":38,"gender":"m","tries":1,"during":"Nothing","worker_id":"A1WJU1IQ3UTRC6","assignment_id":"31N2WW6R9SJGMEOVO5EV3U1322FF3N","data":[{"rt":26580,"url":"\/tickets\/utils\/consent.html","trial_type":"html","trial_index":0,"time_elapsed":27511,"internal_node_id":"0.0-0.0"},{"age":38,"gender":"m","trial_type":"age","trial_index":1,"time_elapsed":34270,"internal_node_id":"0.0-1.0"},{"worker_id":"A1WJU1IQ3UTRC6","trial_type":"workerid","trial_index":2,"time_elapsed":50034,"internal_node_id":"0.0-2.0"},{"tries":1,"trial_type":"instructions_check","trial_index":3,"time_elapsed":107311,"internal_node_id":"0.0-3.0"},{"rt":20911,"url":"\/tickets\/utils\/start.html","trial_type":"html","trial_index":4,"time_elapsed":129841,"internal_node_id":"0.0-4.0"},{"trial_type":"number-animation","trial_index":5,"time_elapsed":148942,"internal_node_id":"0.0-5.0"},{"phase":0,"sequence":0,"avg":166,"response":147,"trial_type":"training_avg","trial_index":6,"time_elapsed":163271,"internal_node_id":"0.0-6.0"},{"trial_type":"number-animation","trial_index":7,"time_elapsed":205748,"internal_node_id":"0.0-7.0"},{"phase":0,"sequence":1,"avg":198,"response":180,"trial_type":"training_avg","trial_index":8,"time_elapsed":225056,"internal_node_id":"0.0-8.0"},{"trial_type":"number-animation","trial_index":9,"time_elapsed":256848,"internal_node_id":"0.0-9.0"},{"phase":0,"sequence":2,"avg":177,"response":180,"trial_type":"training_avg","trial_index":10,"time_elapsed":280558,"internal_node_id":"0.0-10.0"},{"trial_type":"number-animation","trial_index":11,"time_elapsed":306441,"internal_node_id":"0.0-11.0"},{"phase":0,"sequence":3,"avg":190,"response":188,"trial_type":"training_avg","trial_index":12,"time_elapsed":321138,"internal_node_id":"0.0-12.0"},{"trial_type":"number-animation","trial_index":13,"time_elapsed":357752,"internal_node_id":"0.0-13.0"},{"phase":0,"sequence":4,"avg":201,"response":193,"trial_type":"training_avg","trial_index":14,"time_elapsed":370136,"internal_node_id":"0.0-14.0"},{"responses":[{"value":0,"offby":-1,"category":"$30 - $75","category_index":0},{"value":0,"offby":-2,"category":"$76 - $120","category_index":1},{"value":4,"offby":0,"category":"$121 - $165","category_index":2},{"value":10,"offby":4,"category":"$166 - $210","category_index":3},{"value":6,"offby":0,"category":"$211 - $255","category_index":4},{"value":0,"offby":-1,"category":"$256 - $300","category_index":5},{"value":0,"offby":0,"category":"$301 - $345","category_index":6}],"phase":0,"number":0,"trial_type":"bar-choose","trial_index":15,"time_elapsed":435237,"internal_node_id":"0.0-15.0"},{"rt":29313,"url":"\/tickets\/\/utils\/testing.html","trial_type":"html","trial_index":16,"time_elapsed":466187,"internal_node_id":"0.0-16.0"},{"phase":0,"order":[38,19,44,33,46,0,16,21,34,22,25,26,45,1,24,31,37,13,49,11,43,3,18,28,27,2,41,39,6,5,32,35,47,29,20,48,36,15,8,30,42,4,17,12,10,9,23,14,7,40],"trial_type":"store_order","trial_index":17,"time_elapsed":467191,"internal_node_id":"0.0-17.0"},{"result":126,"points":3,"place":0,"phase":0,"sequence":-1,"prices":[184,180,224,165,181,199,185,193,218,126],"times":[3240,1624,826,1224,890,875,1417,919,858,2562],"next_num":10,"trial_type":"ticket-choose","trial_index":18,"time_elapsed":490843,"internal_node_id":"0.0-18.0"},{"rt":26529,"url":"\/tickets\/utils\/testing_after.html","trial_type":"html","trial_index":19,"time_elapsed":519776,"internal_node_id":"0.0-19.0"},{"result":136,"points":1,"place":2,"phase":0,"sequence":0,"prices":[255,166,266,175,136,145,155,61,96,301],"times":[2035,2840,1006,897,1718],"next_num":5,"trial_type":"ticket-choose","trial_index":20,"time_elapsed":536366,"internal_node_id":"0.0-20.0"},{"result":81,"points":3,"place":0,"phase":0,"sequence":1,"prices":[81,205,130,151,191,261,145,210,250,165],"times":[2169],"next_num":1,"trial_type":"ticket-choose","trial_index":21,"time_elapsed":543223,"internal_node_id":"0.0-21.0"},{"result":131,"points":2,"place":1,"phase":0,"sequence":2,"prices":[156,181,131,256,176,200,171,151,111,206],"times":[1400,630,1483],"next_num":3,"trial_type":"ticket-choose","trial_index":22,"time_elapsed":550011,"internal_node_id":"0.0-22.0"},{"result":126,"points":2,"place":1,"phase":0,"sequence":3,"prices":[151,175,166,251,170,195,126,146,105,201],"times":[1749,509,557,591,550,559,1453],"next_num":7,"trial_type":"ticket-choose","trial_index":23,"time_elapsed":560084,"internal_node_id":"0.0-23.0"},{"result":121,"points":2,"place":1,"phase":0,"sequence":4,"prices":[150,170,160,240,166,185,121,136,95,191],"times":[2056,505,694,687,728,652,1495],"next_num":7,"trial_type":"ticket-choose","trial_index":24,"time_elapsed":570741,"internal_node_id":"0.0-24.0"},{"result":65,"points":2,"place":1,"phase":0,"sequence":5,"prices":[220,236,176,65,185,101,110,61,156,191],"times":[1076,537,3089,1464],"next_num":4,"trial_type":"ticket-choose","trial_index":25,"time_elapsed":580310,"internal_node_id":"0.0-25.0"},{"result":86,"points":3,"place":0,"phase":0,"sequence":6,"prices":[86,180,130,151,170,271,145,191,220,160],"times":[1875],"next_num":1,"trial_type":"ticket-choose","trial_index":26,"time_elapsed":585356,"internal_node_id":"0.0-26.0"},{"result":126,"points":2,"place":1,"phase":0,"sequence":7,"prices":[156,176,165,246,171,190,126,141,101,196],"times":[861,484,600,579,614,642,1743],"next_num":7,"trial_type":"ticket-choose","trial_index":27,"time_elapsed":595396,"internal_node_id":"0.0-27.0"},{"result":106,"points":3,"place":0,"phase":0,"sequence":8,"prices":[180,106,166,245,211,261,215,125,135,190],"times":[898,1585],"next_num":2,"trial_type":"ticket-choose","trial_index":28,"time_elapsed":600938,"internal_node_id":"0.0-28.0"},{"result":131,"points":2,"place":1,"phase":0,"sequence":9,"prices":[161,180,131,251,175,196,171,146,105,201],"times":[1240,485,1617],"next_num":3,"trial_type":"ticket-choose","trial_index":29,"time_elapsed":607451,"internal_node_id":"0.0-29.0"},{"result":145,"points":1,"place":2,"phase":0,"sequence":10,"prices":[151,176,126,251,170,196,165,145,105,201],"times":[758,437,924,509,844,604,719,1713],"next_num":8,"trial_type":"ticket-choose","trial_index":30,"time_elapsed":618191,"internal_node_id":"0.0-30.0"},{"result":121,"points":2,"place":1,"phase":0,"sequence":11,"prices":[146,170,121,245,166,190,161,141,100,195],"times":[1265,517,1250],"next_num":3,"trial_type":"ticket-choose","trial_index":31,"time_elapsed":624816,"internal_node_id":"0.0-31.0"},{"result":51,"points":3,"place":0,"phase":0,"sequence":12,"prices":[221,175,51,196,146,130,166,80,126,156],"times":[1094,529,1368],"next_num":3,"trial_type":"ticket-choose","trial_index":32,"time_elapsed":631049,"internal_node_id":"0.0-32.0"},{"result":126,"points":2,"place":1,"phase":0,"sequence":13,"prices":[150,175,166,251,170,196,126,145,105,201],"times":[1444,497,538,518,458,474,1599],"next_num":7,"trial_type":"ticket-choose","trial_index":33,"time_elapsed":640328,"internal_node_id":"0.0-33.0"},{"result":136,"points":1,"place":2,"phase":0,"sequence":14,"prices":[150,171,121,241,165,185,160,136,95,191],"times":[6129,464,1570,485,554,581,770,1746],"next_num":8,"trial_type":"ticket-choose","trial_index":34,"time_elapsed":657444,"internal_node_id":"0.0-34.0"},{"result":105,"points":3,"place":0,"phase":0,"sequence":15,"prices":[160,180,130,251,176,195,170,146,105,200],"times":[849,441,439,699,1382,492,460,1062,1552],"next_num":9,"trial_type":"ticket-choose","trial_index":35,"time_elapsed":669130,"internal_node_id":"0.0-35.0"},{"result":120,"points":2,"place":1,"phase":0,"sequence":16,"prices":[150,171,120,241,165,185,160,135,96,190],"times":[2802,508,1511],"next_num":3,"trial_type":"ticket-choose","trial_index":36,"time_elapsed":677112,"internal_node_id":"0.0-36.0"},{"result":106,"points":2,"place":1,"phase":0,"sequence":17,"prices":[185,180,235,210,106,266,76,115,250,205],"times":[2419,607,585,690,1225],"next_num":5,"trial_type":"ticket-choose","trial_index":37,"time_elapsed":686732,"internal_node_id":"0.0-37.0"},{"result":106,"points":3,"place":0,"phase":0,"sequence":18,"prices":[155,225,245,130,176,106,180,211,165,200],"times":[933,496,456,871,528,1548],"next_num":6,"trial_type":"ticket-choose","trial_index":38,"time_elapsed":695329,"internal_node_id":"0.0-38.0"},{"result":116,"points":3,"place":0,"phase":0,"sequence":19,"prices":[176,150,276,171,261,116,130,201,166,231],"times":[650,942,467,476,504,2713],"next_num":6,"trial_type":"ticket-choose","trial_index":39,"time_elapsed":705002,"internal_node_id":"0.0-39.0"},{"result":196,"points":1,"place":4,"phase":0,"sequence":20,"prices":[120,221,135,185,200,261,181,251,255,196],"times":[1802,582,886,500,652,538,643,545,779,1664],"next_num":10,"trial_type":"ticket-choose","trial_index":40,"time_elapsed":721033,"internal_node_id":"0.0-40.0"},{"result":131,"points":2,"place":1,"phase":0,"sequence":21,"prices":[160,180,170,251,176,195,131,146,105,200],"times":[3239,596,968,493,567,488,1437],"next_num":7,"trial_type":"ticket-choose","trial_index":41,"time_elapsed":733089,"internal_node_id":"0.0-41.0"},{"result":150,"points":1,"place":4,"phase":0,"sequence":22,"prices":[111,231,131,146,171,295,141,241,271,150],"times":[875,472,431,504,471,426,5609,622,663,1280],"next_num":10,"trial_type":"ticket-choose","trial_index":42,"time_elapsed":748964,"internal_node_id":"0.0-42.0"},{"result":150,"points":2,"place":1,"phase":0,"sequence":23,"prices":[181,156,145,165,236,231,201,260,150,185],"times":[845,440,1135,547,567,559,687,553,1480],"next_num":9,"trial_type":"ticket-choose","trial_index":43,"time_elapsed":759720,"internal_node_id":"0.0-43.0"},{"result":111,"points":3,"place":0,"phase":0,"sequence":24,"prices":[175,211,266,286,111,216,220,245,230,165],"times":[924,1227,492,481,1229],"next_num":5,"trial_type":"ticket-choose","trial_index":44,"time_elapsed":767299,"internal_node_id":"0.0-44.0"},{"result":125,"points":1,"place":2,"phase":0,"sequence":25,"prices":[226,205,125,120,115,135,180,145,150,220],"times":[941,806,1761],"next_num":3,"trial_type":"ticket-choose","trial_index":45,"time_elapsed":774019,"internal_node_id":"0.0-45.0"},{"result":165,"points":1,"place":2,"phase":0,"sequence":26,"prices":[185,175,276,221,130,141,171,216,235,165],"times":[545,446,455,673,1197,708,893,532,1459,1504],"next_num":10,"trial_type":"ticket-choose","trial_index":46,"time_elapsed":786920,"internal_node_id":"0.0-46.0"},{"result":95,"points":3,"place":0,"phase":0,"sequence":27,"prices":[95,205,106,151,186,271,145,210,215,181],"times":[1565],"next_num":1,"trial_type":"ticket-choose","trial_index":47,"time_elapsed":791069,"internal_node_id":"0.0-47.0"},{"result":130,"points":2,"place":1,"phase":0,"sequence":28,"prices":[156,181,130,255,175,200,170,150,111,205],"times":[1213,472,1159],"next_num":3,"trial_type":"ticket-choose","trial_index":48,"time_elapsed":796323,"internal_node_id":"0.0-48.0"},{"result":131,"points":2,"place":1,"phase":0,"sequence":29,"prices":[161,180,171,250,176,195,131,146,105,201],"times":[1048,480,777,525,589,644,1440],"next_num":7,"trial_type":"ticket-choose","trial_index":49,"time_elapsed":806868,"internal_node_id":"0.0-49.0"},{"result":120,"points":2,"place":1,"phase":0,"sequence":30,"prices":[145,170,160,245,165,190,120,141,100,195],"times":[1478,493,469,482,451,563,1242],"next_num":7,"trial_type":"ticket-choose","trial_index":50,"time_elapsed":815988,"internal_node_id":"0.0-50.0"},{"result":120,"points":2,"place":1,"phase":0,"sequence":31,"prices":[186,156,191,120,195,145,45,130,246,176],"times":[1015,648,456,1346],"next_num":4,"trial_type":"ticket-choose","trial_index":51,"time_elapsed":822140,"internal_node_id":"0.0-51.0"},{"result":130,"points":3,"place":0,"phase":0,"sequence":32,"prices":[130,195,141,155,181,226,150,216,221,175],"times":[3053],"next_num":1,"trial_type":"ticket-choose","trial_index":52,"time_elapsed":827701,"internal_node_id":"0.0-52.0"},{"result":125,"points":2,"place":1,"phase":0,"sequence":33,"prices":[156,175,125,245,170,190,165,140,101,196],"times":[6095,2747,3915],"next_num":3,"trial_type":"ticket-choose","trial_index":53,"time_elapsed":843263,"internal_node_id":"0.0-53.0"},{"result":126,"points":2,"place":1,"phase":0,"sequence":34,"prices":[156,175,126,246,170,190,165,140,100,196],"times":[1866,1376,2725],"next_num":3,"trial_type":"ticket-choose","trial_index":54,"time_elapsed":852133,"internal_node_id":"0.0-54.0"},{"result":126,"points":2,"place":1,"phase":0,"sequence":35,"prices":[150,176,126,251,171,195,165,145,105,200],"times":[1390,499,1233],"next_num":3,"trial_type":"ticket-choose","trial_index":55,"time_elapsed":857764,"internal_node_id":"0.0-55.0"},{"result":81,"points":3,"place":0,"phase":0,"sequence":36,"prices":[155,245,155,81,180,130,156,306,166,115],"times":[1313,456,577,1539],"next_num":4,"trial_type":"ticket-choose","trial_index":56,"time_elapsed":864480,"internal_node_id":"0.0-56.0"},{"result":125,"points":2,"place":1,"phase":0,"sequence":37,"prices":[155,175,166,245,171,190,125,140,101,196],"times":[5238,504,414,567,491,512,1246],"next_num":7,"trial_type":"ticket-choose","trial_index":57,"time_elapsed":877438,"internal_node_id":"0.0-57.0"},{"result":130,"points":2,"place":1,"phase":0,"sequence":38,"prices":[155,181,170,255,176,200,130,150,110,205],"times":[801,502,432,534,474,712,1572],"next_num":7,"trial_type":"ticket-choose","trial_index":58,"time_elapsed":887080,"internal_node_id":"0.0-58.0"},{"result":105,"points":3,"place":0,"phase":0,"sequence":39,"prices":[105,216,146,165,210,260,161,235,241,185],"times":[1838],"next_num":1,"trial_type":"ticket-choose","trial_index":59,"time_elapsed":891127,"internal_node_id":"0.0-59.0"},{"result":91,"points":3,"place":0,"phase":0,"sequence":40,"prices":[176,150,141,91,290,201,106,266,206,126],"times":[932,515,608,1211],"next_num":4,"trial_type":"ticket-choose","trial_index":60,"time_elapsed":897476,"internal_node_id":"0.0-60.0"},{"result":135,"points":3,"place":0,"phase":0,"sequence":41,"prices":[135,180,141,151,175,220,145,196,211,155],"times":[1778],"next_num":1,"trial_type":"ticket-choose","trial_index":61,"time_elapsed":901728,"internal_node_id":"0.0-61.0"},{"result":120,"points":2,"place":1,"phase":0,"sequence":42,"prices":[145,171,161,245,165,191,120,140,100,196],"times":[1030,496,496,509,486,486,1430],"next_num":7,"trial_type":"ticket-choose","trial_index":62,"time_elapsed":910846,"internal_node_id":"0.0-62.0"},{"result":66,"points":3,"place":0,"phase":0,"sequence":43,"prices":[66,201,96,150,185,230,121,216,225,165],"times":[1544],"next_num":1,"trial_type":"ticket-choose","trial_index":63,"time_elapsed":914591,"internal_node_id":"0.0-63.0"},{"result":136,"points":3,"place":0,"phase":0,"sequence":44,"prices":[246,145,155,191,176,270,185,136,160,215],"times":[1366,477,540,476,518,497,605,1416],"next_num":8,"trial_type":"ticket-choose","trial_index":64,"time_elapsed":926039,"internal_node_id":"0.0-64.0"},{"result":30,"points":3,"place":0,"phase":0,"sequence":45,"prices":[155,30,101,55,136,276,70,181,200,261],"times":[900,1334],"next_num":2,"trial_type":"ticket-choose","trial_index":65,"time_elapsed":930997,"internal_node_id":"0.0-65.0"},{"result":75,"points":3,"place":0,"phase":0,"sequence":46,"prices":[75,171,131,151,161,250,145,190,206,156],"times":[1451],"next_num":1,"trial_type":"ticket-choose","trial_index":66,"time_elapsed":934736,"internal_node_id":"0.0-66.0"},{"result":131,"points":2,"place":1,"phase":0,"sequence":47,"prices":[156,181,171,256,175,200,131,150,110,206],"times":[699,477,454,457,480,590,1215],"next_num":7,"trial_type":"ticket-choose","trial_index":67,"time_elapsed":945251,"internal_node_id":"0.0-67.0"},{"result":120,"points":2,"place":1,"phase":0,"sequence":48,"prices":[150,170,160,241,166,186,120,136,96,191],"times":[912,493,674,3013,2129,544,1421],"next_num":7,"trial_type":"ticket-choose","trial_index":68,"time_elapsed":962102,"internal_node_id":"0.0-68.0"},{"result":120,"points":2,"place":1,"phase":0,"sequence":49,"prices":[146,171,120,245,165,191,160,140,100,196],"times":[1599,499,1488],"next_num":3,"trial_type":"ticket-choose","trial_index":69,"time_elapsed":968793,"internal_node_id":"0.0-69.0"},{"responses":[{"value":0,"offby":-1,"category":"$30 - $75","category_index":0},{"value":1,"offby":-1,"category":"$76 - $120","category_index":1},{"value":6,"offby":2,"category":"$121 - $165","category_index":2},{"value":8,"offby":2,"category":"$166 - $210","category_index":3},{"value":5,"offby":-1,"category":"$211 - $255","category_index":4},{"value":0,"offby":-1,"category":"$256 - $300","category_index":5},{"value":0,"offby":0,"category":"$301 - $345","category_index":6}],"phase":0,"number":1,"trial_type":"bar-choose","trial_index":70,"time_elapsed":1010599,"internal_node_id":"0.0-70.0"},{"rt":15057,"url":"\/tickets\/utils\/start2.html","trial_type":"html","trial_index":71,"time_elapsed":1027209,"internal_node_id":"0.0-71.0"},{"trial_type":"number-animation","trial_index":72,"time_elapsed":1036693,"internal_node_id":"0.0-72.0"},{"phase":1,"sequence":0,"avg":180,"response":177,"trial_type":"training_avg","trial_index":73,"time_elapsed":1046131,"internal_node_id":"0.0-73.0"},{"trial_type":"number-animation","trial_index":74,"time_elapsed":1053995,"internal_node_id":"0.0-74.0"},{"phase":1,"sequence":1,"avg":178,"response":178,"trial_type":"training_avg","trial_index":75,"time_elapsed":1061102,"internal_node_id":"0.0-75.0"},{"trial_type":"number-animation","trial_index":76,"time_elapsed":1071333,"internal_node_id":"0.0-76.0"},{"phase":1,"sequence":2,"avg":176,"response":173,"trial_type":"training_avg","trial_index":77,"time_elapsed":1076729,"internal_node_id":"0.0-77.0"},{"trial_type":"number-animation","trial_index":78,"time_elapsed":1084172,"internal_node_id":"0.0-78.0"},{"phase":1,"sequence":3,"avg":178,"response":180,"trial_type":"training_avg","trial_index":79,"time_elapsed":1091742,"internal_node_id":"0.0-79.0"},{"trial_type":"number-animation","trial_index":80,"time_elapsed":1098075,"internal_node_id":"0.0-80.0"},{"phase":1,"sequence":4,"avg":179,"response":177,"trial_type":"training_avg","trial_index":81,"time_elapsed":1104964,"internal_node_id":"0.0-81.0"},{"responses":[{"value":0,"offby":0,"category":"$140 - $250","category_index":0},{"value":0,"offby":0,"category":"$151 - $160","category_index":1},{"value":3,"offby":-1,"category":"$161 - $170","category_index":2},{"value":12,"offby":6,"category":"$171 - $180","category_index":3},{"value":5,"offby":-2,"category":"$181 - $190","category_index":4},{"value":0,"offby":-3,"category":"$191 - $200","category_index":5},{"value":0,"offby":0,"category":"$201 - $210","category_index":6}],"phase":1,"number":0,"trial_type":"bar-choose","trial_index":82,"time_elapsed":1129654,"internal_node_id":"0.0-82.0"},{"rt":16011,"url":"\/tickets\/utils\/testing2.html","trial_type":"html","trial_index":83,"time_elapsed":1147258,"internal_node_id":"0.0-83.0"},{"phase":1,"order":[39,30,10,7,20,43,24,5,41,8,2,19,35,6,16,9,17,34,49,40,27,13,29,47,46,36,38,25,11,12,23,37,33,1,0,3,42,4,14,26,45,32,22,31,48,44,28,15,21,18],"trial_type":"store_order","trial_index":84,"time_elapsed":1148261,"internal_node_id":"0.0-84.0"},{"result":170,"points":3,"place":0,"phase":1,"sequence":0,"prices":[181,179,199,188,170,172,178,187,191,177],"times":[13905,1096,538,585,1924],"next_num":5,"trial_type":"ticket-choose","trial_index":85,"time_elapsed":1170932,"internal_node_id":"0.0-85.0"},{"result":173,"points":1,"place":3,"phase":1,"sequence":1,"prices":[173,178,168,193,177,182,176,172,164,183],"times":[1780],"next_num":1,"trial_type":"ticket-choose","trial_index":86,"time_elapsed":1174986,"internal_node_id":"0.0-86.0"},{"result":175,"points":0,"place":5,"phase":1,"sequence":2,"prices":[175,150,164,155,171,199,158,180,184,196],"times":[1808],"next_num":1,"trial_type":"ticket-choose","trial_index":87,"time_elapsed":1179761,"internal_node_id":"0.0-87.0"},{"result":179,"points":1,"place":4,"phase":1,"sequence":3,"prices":[170,183,172,175,180,189,174,187,188,179],"times":[1062,1044,677,539,475,499,930,758,644,1370],"next_num":10,"trial_type":"ticket-choose","trial_index":88,"time_elapsed":1192906,"internal_node_id":"0.0-88.0"},{"result":166,"points":3,"place":0,"phase":1,"sequence":4,"prices":[179,186,197,201,166,187,188,193,190,177],"times":[726,460,429,575,1467],"next_num":5,"trial_type":"ticket-choose","trial_index":89,"time_elapsed":1199413,"internal_node_id":"0.0-89.0"},{"result":169,"points":2,"place":1,"phase":1,"sequence":5,"prices":[175,179,169,193,178,182,177,172,164,183],"times":[707,527,1326],"next_num":3,"trial_type":"ticket-choose","trial_index":90,"time_elapsed":1204470,"internal_node_id":"0.0-90.0"},{"result":168,"points":2,"place":1,"phase":1,"sequence":6,"prices":[174,178,168,192,177,181,176,171,163,182],"times":[2401,414,1729],"next_num":3,"trial_type":"ticket-choose","trial_index":91,"time_elapsed":1211445,"internal_node_id":"0.0-91.0"},{"result":168,"points":2,"place":1,"phase":1,"sequence":7,"prices":[174,178,176,192,177,181,168,171,163,182],"times":[521,434,428,451,440,446,1228],"next_num":7,"trial_type":"ticket-choose","trial_index":92,"time_elapsed":1219763,"internal_node_id":"0.0-92.0"},{"result":165,"points":2,"place":1,"phase":1,"sequence":8,"prices":[181,180,191,186,165,197,159,167,194,185],"times":[693,449,669,650,1164],"next_num":5,"trial_type":"ticket-choose","trial_index":93,"time_elapsed":1226585,"internal_node_id":"0.0-93.0"},{"result":168,"points":2,"place":1,"phase":1,"sequence":9,"prices":[173,178,176,193,177,182,168,172,164,183],"times":[546,434,443,464,437,489,1545],"next_num":7,"trial_type":"ticket-choose","trial_index":94,"time_elapsed":1234584,"internal_node_id":"0.0-94.0"},{"result":163,"points":3,"place":0,"phase":1,"sequence":10,"prices":[163,185,165,174,181,198,173,186,187,180],"times":[1414],"next_num":1,"trial_type":"ticket-choose","trial_index":95,"time_elapsed":1238082,"internal_node_id":"0.0-95.0"},{"result":165,"points":3,"place":0,"phase":1,"sequence":11,"prices":[165,187,173,177,186,196,176,191,192,181],"times":[1504],"next_num":1,"trial_type":"ticket-choose","trial_index":96,"time_elapsed":1242790,"internal_node_id":"0.0-96.0"},{"result":162,"points":3,"place":0,"phase":1,"sequence":12,"prices":[179,174,172,162,202,184,165,197,185,169],"times":[573,438,503,1726],"next_num":4,"trial_type":"ticket-choose","trial_index":97,"time_elapsed":1249729,"internal_node_id":"0.0-97.0"},{"result":164,"points":3,"place":0,"phase":1,"sequence":13,"prices":[175,179,169,193,178,182,177,172,164,183],"times":[884,1347,721,558,444,524,488,517,1253],"next_num":9,"trial_type":"ticket-choose","trial_index":98,"time_elapsed":1260141,"internal_node_id":"0.0-98.0"},{"result":161,"points":3,"place":0,"phase":1,"sequence":14,"prices":[161,180,170,174,178,198,173,182,188,176],"times":[1693],"next_num":1,"trial_type":"ticket-choose","trial_index":99,"time_elapsed":1264480,"internal_node_id":"0.0-99.0"},{"result":157,"points":3,"place":0,"phase":1,"sequence":15,"prices":[157,184,163,174,181,190,168,187,189,177],"times":[1284],"next_num":1,"trial_type":"ticket-choose","trial_index":100,"time_elapsed":1267971,"internal_node_id":"0.0-100.0"},{"result":168,"points":2,"place":1,"phase":1,"sequence":16,"prices":[181,175,182,168,183,173,153,170,193,179],"times":[816,599,530,1576],"next_num":4,"trial_type":"ticket-choose","trial_index":101,"time_elapsed":1274382,"internal_node_id":"0.0-101.0"},{"result":165,"points":3,"place":0,"phase":1,"sequence":17,"prices":[176,180,178,194,179,183,170,173,165,184],"times":[747,501,451,457,519,2881,1098,548,1496],"next_num":9,"trial_type":"ticket-choose","trial_index":102,"time_elapsed":1288359,"internal_node_id":"0.0-102.0"},{"result":165,"points":3,"place":0,"phase":1,"sequence":18,"prices":[175,189,193,170,179,165,180,186,177,184],"times":[858,522,492,484,477,1344],"next_num":6,"trial_type":"ticket-choose","trial_index":103,"time_elapsed":1295683,"internal_node_id":"0.0-103.0"},{"result":166,"points":3,"place":0,"phase":1,"sequence":19,"prices":[175,180,170,195,179,184,178,174,166,185],"times":[632,444,440,558,493,473,459,2620,1403],"next_num":9,"trial_type":"ticket-choose","trial_index":104,"time_elapsed":1307016,"internal_node_id":"0.0-104.0"},{"result":157,"points":2,"place":1,"phase":1,"sequence":20,"prices":[188,191,179,157,181,164,166,156,175,182],"times":[563,939,601,1954],"next_num":4,"trial_type":"ticket-choose","trial_index":105,"time_elapsed":1313955,"internal_node_id":"0.0-105.0"},{"result":169,"points":2,"place":1,"phase":1,"sequence":21,"prices":[174,179,169,194,178,183,177,173,165,184],"times":[1129,532,1586],"next_num":3,"trial_type":"ticket-choose","trial_index":106,"time_elapsed":1319742,"internal_node_id":"0.0-106.0"},{"result":172,"points":1,"place":2,"phase":1,"sequence":22,"prices":[173,178,168,193,177,182,176,172,164,183],"times":[556,410,883,511,468,498,577,1343],"next_num":8,"trial_type":"ticket-choose","trial_index":107,"time_elapsed":1329410,"internal_node_id":"0.0-107.0"},{"result":159,"points":3,"place":0,"phase":1,"sequence":23,"prices":[159,178,170,174,176,194,173,182,185,175],"times":[1622],"next_num":1,"trial_type":"ticket-choose","trial_index":108,"time_elapsed":1334419,"internal_node_id":"0.0-108.0"},{"result":183,"points":1,"place":4,"phase":1,"sequence":24,"prices":[168,188,171,181,184,196,180,194,195,183],"times":[816,474,446,498,419,482,586,596,1122,1746],"next_num":10,"trial_type":"ticket-choose","trial_index":109,"time_elapsed":1346477,"internal_node_id":"0.0-109.0"},{"result":169,"points":2,"place":1,"phase":1,"sequence":25,"prices":[174,179,169,194,178,183,177,173,165,184],"times":[609,470,1363],"next_num":3,"trial_type":"ticket-choose","trial_index":110,"time_elapsed":1351221,"internal_node_id":"0.0-110.0"},{"result":165,"points":3,"place":0,"phase":1,"sequence":26,"prices":[180,165,177,193,186,196,187,169,171,182],"times":[746,1299],"next_num":2,"trial_type":"ticket-choose","trial_index":111,"time_elapsed":1356386,"internal_node_id":"0.0-111.0"},{"result":156,"points":3,"place":0,"phase":1,"sequence":27,"prices":[195,177,197,179,171,173,175,156,163,204],"times":[4430,779,504,539,458,558,457,1326],"next_num":8,"trial_type":"ticket-choose","trial_index":112,"time_elapsed":1369184,"internal_node_id":"0.0-112.0"},{"result":169,"points":2,"place":1,"phase":1,"sequence":28,"prices":[174,179,177,194,178,183,169,173,165,184],"times":[707,3619,510,568,499,536,1375],"next_num":7,"trial_type":"ticket-choose","trial_index":113,"time_elapsed":1380173,"internal_node_id":"0.0-113.0"},{"result":169,"points":2,"place":1,"phase":1,"sequence":29,"prices":[175,179,177,193,178,182,169,172,164,183],"times":[507,5114,683,524,546,516,1367],"next_num":7,"trial_type":"ticket-choose","trial_index":114,"time_elapsed":1392833,"internal_node_id":"0.0-114.0"},{"result":175,"points":1,"place":4,"phase":1,"sequence":30,"prices":[171,180,172,174,179,188,173,183,186,175],"times":[827,441,479,455,429,459,507,555,617,7037],"next_num":10,"trial_type":"ticket-choose","trial_index":115,"time_elapsed":1411966,"internal_node_id":"0.0-115.0"},{"result":154,"points":3,"place":0,"phase":1,"sequence":31,"prices":[188,179,154,183,173,170,177,160,169,175],"times":[741,488,1411],"next_num":3,"trial_type":"ticket-choose","trial_index":116,"time_elapsed":1416988,"internal_node_id":"0.0-116.0"},{"result":181,"points":0,"place":5,"phase":1,"sequence":32,"prices":[180,175,173,177,191,190,184,196,174,181],"times":[816,1446,1010,5532,1128,934,704,649,1602,1394],"next_num":10,"trial_type":"ticket-choose","trial_index":117,"time_elapsed":1436250,"internal_node_id":"0.0-117.0"},{"result":166,"points":3,"place":0,"phase":1,"sequence":33,"prices":[166,190,170,173,178,203,172,192,198,174],"times":[1463],"next_num":1,"trial_type":"ticket-choose","trial_index":118,"time_elapsed":1439643,"internal_node_id":"0.0-118.0"},{"result":168,"points":2,"place":1,"phase":1,"sequence":34,"prices":[174,178,176,192,177,181,168,171,163,182],"times":[852,467,1086,482,554,485,1299],"next_num":7,"trial_type":"ticket-choose","trial_index":119,"time_elapsed":1454044,"internal_node_id":"0.0-119.0"},{"result":171,"points":3,"place":0,"phase":1,"sequence":35,"prices":[193,173,175,182,179,198,181,171,176,187],"times":[868,578,476,463,683,523,573,7809],"next_num":8,"trial_type":"ticket-choose","trial_index":120,"time_elapsed":1470940,"internal_node_id":"0.0-120.0"},{"result":169,"points":1,"place":2,"phase":1,"sequence":36,"prices":[189,185,169,168,167,171,180,173,174,188],"times":[635,528,1425],"next_num":3,"trial_type":"ticket-choose","trial_index":121,"time_elapsed":1475984,"internal_node_id":"0.0-121.0"},{"result":170,"points":2,"place":1,"phase":1,"sequence":37,"prices":[175,180,178,195,179,184,170,174,166,185],"times":[612,463,426,469,469,498,13070],"next_num":7,"trial_type":"ticket-choose","trial_index":122,"time_elapsed":1497212,"internal_node_id":"0.0-122.0"},{"result":165,"points":3,"place":0,"phase":1,"sequence":38,"prices":[176,180,170,194,179,183,178,173,165,184],"times":[730,459,491,451,454,6943,780,496,1431],"next_num":9,"trial_type":"ticket-choose","trial_index":123,"time_elapsed":1513794,"internal_node_id":"0.0-123.0"},{"result":160,"points":3,"place":0,"phase":1,"sequence":39,"prices":[160,185,170,174,182,196,173,186,194,177],"times":[1944],"next_num":1,"trial_type":"ticket-choose","trial_index":124,"time_elapsed":1518157,"internal_node_id":"0.0-124.0"},{"result":160,"points":3,"place":0,"phase":1,"sequence":40,"prices":[175,193,175,160,180,170,175,205,177,167],"times":[928,565,487,1624],"next_num":4,"trial_type":"ticket-choose","trial_index":125,"time_elapsed":1532570,"internal_node_id":"0.0-125.0"},{"result":169,"points":2,"place":1,"phase":1,"sequence":41,"prices":[175,179,177,193,178,182,169,172,164,183],"times":[757,478,511,508,531,566,1606],"next_num":7,"trial_type":"ticket-choose","trial_index":126,"time_elapsed":1540858,"internal_node_id":"0.0-126.0"},{"result":168,"points":2,"place":1,"phase":1,"sequence":42,"prices":[174,178,168,192,177,181,176,171,163,182],"times":[5027,574,1743],"next_num":3,"trial_type":"ticket-choose","trial_index":127,"time_elapsed":1551103,"internal_node_id":"0.0-127.0"},{"result":165,"points":3,"place":0,"phase":1,"sequence":43,"prices":[176,180,178,194,179,183,170,173,165,184],"times":[7794,772,600,638,468,530,2171,950,1599],"next_num":9,"trial_type":"ticket-choose","trial_index":128,"time_elapsed":1570652,"internal_node_id":"0.0-128.0"},{"result":170,"points":2,"place":1,"phase":1,"sequence":44,"prices":[175,180,170,195,179,184,178,174,166,185],"times":[860,576,3501],"next_num":3,"trial_type":"ticket-choose","trial_index":129,"time_elapsed":1578327,"internal_node_id":"0.0-129.0"},{"result":173,"points":1,"place":2,"phase":1,"sequence":45,"prices":[176,180,170,194,179,183,178,173,165,184],"times":[708,548,520,4487,560,525,530,2163],"next_num":8,"trial_type":"ticket-choose","trial_index":130,"time_elapsed":1592389,"internal_node_id":"0.0-130.0"},{"result":168,"points":2,"place":1,"phase":1,"sequence":46,"prices":[173,178,176,193,177,182,168,172,164,183],"times":[928,497,457,456,458,471,1499],"next_num":7,"trial_type":"ticket-choose","trial_index":131,"time_elapsed":1600345,"internal_node_id":"0.0-131.0"},{"result":170,"points":2,"place":1,"phase":1,"sequence":47,"prices":[175,180,178,195,179,184,170,174,166,185],"times":[897,447,454,433,745,501,1610],"next_num":7,"trial_type":"ticket-choose","trial_index":132,"time_elapsed":1608692,"internal_node_id":"0.0-132.0"},{"result":165,"points":3,"place":0,"phase":1,"sequence":48,"prices":[174,179,177,194,178,183,169,173,165,184],"times":[906,533,502,456,435,459,435,643,1491],"next_num":9,"trial_type":"ticket-choose","trial_index":133,"time_elapsed":1619505,"internal_node_id":"0.0-133.0"},{"result":167,"points":3,"place":0,"phase":1,"sequence":49,"prices":[179,174,199,178,196,167,170,184,177,190],"times":[799,596,949,556,709,1360],"next_num":6,"trial_type":"ticket-choose","trial_index":134,"time_elapsed":1634882,"internal_node_id":"0.0-134.0"},{"responses":[{"value":0,"offby":0,"category":"$140 - $250","category_index":0},{"value":1,"offby":1,"category":"$151 - $160","category_index":1},{"value":5,"offby":1,"category":"$161 - $170","category_index":2},{"value":8,"offby":2,"category":"$171 - $180","category_index":3},{"value":4,"offby":-3,"category":"$181 - $190","category_index":4},{"value":0,"offby":-3,"category":"$191 - $200","category_index":5},{"value":0,"offby":0,"category":"$201 - $210","category_index":6}],"phase":1,"number":1,"trial_type":"bar-choose","trial_index":135,"time_elapsed":1696125,"internal_node_id":"0.0-135.0"},{"special_comment":"no","trial_type":"special_sequence","trial_index":136,"time_elapsed":1712152,"internal_node_id":"0.0-136.0"},{"during":"Nothing","bonus":296,"trial_type":"final","trial_index":137,"time_elapsed":1758344,"internal_node_id":"0.0-137.0"}],"bonus":296}