{"start_time":"2017-02-03 14:59:06","end_time":"2017-02-03 15:33:45","points_phase0":95,"points_phase1":98,"phase_order":1,"age":31,"gender":"f","tries":1,"during":"Nothing","worker_id":"A1WL3NZ50YEOWP","assignment_id":"3QY7M81QH8F93JHWRS8IWO5O1BG7KS","data":[{"rt":9789,"url":"\/tickets\/utils\/consent.html","trial_type":"html","trial_index":0,"time_elapsed":11174,"internal_node_id":"0.0-0.0"},{"age":31,"gender":"f","trial_type":"age","trial_index":1,"time_elapsed":17872,"internal_node_id":"0.0-1.0"},{"worker_id":"A1WL3NZ50YEOWP","trial_type":"workerid","trial_index":2,"time_elapsed":43434,"internal_node_id":"0.0-2.0"},{"tries":1,"trial_type":"instructions_check","trial_index":3,"time_elapsed":131178,"internal_node_id":"0.0-3.0"},{"rt":568226,"url":"\/tickets\/utils\/start.html","trial_type":"html","trial_index":4,"time_elapsed":701394,"internal_node_id":"0.0-4.0"},{"trial_type":"number-animation","trial_index":5,"time_elapsed":714921,"internal_node_id":"0.0-5.0"},{"phase":0,"sequence":0,"avg":184,"response":175,"trial_type":"training_avg","trial_index":6,"time_elapsed":728176,"internal_node_id":"0.0-6.0"},{"trial_type":"number-animation","trial_index":7,"time_elapsed":746140,"internal_node_id":"0.0-7.0"},{"phase":0,"sequence":1,"avg":199,"response":175,"trial_type":"training_avg","trial_index":8,"time_elapsed":754187,"internal_node_id":"0.0-8.0"},{"trial_type":"number-animation","trial_index":9,"time_elapsed":764504,"internal_node_id":"0.0-9.0"},{"phase":0,"sequence":2,"avg":199,"response":210,"trial_type":"training_avg","trial_index":10,"time_elapsed":772226,"internal_node_id":"0.0-10.0"},{"trial_type":"number-animation","trial_index":11,"time_elapsed":781470,"internal_node_id":"0.0-11.0"},{"phase":0,"sequence":3,"avg":210,"response":200,"trial_type":"training_avg","trial_index":12,"time_elapsed":789322,"internal_node_id":"0.0-12.0"},{"trial_type":"number-animation","trial_index":13,"time_elapsed":982200,"internal_node_id":"0.0-13.0"},{"phase":0,"sequence":4,"avg":202,"response":200,"trial_type":"training_avg","trial_index":14,"time_elapsed":988887,"internal_node_id":"0.0-14.0"},{"responses":[{"value":1,"offby":0,"category":"$105 - $130","category_index":0},{"value":2,"offby":0,"category":"$131 - $155","category_index":1},{"value":3,"offby":1,"category":"$156 - $180","category_index":2},{"value":8,"offby":3,"category":"$181 - $205","category_index":3},{"value":3,"offby":-2,"category":"$206 - $230","category_index":4},{"value":2,"offby":-1,"category":"$231 - $255","category_index":5},{"value":1,"offby":-1,"category":"$256 - $280","category_index":6}],"phase":0,"number":0,"trial_type":"bar-choose","trial_index":15,"time_elapsed":1114213,"internal_node_id":"0.0-15.0"},{"rt":28704,"url":"\/tickets\/\/utils\/testing.html","trial_type":"html","trial_index":16,"time_elapsed":1145064,"internal_node_id":"0.0-16.0"},{"phase":0,"order":[41,19,8,45,15,47,10,38,0,43,24,33,4,13,14,49,40,1,7,21,35,11,37,5,46,9,6,3,39,32,26,30,23,18,17,34,22,20,28,16,2,29,25,48,36,42,31,27,12,44],"trial_type":"store_order","trial_index":17,"time_elapsed":1146065,"internal_node_id":"0.0-17.0"},{"result":165,"points":2,"place":1,"phase":0,"sequence":-1,"times":[2660,1260,607,1933],"next_num":4,"trial_type":"ticket-choose","trial_index":18,"time_elapsed":1156543,"internal_node_id":"0.0-18.0"},{"rt":10337,"url":"\/tickets\/utils\/testing_after.html","trial_type":"html","trial_index":19,"time_elapsed":1168786,"internal_node_id":"0.0-19.0"},{"result":144,"points":3,"place":0,"phase":0,"sequence":0,"times":[957,481,516,2201],"next_num":4,"trial_type":"ticket-choose","trial_index":20,"time_elapsed":1176707,"internal_node_id":"0.0-20.0"},{"result":164,"points":2,"place":1,"phase":0,"sequence":1,"times":[604,518,401,413,456,1707],"next_num":6,"trial_type":"ticket-choose","trial_index":21,"time_elapsed":1184226,"internal_node_id":"0.0-21.0"},{"result":126,"points":3,"place":0,"phase":0,"sequence":2,"times":[657,418,590,430,468,458,559,623,474,1983],"next_num":10,"trial_type":"ticket-choose","trial_index":22,"time_elapsed":1195404,"internal_node_id":"0.0-22.0"},{"result":208,"points":1,"place":4,"phase":0,"sequence":3,"times":[898,502,568,522,526,523,526,493,504,1400],"next_num":10,"trial_type":"ticket-choose","trial_index":23,"time_elapsed":1206007,"internal_node_id":"0.0-23.0"},{"result":151,"points":1,"place":2,"phase":0,"sequence":4,"times":[1226,416,578,338,573,636,1560],"next_num":7,"trial_type":"ticket-choose","trial_index":24,"time_elapsed":1214717,"internal_node_id":"0.0-24.0"},{"result":188,"points":0,"place":5,"phase":0,"sequence":5,"times":[588,622,334,1273,512,499,509,524,1643],"next_num":9,"trial_type":"ticket-choose","trial_index":25,"time_elapsed":1225045,"internal_node_id":"0.0-25.0"},{"result":173,"points":2,"place":1,"phase":0,"sequence":6,"times":[522,507,645,512,508,511,1604],"next_num":7,"trial_type":"ticket-choose","trial_index":26,"time_elapsed":1233219,"internal_node_id":"0.0-26.0"},{"result":167,"points":2,"place":1,"phase":0,"sequence":7,"times":[590,458,691,1629],"next_num":4,"trial_type":"ticket-choose","trial_index":27,"time_elapsed":1239975,"internal_node_id":"0.0-27.0"},{"result":134,"points":3,"place":0,"phase":0,"sequence":8,"times":[581,501,675,549,477,481,1145,634,528,1538],"next_num":10,"trial_type":"ticket-choose","trial_index":28,"time_elapsed":1251094,"internal_node_id":"0.0-28.0"},{"result":155,"points":3,"place":0,"phase":0,"sequence":9,"times":[611,487,1676],"next_num":3,"trial_type":"ticket-choose","trial_index":29,"time_elapsed":1256543,"internal_node_id":"0.0-29.0"},{"result":172,"points":1,"place":3,"phase":0,"sequence":10,"times":[715,468,431,477,2155],"next_num":5,"trial_type":"ticket-choose","trial_index":30,"time_elapsed":1263761,"internal_node_id":"0.0-30.0"},{"result":170,"points":2,"place":1,"phase":0,"sequence":11,"times":[573,415,468,449,513,526,1503],"next_num":7,"trial_type":"ticket-choose","trial_index":31,"time_elapsed":1271678,"internal_node_id":"0.0-31.0"},{"result":201,"points":1,"place":2,"phase":0,"sequence":12,"times":[388,348,415,388,502,476,1762],"next_num":7,"trial_type":"ticket-choose","trial_index":32,"time_elapsed":1279698,"internal_node_id":"0.0-32.0"},{"result":180,"points":2,"place":1,"phase":0,"sequence":13,"times":[379,391,1413],"next_num":3,"trial_type":"ticket-choose","trial_index":33,"time_elapsed":1284391,"internal_node_id":"0.0-33.0"},{"result":177,"points":1,"place":3,"phase":0,"sequence":14,"times":[749,453,1489],"next_num":3,"trial_type":"ticket-choose","trial_index":34,"time_elapsed":1289582,"internal_node_id":"0.0-34.0"},{"result":189,"points":1,"place":2,"phase":0,"sequence":15,"times":[429,537,730,436,748,579,1405],"next_num":7,"trial_type":"ticket-choose","trial_index":35,"time_elapsed":1297883,"internal_node_id":"0.0-35.0"},{"result":179,"points":1,"place":2,"phase":0,"sequence":16,"times":[475,475,1628],"next_num":3,"trial_type":"ticket-choose","trial_index":36,"time_elapsed":1303018,"internal_node_id":"0.0-36.0"},{"result":193,"points":1,"place":4,"phase":0,"sequence":17,"times":[398,343,573,507,498,526,1761,446,498,1107],"next_num":10,"trial_type":"ticket-choose","trial_index":37,"time_elapsed":1313849,"internal_node_id":"0.0-37.0"},{"result":126,"points":3,"place":0,"phase":0,"sequence":18,"times":[565,745,457,455,1373],"next_num":5,"trial_type":"ticket-choose","trial_index":38,"time_elapsed":1321059,"internal_node_id":"0.0-38.0"},{"result":167,"points":3,"place":0,"phase":0,"sequence":19,"times":[422,426,444,442,510,492,522,1558],"next_num":8,"trial_type":"ticket-choose","trial_index":39,"time_elapsed":1329468,"internal_node_id":"0.0-39.0"},{"result":194,"points":0,"place":5,"phase":0,"sequence":20,"times":[404,266,355,369,1424],"next_num":5,"trial_type":"ticket-choose","trial_index":40,"time_elapsed":1335989,"internal_node_id":"0.0-40.0"},{"result":188,"points":1,"place":3,"phase":0,"sequence":21,"times":[464,351,675,396,472,1350],"next_num":6,"trial_type":"ticket-choose","trial_index":41,"time_elapsed":1342873,"internal_node_id":"0.0-41.0"},{"result":161,"points":2,"place":1,"phase":0,"sequence":22,"times":[439,366,399,529,510,1415],"next_num":6,"trial_type":"ticket-choose","trial_index":42,"time_elapsed":1349702,"internal_node_id":"0.0-42.0"},{"result":140,"points":3,"place":0,"phase":0,"sequence":23,"times":[535,2662],"next_num":2,"trial_type":"ticket-choose","trial_index":43,"time_elapsed":1355216,"internal_node_id":"0.0-43.0"},{"result":165,"points":2,"place":1,"phase":0,"sequence":24,"times":[788,611,1478],"next_num":3,"trial_type":"ticket-choose","trial_index":44,"time_elapsed":1360615,"internal_node_id":"0.0-44.0"},{"result":145,"points":3,"place":0,"phase":0,"sequence":25,"times":[1510],"next_num":1,"trial_type":"ticket-choose","trial_index":45,"time_elapsed":1364258,"internal_node_id":"0.0-45.0"},{"result":116,"points":3,"place":0,"phase":0,"sequence":26,"times":[980,546,651,470,441,1385],"next_num":6,"trial_type":"ticket-choose","trial_index":46,"time_elapsed":1371847,"internal_node_id":"0.0-46.0"},{"result":158,"points":1,"place":2,"phase":0,"sequence":27,"times":[635,1572],"next_num":2,"trial_type":"ticket-choose","trial_index":47,"time_elapsed":1376349,"internal_node_id":"0.0-47.0"},{"result":167,"points":1,"place":3,"phase":0,"sequence":28,"times":[716,436,1317],"next_num":3,"trial_type":"ticket-choose","trial_index":48,"time_elapsed":1381817,"internal_node_id":"0.0-48.0"},{"result":184,"points":1,"place":2,"phase":0,"sequence":29,"times":[1434,447,628,421,490,461,1344],"next_num":7,"trial_type":"ticket-choose","trial_index":49,"time_elapsed":1390376,"internal_node_id":"0.0-49.0"},{"result":198,"points":1,"place":4,"phase":0,"sequence":30,"times":[976,427,666,472,480,456,779,514,600,2033],"next_num":10,"trial_type":"ticket-choose","trial_index":50,"time_elapsed":1401834,"internal_node_id":"0.0-50.0"},{"result":137,"points":3,"place":0,"phase":0,"sequence":31,"times":[2150],"next_num":1,"trial_type":"ticket-choose","trial_index":51,"time_elapsed":1406747,"internal_node_id":"0.0-51.0"},{"result":156,"points":3,"place":0,"phase":0,"sequence":32,"times":[503,411,455,473,480,1445],"next_num":6,"trial_type":"ticket-choose","trial_index":52,"time_elapsed":1413656,"internal_node_id":"0.0-52.0"},{"result":151,"points":2,"place":1,"phase":0,"sequence":33,"times":[533,443,1437],"next_num":3,"trial_type":"ticket-choose","trial_index":53,"time_elapsed":1418517,"internal_node_id":"0.0-53.0"},{"result":133,"points":3,"place":0,"phase":0,"sequence":34,"times":[797,641,1407],"next_num":3,"trial_type":"ticket-choose","trial_index":54,"time_elapsed":1423855,"internal_node_id":"0.0-54.0"},{"result":184,"points":1,"place":2,"phase":0,"sequence":35,"times":[522,437,664,375,449,435,1368],"next_num":7,"trial_type":"ticket-choose","trial_index":55,"time_elapsed":1431670,"internal_node_id":"0.0-55.0"},{"result":157,"points":2,"place":1,"phase":0,"sequence":36,"times":[1021,391,448,512,1072,507,1517],"next_num":7,"trial_type":"ticket-choose","trial_index":56,"time_elapsed":1440564,"internal_node_id":"0.0-56.0"},{"result":180,"points":1,"place":4,"phase":0,"sequence":37,"times":[1553,359,459,355,536,497,703,679,441,1166],"next_num":10,"trial_type":"ticket-choose","trial_index":57,"time_elapsed":1451173,"internal_node_id":"0.0-57.0"},{"result":182,"points":1,"place":2,"phase":0,"sequence":38,"times":[746,438,597,362,444,435,1749],"next_num":7,"trial_type":"ticket-choose","trial_index":58,"time_elapsed":1459490,"internal_node_id":"0.0-58.0"},{"result":129,"points":3,"place":0,"phase":0,"sequence":39,"times":[704,323,1399,497,480,1449],"next_num":6,"trial_type":"ticket-choose","trial_index":59,"time_elapsed":1467537,"internal_node_id":"0.0-59.0"},{"result":173,"points":2,"place":1,"phase":0,"sequence":40,"times":[637,336,1384],"next_num":3,"trial_type":"ticket-choose","trial_index":60,"time_elapsed":1472454,"internal_node_id":"0.0-60.0"},{"result":180,"points":2,"place":1,"phase":0,"sequence":41,"times":[617,482,635,395,425,480,1502],"next_num":7,"trial_type":"ticket-choose","trial_index":61,"time_elapsed":1480240,"internal_node_id":"0.0-61.0"},{"result":174,"points":1,"place":3,"phase":0,"sequence":42,"times":[771,277,1585],"next_num":3,"trial_type":"ticket-choose","trial_index":62,"time_elapsed":1485342,"internal_node_id":"0.0-62.0"},{"result":182,"points":2,"place":1,"phase":0,"sequence":43,"times":[446,477,469,460,489,488,1331],"next_num":7,"trial_type":"ticket-choose","trial_index":63,"time_elapsed":1492815,"internal_node_id":"0.0-63.0"},{"result":148,"points":2,"place":1,"phase":0,"sequence":44,"times":[970,427,1633],"next_num":3,"trial_type":"ticket-choose","trial_index":64,"time_elapsed":1498249,"internal_node_id":"0.0-64.0"},{"result":150,"points":3,"place":0,"phase":0,"sequence":45,"times":[516,477,584,294,443,476,1495,886,473,1544],"next_num":10,"trial_type":"ticket-choose","trial_index":65,"time_elapsed":1509661,"internal_node_id":"0.0-65.0"},{"result":175,"points":2,"place":1,"phase":0,"sequence":46,"times":[956,437,451,466,1648],"next_num":5,"trial_type":"ticket-choose","trial_index":66,"time_elapsed":1516488,"internal_node_id":"0.0-66.0"},{"result":171,"points":3,"place":0,"phase":0,"sequence":47,"times":[561,856,290,565,1803],"next_num":5,"trial_type":"ticket-choose","trial_index":67,"time_elapsed":1523423,"internal_node_id":"0.0-67.0"},{"result":157,"points":2,"place":1,"phase":0,"sequence":48,"times":[973,383,1391],"next_num":3,"trial_type":"ticket-choose","trial_index":68,"time_elapsed":1528637,"internal_node_id":"0.0-68.0"},{"result":156,"points":3,"place":0,"phase":0,"sequence":49,"times":[430,366,433,375,432,406,983,397,1368],"next_num":9,"trial_type":"ticket-choose","trial_index":69,"time_elapsed":1537688,"internal_node_id":"0.0-69.0"},{"responses":[{"value":0,"offby":-1,"category":"$105 - $130","category_index":0},{"value":2,"offby":0,"category":"$131 - $155","category_index":1},{"value":8,"offby":6,"category":"$156 - $180","category_index":2},{"value":4,"offby":-1,"category":"$181 - $205","category_index":3},{"value":3,"offby":-2,"category":"$206 - $230","category_index":4},{"value":2,"offby":-1,"category":"$231 - $255","category_index":5},{"value":1,"offby":-1,"category":"$256 - $280","category_index":6}],"phase":0,"number":1,"trial_type":"bar-choose","trial_index":70,"time_elapsed":1591507,"internal_node_id":"0.0-70.0"},{"rt":7490,"url":"\/tickets\/utils\/start2.html","trial_type":"html","trial_index":71,"time_elapsed":1606270,"internal_node_id":"0.0-71.0"},{"trial_type":"number-animation","trial_index":72,"time_elapsed":1614551,"internal_node_id":"0.0-72.0"},{"phase":1,"sequence":0,"avg":181,"response":165,"trial_type":"training_avg","trial_index":73,"time_elapsed":1621626,"internal_node_id":"0.0-73.0"},{"trial_type":"number-animation","trial_index":74,"time_elapsed":1642096,"internal_node_id":"0.0-74.0"},{"phase":1,"sequence":1,"avg":188,"response":179,"trial_type":"training_avg","trial_index":75,"time_elapsed":1649026,"internal_node_id":"0.0-75.0"},{"trial_type":"number-animation","trial_index":76,"time_elapsed":1656457,"internal_node_id":"0.0-76.0"},{"phase":1,"sequence":2,"avg":188,"response":180,"trial_type":"training_avg","trial_index":77,"time_elapsed":1662497,"internal_node_id":"0.0-77.0"},{"trial_type":"number-animation","trial_index":78,"time_elapsed":1668824,"internal_node_id":"0.0-78.0"},{"phase":1,"sequence":3,"avg":177,"response":173,"trial_type":"training_avg","trial_index":79,"time_elapsed":1675121,"internal_node_id":"0.0-79.0"},{"trial_type":"number-animation","trial_index":80,"time_elapsed":1681387,"internal_node_id":"0.0-80.0"},{"phase":1,"sequence":4,"avg":182,"response":168,"trial_type":"training_avg","trial_index":81,"time_elapsed":1688748,"internal_node_id":"0.0-81.0"},{"responses":[{"value":0,"offby":0,"category":"$106 - $134","category_index":0},{"value":2,"offby":1,"category":"$135 - $150","category_index":1},{"value":8,"offby":5,"category":"$151 - $165","category_index":2},{"value":5,"offby":-1,"category":"$166 - $180","category_index":3},{"value":3,"offby":-3,"category":"$181 - $195","category_index":4},{"value":2,"offby":-1,"category":"$196 - $210","category_index":5},{"value":0,"offby":-1,"category":"$211 - $225","category_index":6}],"phase":1,"number":0,"trial_type":"bar-choose","trial_index":82,"time_elapsed":1711537,"internal_node_id":"0.0-82.0"},{"rt":12704,"url":"\/tickets\/utils\/testing2.html","trial_type":"html","trial_index":83,"time_elapsed":1726191,"internal_node_id":"0.0-83.0"},{"phase":1,"order":[47,33,5,20,25,34,15,37,8,43,49,18,2,24,17,28,48,26,42,38,11,36,31,40,1,22,30,44,13,23,21,27,46,41,32,7,10,29,4,35,9,12,16,14,3,6,45,39,0,19],"trial_type":"store_order","trial_index":84,"time_elapsed":1727209,"internal_node_id":"0.0-84.0"},{"result":155,"points":2,"place":1,"phase":1,"sequence":0,"times":[1662,401,1496],"next_num":3,"trial_type":"ticket-choose","trial_index":85,"time_elapsed":1733283,"internal_node_id":"0.0-85.0"},{"result":181,"points":1,"place":2,"phase":1,"sequence":1,"times":[520,244,385,435,633,494,511,1756],"next_num":8,"trial_type":"ticket-choose","trial_index":86,"time_elapsed":1741636,"internal_node_id":"0.0-86.0"},{"result":167,"points":2,"place":1,"phase":1,"sequence":2,"times":[707,345,1417],"next_num":3,"trial_type":"ticket-choose","trial_index":87,"time_elapsed":1746492,"internal_node_id":"0.0-87.0"},{"result":167,"points":2,"place":1,"phase":1,"sequence":3,"times":[372,545,502,509,1385],"next_num":5,"trial_type":"ticket-choose","trial_index":88,"time_elapsed":1752555,"internal_node_id":"0.0-88.0"},{"result":170,"points":1,"place":3,"phase":1,"sequence":4,"times":[529,373,1532],"next_num":3,"trial_type":"ticket-choose","trial_index":89,"time_elapsed":1757559,"internal_node_id":"0.0-89.0"},{"result":152,"points":3,"place":0,"phase":1,"sequence":5,"times":[443,388,453,1778],"next_num":4,"trial_type":"ticket-choose","trial_index":90,"time_elapsed":1763124,"internal_node_id":"0.0-90.0"},{"result":161,"points":1,"place":3,"phase":1,"sequence":6,"times":[344,365,1421],"next_num":3,"trial_type":"ticket-choose","trial_index":91,"time_elapsed":1767511,"internal_node_id":"0.0-91.0"},{"result":166,"points":2,"place":1,"phase":1,"sequence":7,"times":[298,436,427,409,478,455,538,462,1138,1350],"next_num":10,"trial_type":"ticket-choose","trial_index":92,"time_elapsed":1777263,"internal_node_id":"0.0-92.0"},{"result":158,"points":2,"place":1,"phase":1,"sequence":8,"times":[952,463,1388],"next_num":3,"trial_type":"ticket-choose","trial_index":93,"time_elapsed":1782305,"internal_node_id":"0.0-93.0"},{"result":157,"points":3,"place":0,"phase":1,"sequence":9,"times":[973,350,1757],"next_num":3,"trial_type":"ticket-choose","trial_index":94,"time_elapsed":1788099,"internal_node_id":"0.0-94.0"},{"result":185,"points":1,"place":4,"phase":1,"sequence":10,"times":[357,457,459,510,549,540,871,533,510,1710],"next_num":10,"trial_type":"ticket-choose","trial_index":95,"time_elapsed":1798282,"internal_node_id":"0.0-95.0"},{"result":155,"points":3,"place":0,"phase":1,"sequence":11,"times":[524,1280],"next_num":2,"trial_type":"ticket-choose","trial_index":96,"time_elapsed":1802175,"internal_node_id":"0.0-96.0"},{"result":171,"points":1,"place":2,"phase":1,"sequence":12,"times":[474,506,529,512,555,491,1398],"next_num":7,"trial_type":"ticket-choose","trial_index":97,"time_elapsed":1809734,"internal_node_id":"0.0-97.0"},{"result":163,"points":1,"place":3,"phase":1,"sequence":13,"times":[387,447,1327],"next_num":3,"trial_type":"ticket-choose","trial_index":98,"time_elapsed":1814761,"internal_node_id":"0.0-98.0"},{"result":175,"points":1,"place":2,"phase":1,"sequence":14,"times":[312,407,438,502,703,486,485,1821],"next_num":8,"trial_type":"ticket-choose","trial_index":99,"time_elapsed":1823227,"internal_node_id":"0.0-99.0"},{"result":163,"points":1,"place":2,"phase":1,"sequence":15,"times":[484,1437],"next_num":2,"trial_type":"ticket-choose","trial_index":100,"time_elapsed":1827550,"internal_node_id":"0.0-100.0"},{"result":150,"points":3,"place":0,"phase":1,"sequence":16,"times":[433,1672],"next_num":2,"trial_type":"ticket-choose","trial_index":101,"time_elapsed":1831836,"internal_node_id":"0.0-101.0"},{"result":162,"points":2,"place":1,"phase":1,"sequence":17,"times":[628,470,1461],"next_num":3,"trial_type":"ticket-choose","trial_index":102,"time_elapsed":1837205,"internal_node_id":"0.0-102.0"},{"result":172,"points":1,"place":2,"phase":1,"sequence":18,"times":[442,661,794,482,512,474,1469],"next_num":7,"trial_type":"ticket-choose","trial_index":103,"time_elapsed":1845051,"internal_node_id":"0.0-103.0"},{"result":156,"points":3,"place":0,"phase":1,"sequence":19,"times":[1571],"next_num":1,"trial_type":"ticket-choose","trial_index":104,"time_elapsed":1848702,"internal_node_id":"0.0-104.0"},{"result":154,"points":2,"place":1,"phase":1,"sequence":20,"times":[604,1477],"next_num":2,"trial_type":"ticket-choose","trial_index":105,"time_elapsed":1853271,"internal_node_id":"0.0-105.0"},{"result":177,"points":0,"place":5,"phase":1,"sequence":21,"times":[492,424,545,481,1409],"next_num":5,"trial_type":"ticket-choose","trial_index":106,"time_elapsed":1859826,"internal_node_id":"0.0-106.0"},{"result":163,"points":2,"place":1,"phase":1,"sequence":22,"times":[718,445,493,1430],"next_num":4,"trial_type":"ticket-choose","trial_index":107,"time_elapsed":1865394,"internal_node_id":"0.0-107.0"},{"result":150,"points":2,"place":1,"phase":1,"sequence":23,"times":[578,449,1342],"next_num":3,"trial_type":"ticket-choose","trial_index":108,"time_elapsed":1870269,"internal_node_id":"0.0-108.0"},{"result":158,"points":3,"place":0,"phase":1,"sequence":24,"times":[542,507,488,557,490,1478],"next_num":6,"trial_type":"ticket-choose","trial_index":109,"time_elapsed":1877214,"internal_node_id":"0.0-109.0"},{"result":167,"points":1,"place":2,"phase":1,"sequence":25,"times":[542,411,419,450,540,591,1436],"next_num":7,"trial_type":"ticket-choose","trial_index":110,"time_elapsed":1884622,"internal_node_id":"0.0-110.0"},{"result":165,"points":2,"place":1,"phase":1,"sequence":26,"times":[536,330,1529],"next_num":3,"trial_type":"ticket-choose","trial_index":111,"time_elapsed":1889264,"internal_node_id":"0.0-111.0"},{"result":154,"points":2,"place":1,"phase":1,"sequence":27,"times":[630,396,1441],"next_num":3,"trial_type":"ticket-choose","trial_index":112,"time_elapsed":1894145,"internal_node_id":"0.0-112.0"},{"result":165,"points":3,"place":0,"phase":1,"sequence":28,"times":[458,278,394,468,1457],"next_num":5,"trial_type":"ticket-choose","trial_index":113,"time_elapsed":1899888,"internal_node_id":"0.0-113.0"},{"result":146,"points":3,"place":0,"phase":1,"sequence":29,"times":[447,500,1467],"next_num":3,"trial_type":"ticket-choose","trial_index":114,"time_elapsed":1904546,"internal_node_id":"0.0-114.0"},{"result":176,"points":1,"place":4,"phase":1,"sequence":30,"times":[337,343,272,497,458,469,508,520,493,1283],"next_num":10,"trial_type":"ticket-choose","trial_index":115,"time_elapsed":1913756,"internal_node_id":"0.0-115.0"},{"result":138,"points":3,"place":0,"phase":1,"sequence":31,"times":[546,510,596,492,517,1348],"next_num":6,"trial_type":"ticket-choose","trial_index":116,"time_elapsed":1920618,"internal_node_id":"0.0-116.0"},{"result":172,"points":1,"place":2,"phase":1,"sequence":32,"times":[404,440,466,583,473,543,2009],"next_num":7,"trial_type":"ticket-choose","trial_index":117,"time_elapsed":1928601,"internal_node_id":"0.0-117.0"},{"result":165,"points":2,"place":1,"phase":1,"sequence":33,"times":[512,323,455,484,481,512,1448],"next_num":7,"trial_type":"ticket-choose","trial_index":118,"time_elapsed":1935911,"internal_node_id":"0.0-118.0"},{"result":150,"points":2,"place":1,"phase":1,"sequence":34,"times":[413,271,364,475,455,651,1399],"next_num":7,"trial_type":"ticket-choose","trial_index":119,"time_elapsed":1942970,"internal_node_id":"0.0-119.0"},{"result":155,"points":2,"place":1,"phase":1,"sequence":35,"times":[560,1487],"next_num":2,"trial_type":"ticket-choose","trial_index":120,"time_elapsed":1947526,"internal_node_id":"0.0-120.0"},{"result":152,"points":3,"place":0,"phase":1,"sequence":36,"times":[1577],"next_num":1,"trial_type":"ticket-choose","trial_index":121,"time_elapsed":1950945,"internal_node_id":"0.0-121.0"},{"result":161,"points":3,"place":0,"phase":1,"sequence":37,"times":[1885],"next_num":1,"trial_type":"ticket-choose","trial_index":122,"time_elapsed":1954616,"internal_node_id":"0.0-122.0"},{"result":161,"points":3,"place":0,"phase":1,"sequence":38,"times":[1536],"next_num":1,"trial_type":"ticket-choose","trial_index":123,"time_elapsed":1958046,"internal_node_id":"0.0-123.0"},{"result":169,"points":1,"place":4,"phase":1,"sequence":39,"times":[1844],"next_num":1,"trial_type":"ticket-choose","trial_index":124,"time_elapsed":1962119,"internal_node_id":"0.0-124.0"},{"result":180,"points":1,"place":2,"phase":1,"sequence":40,"times":[511,484,441,511,560,505,1421],"next_num":7,"trial_type":"ticket-choose","trial_index":125,"time_elapsed":1969665,"internal_node_id":"0.0-125.0"},{"result":159,"points":3,"place":0,"phase":1,"sequence":41,"times":[1570],"next_num":1,"trial_type":"ticket-choose","trial_index":126,"time_elapsed":1973097,"internal_node_id":"0.0-126.0"},{"result":150,"points":3,"place":0,"phase":1,"sequence":42,"times":[1449],"next_num":1,"trial_type":"ticket-choose","trial_index":127,"time_elapsed":1976430,"internal_node_id":"0.0-127.0"},{"result":169,"points":1,"place":2,"phase":1,"sequence":43,"times":[575,434,1427],"next_num":3,"trial_type":"ticket-choose","trial_index":128,"time_elapsed":1981383,"internal_node_id":"0.0-128.0"},{"result":165,"points":2,"place":1,"phase":1,"sequence":44,"times":[510,470,1326],"next_num":3,"trial_type":"ticket-choose","trial_index":129,"time_elapsed":1986227,"internal_node_id":"0.0-129.0"},{"result":143,"points":3,"place":0,"phase":1,"sequence":45,"times":[474,537,537,541,1328],"next_num":5,"trial_type":"ticket-choose","trial_index":130,"time_elapsed":1992643,"internal_node_id":"0.0-130.0"},{"result":160,"points":2,"place":1,"phase":1,"sequence":46,"times":[489,414,488,481,496,1279],"next_num":6,"trial_type":"ticket-choose","trial_index":131,"time_elapsed":1999205,"internal_node_id":"0.0-131.0"},{"result":148,"points":3,"place":0,"phase":1,"sequence":47,"times":[1621],"next_num":1,"trial_type":"ticket-choose","trial_index":132,"time_elapsed":2002724,"internal_node_id":"0.0-132.0"},{"result":170,"points":2,"place":1,"phase":1,"sequence":48,"times":[938,467,504,525,537,485,1664],"next_num":7,"trial_type":"ticket-choose","trial_index":133,"time_elapsed":2011457,"internal_node_id":"0.0-133.0"},{"result":159,"points":1,"place":2,"phase":1,"sequence":49,"times":[807,1396],"next_num":2,"trial_type":"ticket-choose","trial_index":134,"time_elapsed":2015794,"internal_node_id":"0.0-134.0"},{"responses":[{"value":1,"offby":1,"category":"$106 - $134","category_index":0},{"value":4,"offby":3,"category":"$135 - $150","category_index":1},{"value":8,"offby":5,"category":"$151 - $165","category_index":2},{"value":5,"offby":-1,"category":"$166 - $180","category_index":3},{"value":1,"offby":-5,"category":"$181 - $195","category_index":4},{"value":1,"offby":-2,"category":"$196 - $210","category_index":5},{"value":0,"offby":-1,"category":"$211 - $225","category_index":6}],"phase":1,"number":1,"trial_type":"bar-choose","trial_index":135,"time_elapsed":2035746,"internal_node_id":"0.0-135.0"},{"during":"Nothing","bonus":256,"trial_type":"final","trial_index":136,"time_elapsed":2071948,"internal_node_id":"0.0-136.0"}],"bonus":256}