{"start_time":"2017-02-22 10:43:32","end_time":"2017-02-22 11:17:04","points_phase0":111,"points_phase1":96,"phase_order":1,"age":25,"gender":"m","tries":1,"during":"Nothing","worker_id":"A1WRYUFOYFF8QO","assignment_id":"31LVTDXBL83U58JTL6IPG593TLZRLW","data":[{"rt":223729,"url":"\/tickets\/utils\/consent.html","trial_type":"html","trial_index":0,"time_elapsed":224021,"internal_node_id":"0.0-0.0"},{"age":25,"gender":"m","trial_type":"age","trial_index":1,"time_elapsed":230397,"internal_node_id":"0.0-1.0"},{"worker_id":"A1WRYUFOYFF8QO","trial_type":"workerid","trial_index":2,"time_elapsed":241535,"internal_node_id":"0.0-2.0"},{"tries":1,"trial_type":"instructions_check","trial_index":3,"time_elapsed":337697,"internal_node_id":"0.0-3.0"},{"rt":34177,"url":"\/tickets\/utils\/start.html","trial_type":"html","trial_index":4,"time_elapsed":373022,"internal_node_id":"0.0-4.0"},{"trial_type":"number-animation","trial_index":5,"time_elapsed":486127,"internal_node_id":"0.0-5.0"},{"phase":0,"sequence":0,"avg":182,"response":180,"trial_type":"training_avg","trial_index":6,"time_elapsed":519572,"internal_node_id":"0.0-6.0"},{"trial_type":"number-animation","trial_index":7,"time_elapsed":535490,"internal_node_id":"0.0-7.0"},{"phase":0,"sequence":1,"avg":188,"response":200,"trial_type":"training_avg","trial_index":8,"time_elapsed":544697,"internal_node_id":"0.0-8.0"},{"trial_type":"number-animation","trial_index":9,"time_elapsed":552100,"internal_node_id":"0.0-9.0"},{"phase":0,"sequence":2,"avg":176,"response":165,"trial_type":"training_avg","trial_index":10,"time_elapsed":562659,"internal_node_id":"0.0-10.0"},{"trial_type":"number-animation","trial_index":11,"time_elapsed":572276,"internal_node_id":"0.0-11.0"},{"phase":0,"sequence":3,"avg":180,"response":160,"trial_type":"training_avg","trial_index":12,"time_elapsed":583786,"internal_node_id":"0.0-12.0"},{"trial_type":"number-animation","trial_index":13,"time_elapsed":613523,"internal_node_id":"0.0-13.0"},{"phase":0,"sequence":4,"avg":174,"response":190,"trial_type":"training_avg","trial_index":14,"time_elapsed":620860,"internal_node_id":"0.0-14.0"},{"responses":[{"value":0,"offby":-1,"category":"$90 - $120","category_index":0},{"value":3,"offby":0,"category":"$121 - $145","category_index":1},{"value":4,"offby":1,"category":"$146 - $170","category_index":2},{"value":4,"offby":-2,"category":"$171 - $195","category_index":3},{"value":4,"offby":0,"category":"$196 - $220","category_index":4},{"value":3,"offby":1,"category":"$221 - $245","category_index":5},{"value":2,"offby":1,"category":"$246 - $270","category_index":6}],"phase":0,"number":0,"trial_type":"bar-choose","trial_index":15,"time_elapsed":742157,"internal_node_id":"0.0-15.0"},{"rt":38851,"url":"\/tickets\/\/utils\/testing.html","trial_type":"html","trial_index":16,"time_elapsed":782132,"internal_node_id":"0.0-16.0"},{"phase":0,"order":[35,46,31,25,24,43,45,2,12,8,29,13,37,33,10,5,22,18,36,44,4,26,15,30,3,41,11,39,19,28,49,21,38,1,0,42,23,6,40,27,14,32,17,7,9,48,47,20,34,16],"trial_type":"store_order","trial_index":17,"time_elapsed":783133,"internal_node_id":"0.0-17.0"},{"result":126,"points":3,"place":0,"phase":0,"sequence":-1,"prices":[184,180,224,165,181,199,185,193,218,126],"times":[5186,1254,1035,1047,683,549,549,753,838,1868],"next_num":10,"trial_type":"ticket-choose","trial_index":18,"time_elapsed":801400,"internal_node_id":"0.0-18.0"},{"rt":125509,"url":"\/tickets\/utils\/testing_after.html","trial_type":"html","trial_index":19,"time_elapsed":928037,"internal_node_id":"0.0-19.0"},{"result":159,"points":2,"place":1,"phase":0,"sequence":0,"prices":[182,249,159,114,184,205,175,189,172,178],"times":[4076,604,5008],"next_num":3,"trial_type":"ticket-choose","trial_index":20,"time_elapsed":942065,"internal_node_id":"0.0-20.0"},{"result":154,"points":2,"place":1,"phase":0,"sequence":1,"prices":[168,192,176,242,183,197,154,156,237,132],"times":[8633,745,508,507,559,661,1537],"next_num":7,"trial_type":"ticket-choose","trial_index":21,"time_elapsed":959197,"internal_node_id":"0.0-21.0"},{"result":154,"points":2,"place":1,"phase":0,"sequence":2,"prices":[169,191,154,268,183,197,176,155,236,133],"times":[1143,501,2154],"next_num":3,"trial_type":"ticket-choose","trial_index":22,"time_elapsed":966073,"internal_node_id":"0.0-22.0"},{"result":146,"points":1,"place":2,"phase":0,"sequence":3,"prices":[186,146,191,179,152,116,140,201,172,187],"times":[658,1465],"next_num":2,"trial_type":"ticket-choose","trial_index":23,"time_elapsed":970779,"internal_node_id":"0.0-23.0"},{"result":135,"points":3,"place":0,"phase":0,"sequence":4,"prices":[221,193,135,188,217,179,196,190,175,159],"times":[545,527,1558],"next_num":3,"trial_type":"ticket-choose","trial_index":24,"time_elapsed":976783,"internal_node_id":"0.0-24.0"},{"result":129,"points":2,"place":1,"phase":0,"sequence":5,"prices":[155,129,164,189,210,108,187,241,174,275],"times":[2005,1205],"next_num":2,"trial_type":"ticket-choose","trial_index":25,"time_elapsed":982305,"internal_node_id":"0.0-25.0"},{"result":105,"points":3,"place":0,"phase":0,"sequence":6,"prices":[263,165,224,214,105,230,215,185,177,193],"times":[600,624,495,614,1172],"next_num":5,"trial_type":"ticket-choose","trial_index":26,"time_elapsed":989141,"internal_node_id":"0.0-26.0"},{"result":126,"points":3,"place":0,"phase":0,"sequence":7,"prices":[170,193,176,245,178,194,154,159,236,126],"times":[577,578,599,480,448,439,642,469,554,1582],"next_num":10,"trial_type":"ticket-choose","trial_index":27,"time_elapsed":999407,"internal_node_id":"0.0-27.0"},{"result":136,"points":2,"place":1,"phase":0,"sequence":8,"prices":[170,192,174,242,181,196,136,153,236,128],"times":[561,494,638,590,707,489,1308],"next_num":7,"trial_type":"ticket-choose","trial_index":28,"time_elapsed":1007459,"internal_node_id":"0.0-28.0"},{"result":146,"points":2,"place":1,"phase":0,"sequence":9,"prices":[171,191,172,268,179,194,146,150,127,239],"times":[587,460,560,515,538,544,1386],"next_num":7,"trial_type":"ticket-choose","trial_index":29,"time_elapsed":1015313,"internal_node_id":"0.0-29.0"},{"result":117,"points":3,"place":0,"phase":0,"sequence":10,"prices":[117,161,120,147,153,259,144,191,195,149],"times":[1663],"next_num":1,"trial_type":"ticket-choose","trial_index":30,"time_elapsed":1019087,"internal_node_id":"0.0-30.0"},{"result":136,"points":2,"place":1,"phase":0,"sequence":11,"prices":[171,192,136,243,182,195,174,154,236,128],"times":[1779,451,1166],"next_num":3,"trial_type":"ticket-choose","trial_index":31,"time_elapsed":1024859,"internal_node_id":"0.0-31.0"},{"result":149,"points":2,"place":1,"phase":0,"sequence":12,"prices":[196,221,149,164,216,167,175,128,176,181],"times":[523,529,1924],"next_num":3,"trial_type":"ticket-choose","trial_index":32,"time_elapsed":1030200,"internal_node_id":"0.0-32.0"},{"result":135,"points":3,"place":0,"phase":0,"sequence":13,"prices":[135,202,150,169,183,225,160,211,220,172],"times":[1111],"next_num":1,"trial_type":"ticket-choose","trial_index":33,"time_elapsed":1033419,"internal_node_id":"0.0-33.0"},{"result":154,"points":2,"place":1,"phase":0,"sequence":14,"prices":[169,194,154,271,178,201,176,158,236,127],"times":[650,568,1118],"next_num":3,"trial_type":"ticket-choose","trial_index":34,"time_elapsed":1038060,"internal_node_id":"0.0-34.0"},{"result":146,"points":3,"place":0,"phase":0,"sequence":15,"prices":[156,218,212,216,191,210,275,146,174,152],"times":[3186,577,453,482,547,519,468,1367],"next_num":8,"trial_type":"ticket-choose","trial_index":35,"time_elapsed":1049047,"internal_node_id":"0.0-35.0"},{"result":146,"points":2,"place":1,"phase":0,"sequence":16,"prices":[170,193,146,268,178,195,172,149,126,241],"times":[1145,487,1317],"next_num":3,"trial_type":"ticket-choose","trial_index":36,"time_elapsed":1054325,"internal_node_id":"0.0-36.0"},{"result":154,"points":2,"place":1,"phase":0,"sequence":17,"prices":[170,190,176,251,183,192,154,157,236,131],"times":[668,509,639,499,589,509,1436],"next_num":7,"trial_type":"ticket-choose","trial_index":37,"time_elapsed":1062577,"internal_node_id":"0.0-37.0"},{"result":136,"points":2,"place":1,"phase":0,"sequence":18,"prices":[172,194,174,243,182,193,136,150,237,126],"times":[1237,1162,715,524,537,535,1239],"next_num":7,"trial_type":"ticket-choose","trial_index":38,"time_elapsed":1073695,"internal_node_id":"0.0-38.0"},{"result":145,"points":2,"place":1,"phase":0,"sequence":19,"prices":[216,206,158,145,224,185,124,149,175,162],"times":[1822,506,491,1325],"next_num":4,"trial_type":"ticket-choose","trial_index":39,"time_elapsed":1080367,"internal_node_id":"0.0-39.0"},{"result":136,"points":3,"place":0,"phase":0,"sequence":20,"prices":[240,188,273,207,250,136,217,170,171,236],"times":[784,838,535,640,524,1358],"next_num":6,"trial_type":"ticket-choose","trial_index":40,"time_elapsed":1088713,"internal_node_id":"0.0-40.0"},{"result":142,"points":3,"place":0,"phase":0,"sequence":21,"prices":[142,207,171,182,190,269,180,218,256,188],"times":[2677],"next_num":1,"trial_type":"ticket-choose","trial_index":41,"time_elapsed":1093450,"internal_node_id":"0.0-41.0"},{"result":136,"points":2,"place":1,"phase":0,"sequence":22,"prices":[169,192,174,246,180,195,136,152,238,126],"times":[548,551,456,1147,519,557,1365],"next_num":7,"trial_type":"ticket-choose","trial_index":42,"time_elapsed":1101845,"internal_node_id":"0.0-42.0"},{"result":154,"points":2,"place":1,"phase":0,"sequence":23,"prices":[168,192,154,237,182,196,176,156,235,133],"times":[813,479,1221],"next_num":3,"trial_type":"ticket-choose","trial_index":43,"time_elapsed":1106785,"internal_node_id":"0.0-43.0"},{"result":137,"points":3,"place":0,"phase":0,"sequence":24,"prices":[137,187,152,156,166,231,155,194,202,160],"times":[1126],"next_num":1,"trial_type":"ticket-choose","trial_index":44,"time_elapsed":1109901,"internal_node_id":"0.0-44.0"},{"result":192,"points":1,"place":4,"phase":0,"sequence":25,"prices":[157,205,161,175,197,254,165,210,214,192],"times":[1118,441,544,551,446,457,633,581,481,955],"next_num":10,"trial_type":"ticket-choose","trial_index":45,"time_elapsed":1120253,"internal_node_id":"0.0-45.0"},{"result":154,"points":2,"place":1,"phase":0,"sequence":26,"prices":[244,203,196,189,154,206,197,149,171,159],"times":[537,530,511,535,1540],"next_num":5,"trial_type":"ticket-choose","trial_index":46,"time_elapsed":1126838,"internal_node_id":"0.0-46.0"},{"result":121,"points":3,"place":0,"phase":0,"sequence":27,"prices":[121,191,128,141,166,217,129,196,202,157],"times":[3227],"next_num":1,"trial_type":"ticket-choose","trial_index":47,"time_elapsed":1132255,"internal_node_id":"0.0-47.0"},{"result":153,"points":2,"place":1,"phase":0,"sequence":28,"prices":[197,153,181,215,150,155,164,247,177,162],"times":[591,1417],"next_num":2,"trial_type":"ticket-choose","trial_index":48,"time_elapsed":1136395,"internal_node_id":"0.0-48.0"},{"result":146,"points":2,"place":1,"phase":0,"sequence":29,"prices":[172,191,176,272,179,194,146,152,126,235],"times":[563,658,626,434,635,538,1152],"next_num":7,"trial_type":"ticket-choose","trial_index":49,"time_elapsed":1144217,"internal_node_id":"0.0-49.0"},{"result":131,"points":2,"place":1,"phase":0,"sequence":30,"prices":[221,234,131,136,132,149,154,90,176,173],"times":[754,456,1212],"next_num":3,"trial_type":"ticket-choose","trial_index":50,"time_elapsed":1149044,"internal_node_id":"0.0-50.0"},{"result":146,"points":2,"place":1,"phase":0,"sequence":31,"prices":[173,191,146,242,178,194,172,152,126,235],"times":[961,438,1445],"next_num":3,"trial_type":"ticket-choose","trial_index":51,"time_elapsed":1154245,"internal_node_id":"0.0-51.0"},{"result":146,"points":2,"place":1,"phase":0,"sequence":32,"prices":[168,191,146,252,183,193,172,153,126,238],"times":[638,555,1208],"next_num":3,"trial_type":"ticket-choose","trial_index":52,"time_elapsed":1158967,"internal_node_id":"0.0-52.0"},{"result":161,"points":1,"place":2,"phase":0,"sequence":33,"prices":[157,213,159,187,194,242,161,222,225,189],"times":[2073,474,863,476,561,471,1512],"next_num":7,"trial_type":"ticket-choose","trial_index":53,"time_elapsed":1168619,"internal_node_id":"0.0-53.0"},{"result":143,"points":3,"place":0,"phase":0,"sequence":34,"prices":[143,206,153,194,201,267,168,208,210,196],"times":[1170],"next_num":1,"trial_type":"ticket-choose","trial_index":54,"time_elapsed":1171995,"internal_node_id":"0.0-54.0"},{"result":154,"points":2,"place":1,"phase":0,"sequence":35,"prices":[169,192,176,244,178,194,154,159,237,125],"times":[707,496,468,519,6964,506,1224],"next_num":7,"trial_type":"ticket-choose","trial_index":55,"time_elapsed":1186321,"internal_node_id":"0.0-55.0"},{"result":136,"points":2,"place":1,"phase":0,"sequence":36,"prices":[172,190,136,270,179,192,174,152,237,129],"times":[1193,465,1400],"next_num":3,"trial_type":"ticket-choose","trial_index":56,"time_elapsed":1191747,"internal_node_id":"0.0-56.0"},{"result":146,"points":2,"place":1,"phase":0,"sequence":37,"prices":[169,193,146,237,180,196,172,150,129,236],"times":[560,469,1601],"next_num":3,"trial_type":"ticket-choose","trial_index":57,"time_elapsed":1196673,"internal_node_id":"0.0-57.0"},{"result":136,"points":2,"place":1,"phase":0,"sequence":38,"prices":[173,194,136,239,182,200,174,150,236,127],"times":[570,484,5191],"next_num":3,"trial_type":"ticket-choose","trial_index":58,"time_elapsed":1205323,"internal_node_id":"0.0-58.0"},{"result":124,"points":3,"place":0,"phase":0,"sequence":39,"prices":[124,220,136,165,185,234,143,225,228,179],"times":[1325],"next_num":1,"trial_type":"ticket-choose","trial_index":59,"time_elapsed":1208769,"internal_node_id":"0.0-59.0"},{"result":136,"points":2,"place":1,"phase":0,"sequence":40,"prices":[173,191,174,270,180,193,136,153,239,129],"times":[682,497,911,495,605,645,1253],"next_num":7,"trial_type":"ticket-choose","trial_index":60,"time_elapsed":1217123,"internal_node_id":"0.0-60.0"},{"result":154,"points":2,"place":1,"phase":0,"sequence":41,"prices":[169,193,154,255,178,194,176,158,239,126],"times":[752,550,2318],"next_num":3,"trial_type":"ticket-choose","trial_index":61,"time_elapsed":1223066,"internal_node_id":"0.0-61.0"},{"result":146,"points":2,"place":1,"phase":0,"sequence":42,"prices":[171,195,172,242,179,196,146,150,128,235],"times":[716,487,562,496,645,600,1303],"next_num":7,"trial_type":"ticket-choose","trial_index":62,"time_elapsed":1231195,"internal_node_id":"0.0-62.0"},{"result":119,"points":3,"place":0,"phase":0,"sequence":43,"prices":[198,119,169,141,195,233,136,208,177,217],"times":[533,1347],"next_num":2,"trial_type":"ticket-choose","trial_index":63,"time_elapsed":1235273,"internal_node_id":"0.0-63.0"},{"result":132,"points":3,"place":0,"phase":0,"sequence":44,"prices":[132,222,144,153,190,248,151,224,228,179],"times":[1269],"next_num":1,"trial_type":"ticket-choose","trial_index":64,"time_elapsed":1238555,"internal_node_id":"0.0-64.0"},{"result":138,"points":1,"place":2,"phase":0,"sequence":45,"prices":[181,138,118,170,190,101,146,169,175,233],"times":[1216,1080],"next_num":2,"trial_type":"ticket-choose","trial_index":65,"time_elapsed":1243290,"internal_node_id":"0.0-65.0"},{"result":136,"points":2,"place":1,"phase":0,"sequence":46,"prices":[171,192,136,265,180,194,174,152,239,127],"times":[593,537,1236],"next_num":3,"trial_type":"ticket-choose","trial_index":66,"time_elapsed":1248217,"internal_node_id":"0.0-66.0"},{"result":146,"points":2,"place":1,"phase":0,"sequence":47,"prices":[168,191,172,240,183,193,146,151,125,238],"times":[2771,2191,475,496,634,487,1255],"next_num":7,"trial_type":"ticket-choose","trial_index":67,"time_elapsed":1262705,"internal_node_id":"0.0-67.0"},{"result":124,"points":3,"place":0,"phase":0,"sequence":48,"prices":[219,183,227,124,176,161,140,129,171,201],"times":[931,532,464,1153],"next_num":4,"trial_type":"ticket-choose","trial_index":68,"time_elapsed":1269553,"internal_node_id":"0.0-68.0"},{"result":130,"points":2,"place":1,"phase":0,"sequence":49,"prices":[181,130,116,142,157,193,165,218,173,207],"times":[930,1801],"next_num":2,"trial_type":"ticket-choose","trial_index":69,"time_elapsed":1274501,"internal_node_id":"0.0-69.0"},{"responses":[{"value":2,"offby":1,"category":"$90 - $120","category_index":0},{"value":3,"offby":0,"category":"$121 - $145","category_index":1},{"value":5,"offby":2,"category":"$146 - $170","category_index":2},{"value":4,"offby":-2,"category":"$171 - $195","category_index":3},{"value":3,"offby":-1,"category":"$196 - $220","category_index":4},{"value":2,"offby":0,"category":"$221 - $245","category_index":5},{"value":1,"offby":0,"category":"$246 - $270","category_index":6}],"phase":0,"number":1,"trial_type":"bar-choose","trial_index":70,"time_elapsed":1354243,"internal_node_id":"0.0-70.0"},{"rt":45822,"url":"\/tickets\/utils\/start2.html","trial_type":"html","trial_index":71,"time_elapsed":1401187,"internal_node_id":"0.0-71.0"},{"trial_type":"number-animation","trial_index":72,"time_elapsed":1431250,"internal_node_id":"0.0-72.0"},{"phase":1,"sequence":0,"avg":181,"response":178,"trial_type":"training_avg","trial_index":73,"time_elapsed":1441286,"internal_node_id":"0.0-73.0"},{"trial_type":"number-animation","trial_index":74,"time_elapsed":1450118,"internal_node_id":"0.0-74.0"},{"phase":1,"sequence":1,"avg":188,"response":200,"trial_type":"training_avg","trial_index":75,"time_elapsed":1459041,"internal_node_id":"0.0-75.0"},{"trial_type":"number-animation","trial_index":76,"time_elapsed":1465729,"internal_node_id":"0.0-76.0"},{"phase":1,"sequence":2,"avg":188,"response":185,"trial_type":"training_avg","trial_index":77,"time_elapsed":1471239,"internal_node_id":"0.0-77.0"},{"trial_type":"number-animation","trial_index":78,"time_elapsed":1481127,"internal_node_id":"0.0-78.0"},{"phase":1,"sequence":3,"avg":177,"response":183,"trial_type":"training_avg","trial_index":79,"time_elapsed":1487833,"internal_node_id":"0.0-79.0"},{"trial_type":"number-animation","trial_index":80,"time_elapsed":1494630,"internal_node_id":"0.0-80.0"},{"phase":1,"sequence":4,"avg":182,"response":191,"trial_type":"training_avg","trial_index":81,"time_elapsed":1501668,"internal_node_id":"0.0-81.0"},{"responses":[{"value":1,"offby":1,"category":"$106 - $134","category_index":0},{"value":2,"offby":1,"category":"$135 - $150","category_index":1},{"value":4,"offby":1,"category":"$151 - $165","category_index":2},{"value":5,"offby":-1,"category":"$166 - $180","category_index":3},{"value":4,"offby":-2,"category":"$181 - $195","category_index":4},{"value":2,"offby":-1,"category":"$196 - $210","category_index":5},{"value":2,"offby":1,"category":"$211 - $225","category_index":6}],"phase":1,"number":0,"trial_type":"bar-choose","trial_index":82,"time_elapsed":1585118,"internal_node_id":"0.0-82.0"},{"rt":58627,"url":"\/tickets\/utils\/testing2.html","trial_type":"html","trial_index":83,"time_elapsed":1644871,"internal_node_id":"0.0-83.0"},{"phase":1,"order":[48,12,9,49,43,35,42,15,21,7,31,17,36,30,11,38,3,13,22,37,46,24,20,8,33,27,45,29,39,4,41,0,2,28,32,14,19,1,18,26,23,10,5,40,25,44,16,6,47,34],"trial_type":"store_order","trial_index":84,"time_elapsed":1645874,"internal_node_id":"0.0-84.0"},{"result":154,"points":2,"place":1,"phase":1,"sequence":0,"prices":[168,154,172,185,195,144,184,211,177,227],"times":[3307,1347],"next_num":2,"trial_type":"ticket-choose","trial_index":85,"time_elapsed":1652776,"internal_node_id":"0.0-85.0"},{"result":158,"points":3,"place":0,"phase":1,"sequence":1,"prices":[210,184,226,193,215,158,199,175,176,208],"times":[526,533,405,529,547,1315],"next_num":6,"trial_type":"ticket-choose","trial_index":86,"time_elapsed":1659580,"internal_node_id":"0.0-86.0"},{"result":148,"points":3,"place":0,"phase":1,"sequence":2,"prices":[148,171,150,163,167,220,162,186,187,165],"times":[1434],"next_num":1,"trial_type":"ticket-choose","trial_index":87,"time_elapsed":1663032,"internal_node_id":"0.0-87.0"},{"result":179,"points":1,"place":4,"phase":1,"sequence":3,"prices":[156,201,162,166,185,214,165,202,204,179],"times":[794,395,414,452,514,444,430,569,492,1052],"next_num":10,"trial_type":"ticket-choose","trial_index":88,"time_elapsed":1672453,"internal_node_id":"0.0-88.0"},{"result":184,"points":1,"place":4,"phase":1,"sequence":4,"prices":[161,193,175,181,185,224,180,199,218,184],"times":[656,469,599,480,473,458,474,692,485,1169],"next_num":10,"trial_type":"ticket-choose","trial_index":89,"time_elapsed":1682466,"internal_node_id":"0.0-89.0"},{"result":157,"points":3,"place":0,"phase":1,"sequence":5,"prices":[201,187,157,184,198,179,188,185,178,170],"times":[1189,623,1062],"next_num":3,"trial_type":"ticket-choose","trial_index":90,"time_elapsed":1687704,"internal_node_id":"0.0-90.0"},{"result":167,"points":2,"place":1,"phase":1,"sequence":6,"prices":[212,192,188,184,167,193,189,164,176,170],"times":[819,555,627,538,1091],"next_num":5,"trial_type":"ticket-choose","trial_index":91,"time_elapsed":1694132,"internal_node_id":"0.0-91.0"},{"result":163,"points":2,"place":1,"phase":1,"sequence":7,"prices":[174,186,163,212,181,187,176,166,153,209],"times":[887,511,1207],"next_num":3,"trial_type":"ticket-choose","trial_index":92,"time_elapsed":1699072,"internal_node_id":"0.0-92.0"},{"result":178,"points":1,"place":4,"phase":1,"sequence":8,"prices":[174,186,178,217,181,188,167,168,208,156],"times":[1070,650,1032],"next_num":3,"trial_type":"ticket-choose","trial_index":93,"time_elapsed":1704256,"internal_node_id":"0.0-93.0"},{"result":167,"points":2,"place":1,"phase":1,"sequence":9,"prices":[174,186,167,211,181,188,178,168,208,156],"times":[646,593,1146],"next_num":3,"trial_type":"ticket-choose","trial_index":94,"time_elapsed":1709048,"internal_node_id":"0.0-94.0"},{"result":154,"points":2,"place":1,"phase":1,"sequence":10,"prices":[150,185,154,161,173,199,155,188,191,168],"times":[414,695,1202],"next_num":3,"trial_type":"ticket-choose","trial_index":95,"time_elapsed":1713634,"internal_node_id":"0.0-95.0"},{"result":167,"points":2,"place":1,"phase":1,"sequence":11,"prices":[175,185,178,215,181,186,167,168,208,156],"times":[631,433,467,581,478,452,1155],"next_num":7,"trial_type":"ticket-choose","trial_index":96,"time_elapsed":1721010,"internal_node_id":"0.0-96.0"},{"result":163,"points":2,"place":1,"phase":1,"sequence":12,"prices":[198,193,169,163,202,182,152,164,177,171],"times":[369,676,383,977],"next_num":4,"trial_type":"ticket-choose","trial_index":97,"time_elapsed":1726012,"internal_node_id":"0.0-97.0"},{"result":159,"points":3,"place":0,"phase":1,"sequence":13,"prices":[159,183,166,168,173,205,167,187,191,170],"times":[14788],"next_num":1,"trial_type":"ticket-choose","trial_index":98,"time_elapsed":1742702,"internal_node_id":"0.0-98.0"},{"result":167,"points":2,"place":1,"phase":1,"sequence":14,"prices":[175,186,167,225,179,187,178,169,209,153],"times":[1064,467,928],"next_num":3,"trial_type":"ticket-choose","trial_index":99,"time_elapsed":1750014,"internal_node_id":"0.0-99.0"},{"result":176,"points":1,"place":4,"phase":1,"sequence":15,"prices":[175,187,176,209,180,188,163,165,154,208],"times":[3497,449,922],"next_num":3,"trial_type":"ticket-choose","trial_index":100,"time_elapsed":1757820,"internal_node_id":"0.0-100.0"},{"result":158,"points":2,"place":1,"phase":1,"sequence":16,"prices":[176,187,177,225,181,187,158,165,208,153],"times":[577,375,361,2304,1120,577,912],"next_num":7,"trial_type":"ticket-choose","trial_index":101,"time_elapsed":1769396,"internal_node_id":"0.0-101.0"},{"result":158,"points":2,"place":1,"phase":1,"sequence":17,"prices":[176,187,158,210,181,187,177,165,208,153],"times":[668,427,1102],"next_num":3,"trial_type":"ticket-choose","trial_index":102,"time_elapsed":1774015,"internal_node_id":"0.0-102.0"},{"result":165,"points":2,"place":1,"phase":1,"sequence":18,"prices":[188,200,165,172,198,174,177,154,177,180],"times":[500,491,1494],"next_num":3,"trial_type":"ticket-choose","trial_index":103,"time_elapsed":1778790,"internal_node_id":"0.0-103.0"},{"result":159,"points":1,"place":2,"phase":1,"sequence":19,"prices":[180,159,149,175,185,141,163,174,178,207],"times":[443,1057],"next_num":2,"trial_type":"ticket-choose","trial_index":104,"time_elapsed":1782368,"internal_node_id":"0.0-104.0"},{"result":163,"points":2,"place":1,"phase":1,"sequence":20,"prices":[176,186,176,210,179,187,163,166,153,208],"times":[540,537,737,491,438,449,1637],"next_num":7,"trial_type":"ticket-choose","trial_index":105,"time_elapsed":1790386,"internal_node_id":"0.0-105.0"},{"result":152,"points":3,"place":0,"phase":1,"sequence":21,"prices":[152,200,158,173,182,207,161,202,204,180],"times":[1097],"next_num":1,"trial_type":"ticket-choose","trial_index":106,"time_elapsed":1793323,"internal_node_id":"0.0-106.0"},{"result":179,"points":0,"place":5,"phase":1,"sequence":22,"prices":[175,187,178,209,179,187,167,169,208,153],"times":[655,453,244,257,953],"next_num":5,"trial_type":"ticket-choose","trial_index":107,"time_elapsed":1798496,"internal_node_id":"0.0-107.0"},{"result":157,"points":3,"place":0,"phase":1,"sequence":23,"prices":[157,191,165,175,182,203,170,195,200,176],"times":[945],"next_num":1,"trial_type":"ticket-choose","trial_index":108,"time_elapsed":1801338,"internal_node_id":"0.0-108.0"},{"result":163,"points":2,"place":1,"phase":1,"sequence":24,"prices":[175,186,163,211,179,187,176,165,153,210],"times":[11043,450,673],"next_num":3,"trial_type":"ticket-choose","trial_index":109,"time_elapsed":1815710,"internal_node_id":"0.0-109.0"},{"result":158,"points":1,"place":3,"phase":1,"sequence":25,"prices":[201,207,155,158,156,165,167,135,178,177],"times":[734,357,261,852],"next_num":4,"trial_type":"ticket-choose","trial_index":110,"time_elapsed":1820328,"internal_node_id":"0.0-110.0"},{"result":169,"points":1,"place":2,"phase":1,"sequence":26,"prices":[175,187,167,212,179,187,178,169,208,153],"times":[520,366,394,421,396,432,460,777],"next_num":8,"trial_type":"ticket-choose","trial_index":111,"time_elapsed":1827366,"internal_node_id":"0.0-111.0"},{"result":167,"points":2,"place":1,"phase":1,"sequence":27,"prices":[189,167,180,197,165,168,172,213,178,171],"times":[539,1342],"next_num":2,"trial_type":"ticket-choose","trial_index":112,"time_elapsed":1831274,"internal_node_id":"0.0-112.0"},{"result":158,"points":2,"place":1,"phase":1,"sequence":28,"prices":[176,185,158,217,180,186,177,166,209,154],"times":[589,554,1155],"next_num":3,"trial_type":"ticket-choose","trial_index":113,"time_elapsed":1835822,"internal_node_id":"0.0-113.0"},{"result":169,"points":3,"place":0,"phase":1,"sequence":29,"prices":[169,196,170,184,187,211,171,201,202,185],"times":[988],"next_num":1,"trial_type":"ticket-choose","trial_index":114,"time_elapsed":1838884,"internal_node_id":"0.0-114.0"},{"result":163,"points":1,"place":2,"phase":1,"sequence":30,"prices":[183,163,185,180,166,148,160,186,176,184],"times":[496,1039],"next_num":2,"trial_type":"ticket-choose","trial_index":115,"time_elapsed":1842398,"internal_node_id":"0.0-115.0"},{"result":158,"points":2,"place":1,"phase":1,"sequence":31,"prices":[175,186,177,209,181,188,158,167,208,154],"times":[490,481,431,476,1447,920,721],"next_num":7,"trial_type":"ticket-choose","trial_index":116,"time_elapsed":1852262,"internal_node_id":"0.0-116.0"},{"result":168,"points":1,"place":2,"phase":1,"sequence":32,"prices":[168,199,196,198,185,195,227,163,177,166],"times":[1101],"next_num":1,"trial_type":"ticket-choose","trial_index":117,"time_elapsed":1855214,"internal_node_id":"0.0-117.0"},{"result":163,"points":2,"place":1,"phase":1,"sequence":33,"prices":[175,187,163,209,180,188,176,165,154,208],"times":[486,414,807],"next_num":3,"trial_type":"ticket-choose","trial_index":118,"time_elapsed":1859387,"internal_node_id":"0.0-118.0"},{"result":163,"points":2,"place":1,"phase":1,"sequence":34,"prices":[176,186,163,214,179,187,176,166,153,208],"times":[554,390,1071],"next_num":3,"trial_type":"ticket-choose","trial_index":119,"time_elapsed":1863591,"internal_node_id":"0.0-119.0"},{"result":143,"points":3,"place":0,"phase":1,"sequence":35,"prices":[222,173,202,197,143,205,198,183,178,186],"times":[673,497,460,495,1152],"next_num":5,"trial_type":"ticket-choose","trial_index":120,"time_elapsed":1869572,"internal_node_id":"0.0-120.0"},{"result":180,"points":0,"place":5,"phase":1,"sequence":36,"prices":[176,185,177,218,180,186,158,166,209,154],"times":[622,466,415,529,1217],"next_num":5,"trial_type":"ticket-choose","trial_index":121,"time_elapsed":1875468,"internal_node_id":"0.0-121.0"},{"result":163,"points":2,"place":1,"phase":1,"sequence":37,"prices":[174,186,176,217,181,187,163,166,153,209],"times":[530,416,454,418,494,351,715],"next_num":7,"trial_type":"ticket-choose","trial_index":122,"time_elapsed":1881934,"internal_node_id":"0.0-122.0"},{"result":150,"points":3,"place":0,"phase":1,"sequence":38,"prices":[189,150,175,160,188,207,158,194,178,199],"times":[528,784],"next_num":2,"trial_type":"ticket-choose","trial_index":123,"time_elapsed":1885276,"internal_node_id":"0.0-123.0"},{"result":168,"points":3,"place":0,"phase":1,"sequence":39,"prices":[168,192,171,178,188,217,172,195,197,186],"times":[1331],"next_num":1,"trial_type":"ticket-choose","trial_index":124,"time_elapsed":1888658,"internal_node_id":"0.0-124.0"},{"result":169,"points":1,"place":2,"phase":1,"sequence":40,"prices":[175,186,178,212,179,187,167,169,209,153],"times":[2528,487,691,443,567,543,534,865],"next_num":8,"trial_type":"ticket-choose","trial_index":125,"time_elapsed":1898852,"internal_node_id":"0.0-125.0"},{"result":161,"points":3,"place":0,"phase":1,"sequence":41,"prices":[161,193,167,187,190,224,174,194,195,188],"times":[1261],"next_num":1,"trial_type":"ticket-choose","trial_index":126,"time_elapsed":1901913,"internal_node_id":"0.0-126.0"},{"result":167,"points":1,"place":2,"phase":1,"sequence":42,"prices":[175,186,158,209,181,188,177,167,208,154],"times":[841,468,397,468,2729,498,458,1053],"next_num":8,"trial_type":"ticket-choose","trial_index":127,"time_elapsed":1912125,"internal_node_id":"0.0-127.0"},{"result":163,"points":2,"place":1,"phase":1,"sequence":43,"prices":[175,186,176,224,179,187,163,165,153,210],"times":[710,445,593,753,598,405,1130],"next_num":7,"trial_type":"ticket-choose","trial_index":128,"time_elapsed":1919929,"internal_node_id":"0.0-128.0"},{"result":168,"points":1,"place":2,"phase":1,"sequence":44,"prices":[175,185,167,224,181,186,178,168,208,156],"times":[6490,470,370,434,604,542,725,976],"next_num":8,"trial_type":"ticket-choose","trial_index":129,"time_elapsed":1934070,"internal_node_id":"0.0-129.0"},{"result":169,"points":2,"place":1,"phase":1,"sequence":45,"prices":[181,215,169,147,182,193,177,184,176,179],"times":[597,452,725],"next_num":3,"trial_type":"ticket-choose","trial_index":130,"time_elapsed":1938086,"internal_node_id":"0.0-130.0"},{"result":152,"points":3,"place":0,"phase":1,"sequence":46,"prices":[200,181,203,152,175,171,160,154,176,191],"times":[521,480,458,850],"next_num":4,"trial_type":"ticket-choose","trial_index":131,"time_elapsed":1942837,"internal_node_id":"0.0-131.0"},{"result":158,"points":2,"place":1,"phase":1,"sequence":47,"prices":[175,186,177,221,180,187,158,166,209,153],"times":[526,581,885,448,628,468,1070],"next_num":7,"trial_type":"ticket-choose","trial_index":132,"time_elapsed":1950620,"internal_node_id":"0.0-132.0"},{"result":155,"points":2,"place":1,"phase":1,"sequence":48,"prices":[181,155,148,161,168,187,172,199,176,194],"times":[563,1512],"next_num":2,"trial_type":"ticket-choose","trial_index":133,"time_elapsed":1954854,"internal_node_id":"0.0-133.0"},{"result":158,"points":2,"place":1,"phase":1,"sequence":49,"prices":[175,186,158,211,180,187,177,166,209,153],"times":[551,450,833],"next_num":3,"trial_type":"ticket-choose","trial_index":134,"time_elapsed":1958979,"internal_node_id":"0.0-134.0"},{"responses":[{"value":2,"offby":2,"category":"$106 - $134","category_index":0},{"value":3,"offby":2,"category":"$135 - $150","category_index":1},{"value":4,"offby":1,"category":"$151 - $165","category_index":2},{"value":4,"offby":-2,"category":"$166 - $180","category_index":3},{"value":3,"offby":-3,"category":"$181 - $195","category_index":4},{"value":3,"offby":0,"category":"$196 - $210","category_index":5},{"value":1,"offby":0,"category":"$211 - $225","category_index":6}],"phase":1,"number":1,"trial_type":"bar-choose","trial_index":135,"time_elapsed":1979024,"internal_node_id":"0.0-135.0"},{"special_comment":"n\/a","trial_type":"special_sequence","trial_index":136,"time_elapsed":1985983,"internal_node_id":"0.0-136.0"},{"during":"Nothing","bonus":276,"trial_type":"final","trial_index":137,"time_elapsed":2009924,"internal_node_id":"0.0-137.0"}],"bonus":276}