{"start_time":"2017-02-27 11:27:17","end_time":"2017-02-27 11:48:57","points_phase0":118,"points_phase1":110,"phase_order":1,"age":29,"gender":"m","tries":2,"during":"Nothing","worker_id":"A1WR6M74EOTJNY","assignment_id":"3DUZQ9U6SNH92SV0EZK0TOC166QSVG","data":[{"rt":11227,"url":"\/tickets\/utils\/consent.html","trial_type":"html","trial_index":0,"time_elapsed":11411,"internal_node_id":"0.0-0.0"},{"age":29,"gender":"m","trial_type":"age","trial_index":1,"time_elapsed":16006,"internal_node_id":"0.0-1.0"},{"worker_id":"A1WR6M74EOTJNY","trial_type":"workerid","trial_index":2,"time_elapsed":30346,"internal_node_id":"0.0-2.0"},{"tries":2,"trial_type":"instructions_check","trial_index":3,"time_elapsed":65099,"internal_node_id":"0.0-3.0"},{"rt":9717,"url":"\/tickets\/utils\/start.html","trial_type":"html","trial_index":4,"time_elapsed":75925,"internal_node_id":"0.0-4.0"},{"trial_type":"number-animation","trial_index":5,"time_elapsed":94352,"internal_node_id":"0.0-5.0"},{"phase":0,"sequence":0,"avg":166,"response":175,"trial_type":"training_avg","trial_index":6,"time_elapsed":101536,"internal_node_id":"0.0-6.0"},{"trial_type":"number-animation","trial_index":7,"time_elapsed":113895,"internal_node_id":"0.0-7.0"},{"phase":0,"sequence":1,"avg":198,"response":190,"trial_type":"training_avg","trial_index":8,"time_elapsed":121516,"internal_node_id":"0.0-8.0"},{"trial_type":"number-animation","trial_index":9,"time_elapsed":132590,"internal_node_id":"0.0-9.0"},{"phase":0,"sequence":2,"avg":177,"response":152,"trial_type":"training_avg","trial_index":10,"time_elapsed":138457,"internal_node_id":"0.0-10.0"},{"trial_type":"number-animation","trial_index":11,"time_elapsed":148464,"internal_node_id":"0.0-11.0"},{"phase":0,"sequence":3,"avg":190,"response":199,"trial_type":"training_avg","trial_index":12,"time_elapsed":157167,"internal_node_id":"0.0-12.0"},{"trial_type":"number-animation","trial_index":13,"time_elapsed":167029,"internal_node_id":"0.0-13.0"},{"phase":0,"sequence":4,"avg":201,"response":209,"trial_type":"training_avg","trial_index":14,"time_elapsed":177958,"internal_node_id":"0.0-14.0"},{"responses":[{"value":0,"offby":-1,"category":"$30 - $75","category_index":0},{"value":3,"offby":1,"category":"$76 - $120","category_index":1},{"value":4,"offby":0,"category":"$121 - $165","category_index":2},{"value":6,"offby":0,"category":"$166 - $210","category_index":3},{"value":4,"offby":-2,"category":"$211 - $255","category_index":4},{"value":3,"offby":2,"category":"$256 - $300","category_index":5},{"value":0,"offby":0,"category":"$301 - $345","category_index":6}],"phase":0,"number":0,"trial_type":"bar-choose","trial_index":15,"time_elapsed":236767,"internal_node_id":"0.0-15.0"},{"rt":3896,"url":"\/tickets\/\/utils\/testing.html","trial_type":"html","trial_index":16,"time_elapsed":241770,"internal_node_id":"0.0-16.0"},{"phase":0,"order":[4,19,28,29,38,10,37,41,24,16,49,6,46,26,35,5,27,25,3,9,12,11,48,2,40,43,23,31,22,30,20,42,47,36,39,45,18,21,0,13,32,1,14,8,15,33,7,17,44,34],"trial_type":"store_order","trial_index":17,"time_elapsed":242771,"internal_node_id":"0.0-17.0"},{"result":185,"points":0,"place":5,"phase":0,"sequence":-1,"prices":[184,180,224,165,181,199,185,193,218,126],"times":[3622,4293,1493,1266,1204,1321,1084],"next_num":7,"trial_type":"ticket-choose","trial_index":18,"time_elapsed":261014,"internal_node_id":"0.0-18.0"},{"rt":23742,"url":"\/tickets\/utils\/testing_after.html","trial_type":"html","trial_index":19,"time_elapsed":285898,"internal_node_id":"0.0-19.0"},{"result":120,"points":2,"place":1,"phase":0,"sequence":0,"prices":[150,170,160,241,166,186,120,136,96,191],"times":[3559,874,2445,1095,1307,933,1149],"next_num":7,"trial_type":"ticket-choose","trial_index":20,"time_elapsed":302282,"internal_node_id":"0.0-20.0"},{"result":120,"points":3,"place":0,"phase":0,"sequence":1,"prices":[120,221,135,185,200,261,181,251,255,196],"times":[2264],"next_num":1,"trial_type":"ticket-choose","trial_index":21,"time_elapsed":307550,"internal_node_id":"0.0-21.0"},{"result":125,"points":2,"place":1,"phase":0,"sequence":2,"prices":[155,175,166,245,171,190,125,140,101,196],"times":[1337,786,965,831,793,761,1369],"next_num":7,"trial_type":"ticket-choose","trial_index":22,"time_elapsed":317834,"internal_node_id":"0.0-22.0"},{"result":146,"points":1,"place":2,"phase":0,"sequence":3,"prices":[160,180,130,251,176,195,170,146,105,200],"times":[1052,396,356,887,581,661,880,1104],"next_num":8,"trial_type":"ticket-choose","trial_index":23,"time_elapsed":327480,"internal_node_id":"0.0-23.0"},{"result":135,"points":3,"place":0,"phase":0,"sequence":4,"prices":[135,180,141,151,175,220,145,196,211,155],"times":[1644],"next_num":1,"trial_type":"ticket-choose","trial_index":24,"time_elapsed":331426,"internal_node_id":"0.0-24.0"},{"result":91,"points":3,"place":0,"phase":0,"sequence":5,"prices":[176,150,141,91,290,201,106,266,206,126],"times":[1142,522,1618,937],"next_num":4,"trial_type":"ticket-choose","trial_index":25,"time_elapsed":338410,"internal_node_id":"0.0-25.0"},{"result":150,"points":2,"place":1,"phase":0,"sequence":6,"prices":[181,156,145,165,236,231,201,260,150,185],"times":[1543,364,450,737,630,748,604,591,1128],"next_num":9,"trial_type":"ticket-choose","trial_index":26,"time_elapsed":348804,"internal_node_id":"0.0-26.0"},{"result":131,"points":2,"place":1,"phase":0,"sequence":7,"prices":[161,180,171,250,176,195,131,146,105,201],"times":[964,412,319,569,628,692,988],"next_num":7,"trial_type":"ticket-choose","trial_index":27,"time_elapsed":356777,"internal_node_id":"0.0-27.0"},{"result":101,"points":1,"place":3,"phase":0,"sequence":8,"prices":[155,30,101,55,136,276,70,181,200,261],"times":[1892,427,1571],"next_num":3,"trial_type":"ticket-choose","trial_index":28,"time_elapsed":363088,"internal_node_id":"0.0-28.0"},{"result":111,"points":3,"place":0,"phase":0,"sequence":9,"prices":[175,211,266,286,111,216,220,245,230,165],"times":[993,785,692,645,956],"next_num":5,"trial_type":"ticket-choose","trial_index":29,"time_elapsed":370092,"internal_node_id":"0.0-29.0"},{"result":126,"points":2,"place":1,"phase":0,"sequence":10,"prices":[150,176,126,251,171,195,165,145,105,200],"times":[1413,548,1176],"next_num":3,"trial_type":"ticket-choose","trial_index":30,"time_elapsed":375754,"internal_node_id":"0.0-30.0"},{"result":136,"points":1,"place":2,"phase":0,"sequence":11,"prices":[150,171,121,241,165,185,160,136,95,191],"times":[1088,399,473,581,670,551,888,956],"next_num":8,"trial_type":"ticket-choose","trial_index":31,"time_elapsed":384886,"internal_node_id":"0.0-31.0"},{"result":65,"points":2,"place":1,"phase":0,"sequence":12,"prices":[220,236,176,65,185,101,110,61,156,191],"times":[1128,669,606,872],"next_num":4,"trial_type":"ticket-choose","trial_index":32,"time_elapsed":390774,"internal_node_id":"0.0-32.0"},{"result":120,"points":2,"place":1,"phase":0,"sequence":13,"prices":[150,171,120,241,165,185,160,135,96,190],"times":[675,669,1197],"next_num":3,"trial_type":"ticket-choose","trial_index":33,"time_elapsed":395683,"internal_node_id":"0.0-33.0"},{"result":105,"points":3,"place":0,"phase":0,"sequence":14,"prices":[105,216,146,165,210,260,161,235,241,185],"times":[1009],"next_num":1,"trial_type":"ticket-choose","trial_index":34,"time_elapsed":398609,"internal_node_id":"0.0-34.0"},{"result":106,"points":2,"place":1,"phase":0,"sequence":15,"prices":[185,180,235,210,106,266,76,115,250,205],"times":[1253,715,739,666,1004],"next_num":5,"trial_type":"ticket-choose","trial_index":35,"time_elapsed":406185,"internal_node_id":"0.0-35.0"},{"result":95,"points":3,"place":0,"phase":0,"sequence":16,"prices":[95,205,106,151,186,271,145,210,215,181],"times":[1166],"next_num":1,"trial_type":"ticket-choose","trial_index":36,"time_elapsed":409460,"internal_node_id":"0.0-36.0"},{"result":120,"points":2,"place":1,"phase":0,"sequence":17,"prices":[186,156,191,120,195,145,45,130,246,176],"times":[706,776,624,893],"next_num":4,"trial_type":"ticket-choose","trial_index":37,"time_elapsed":415179,"internal_node_id":"0.0-37.0"},{"result":116,"points":3,"place":0,"phase":0,"sequence":18,"prices":[176,150,276,171,261,116,130,201,166,231],"times":[879,435,600,599,630,1026],"next_num":6,"trial_type":"ticket-choose","trial_index":38,"time_elapsed":422420,"internal_node_id":"0.0-38.0"},{"result":75,"points":3,"place":0,"phase":0,"sequence":19,"prices":[75,171,131,151,161,250,145,190,206,156],"times":[1082],"next_num":1,"trial_type":"ticket-choose","trial_index":39,"time_elapsed":425565,"internal_node_id":"0.0-39.0"},{"result":105,"points":3,"place":0,"phase":0,"sequence":20,"prices":[161,180,131,251,175,196,171,146,105,201],"times":[3143,729,1322,607,615,661,745,1454,1213],"next_num":9,"trial_type":"ticket-choose","trial_index":40,"time_elapsed":440019,"internal_node_id":"0.0-40.0"},{"result":130,"points":3,"place":0,"phase":0,"sequence":21,"prices":[130,195,141,155,181,226,150,216,221,175],"times":[1681],"next_num":1,"trial_type":"ticket-choose","trial_index":41,"time_elapsed":443963,"internal_node_id":"0.0-41.0"},{"result":81,"points":3,"place":0,"phase":0,"sequence":22,"prices":[81,205,130,151,191,261,145,210,250,165],"times":[1603],"next_num":1,"trial_type":"ticket-choose","trial_index":42,"time_elapsed":447535,"internal_node_id":"0.0-42.0"},{"result":130,"points":2,"place":1,"phase":0,"sequence":23,"prices":[156,181,130,255,175,200,170,150,111,205],"times":[1235,490,956],"next_num":3,"trial_type":"ticket-choose","trial_index":43,"time_elapsed":452685,"internal_node_id":"0.0-43.0"},{"result":121,"points":2,"place":1,"phase":0,"sequence":24,"prices":[146,170,121,245,166,190,161,141,100,195],"times":[4324,544,896],"next_num":3,"trial_type":"ticket-choose","trial_index":44,"time_elapsed":460751,"internal_node_id":"0.0-44.0"},{"result":131,"points":2,"place":1,"phase":0,"sequence":25,"prices":[160,180,170,251,176,195,131,146,105,200],"times":[1732,536,576,649,633,603,981],"next_num":7,"trial_type":"ticket-choose","trial_index":45,"time_elapsed":469744,"internal_node_id":"0.0-45.0"},{"result":105,"points":3,"place":0,"phase":0,"sequence":26,"prices":[151,176,126,251,170,196,165,145,105,201],"times":[1377,403,409,678,682,599,621,732,963],"next_num":9,"trial_type":"ticket-choose","trial_index":46,"time_elapsed":480511,"internal_node_id":"0.0-46.0"},{"result":120,"points":2,"place":1,"phase":0,"sequence":27,"prices":[145,170,160,245,165,190,120,141,100,195],"times":[10021,832,831,622,622,636,1144],"next_num":7,"trial_type":"ticket-choose","trial_index":47,"time_elapsed":498771,"internal_node_id":"0.0-47.0"},{"result":126,"points":2,"place":1,"phase":0,"sequence":28,"prices":[151,175,166,251,170,195,126,146,105,201],"times":[1343,1340,1252,4465,646,1183,957],"next_num":7,"trial_type":"ticket-choose","trial_index":48,"time_elapsed":513311,"internal_node_id":"0.0-48.0"},{"result":126,"points":2,"place":1,"phase":0,"sequence":29,"prices":[156,176,165,246,171,190,126,141,101,196],"times":[1001,464,583,653,870,661,1142],"next_num":7,"trial_type":"ticket-choose","trial_index":49,"time_elapsed":521947,"internal_node_id":"0.0-49.0"},{"result":131,"points":2,"place":1,"phase":0,"sequence":30,"prices":[156,181,171,256,175,200,131,150,110,206],"times":[1000,701,630,698,615,770,1291],"next_num":7,"trial_type":"ticket-choose","trial_index":50,"time_elapsed":530862,"internal_node_id":"0.0-50.0"},{"result":140,"points":1,"place":2,"phase":0,"sequence":31,"prices":[156,175,125,245,170,190,165,140,101,196],"times":[1081,409,473,670,585,757,737,1001],"next_num":8,"trial_type":"ticket-choose","trial_index":51,"time_elapsed":540017,"internal_node_id":"0.0-51.0"},{"result":81,"points":3,"place":0,"phase":0,"sequence":32,"prices":[155,245,155,81,180,130,156,306,166,115],"times":[1089,351,717,1034],"next_num":4,"trial_type":"ticket-choose","trial_index":52,"time_elapsed":546046,"internal_node_id":"0.0-52.0"},{"result":66,"points":3,"place":0,"phase":0,"sequence":33,"prices":[66,201,96,150,185,230,121,216,225,165],"times":[1444],"next_num":1,"trial_type":"ticket-choose","trial_index":53,"time_elapsed":549570,"internal_node_id":"0.0-53.0"},{"result":136,"points":3,"place":0,"phase":0,"sequence":34,"prices":[246,145,155,191,176,270,185,136,160,215],"times":[1205,871,709,632,645,690,621,994],"next_num":8,"trial_type":"ticket-choose","trial_index":54,"time_elapsed":559388,"internal_node_id":"0.0-54.0"},{"result":61,"points":3,"place":0,"phase":0,"sequence":35,"prices":[255,166,266,175,136,145,155,61,96,301],"times":[981,795,868,806,537,543,691,927],"next_num":8,"trial_type":"ticket-choose","trial_index":55,"time_elapsed":569244,"internal_node_id":"0.0-55.0"},{"result":121,"points":2,"place":1,"phase":0,"sequence":36,"prices":[150,170,160,240,166,185,121,136,95,191],"times":[1057,903,567,590,814,714,1142],"next_num":7,"trial_type":"ticket-choose","trial_index":56,"time_elapsed":578454,"internal_node_id":"0.0-56.0"},{"result":126,"points":2,"place":1,"phase":0,"sequence":37,"prices":[156,175,126,246,170,190,165,140,100,196],"times":[961,465,950],"next_num":3,"trial_type":"ticket-choose","trial_index":57,"time_elapsed":583276,"internal_node_id":"0.0-57.0"},{"result":51,"points":3,"place":0,"phase":0,"sequence":38,"prices":[221,175,51,196,146,130,166,80,126,156],"times":[891,620,901],"next_num":3,"trial_type":"ticket-choose","trial_index":58,"time_elapsed":588310,"internal_node_id":"0.0-58.0"},{"result":125,"points":2,"place":1,"phase":0,"sequence":39,"prices":[180,106,166,245,211,261,215,125,135,190],"times":[1814,450,707,644,689,712,801,1048],"next_num":8,"trial_type":"ticket-choose","trial_index":59,"time_elapsed":598619,"internal_node_id":"0.0-59.0"},{"result":120,"points":2,"place":1,"phase":0,"sequence":40,"prices":[145,171,161,245,165,191,120,140,100,196],"times":[1072,746,608,597,638,691,1003],"next_num":7,"trial_type":"ticket-choose","trial_index":60,"time_elapsed":607223,"internal_node_id":"0.0-60.0"},{"result":130,"points":2,"place":1,"phase":0,"sequence":41,"prices":[155,181,170,255,176,200,130,150,110,205],"times":[777,576,636,621,692,661,933],"next_num":7,"trial_type":"ticket-choose","trial_index":61,"time_elapsed":615219,"internal_node_id":"0.0-61.0"},{"result":120,"points":2,"place":1,"phase":0,"sequence":42,"prices":[226,205,125,120,115,135,180,145,150,220],"times":[505,343,579,871],"next_num":4,"trial_type":"ticket-choose","trial_index":62,"time_elapsed":620104,"internal_node_id":"0.0-62.0"},{"result":130,"points":2,"place":1,"phase":0,"sequence":43,"prices":[155,225,245,130,176,106,180,211,165,200],"times":[1057,614,616,973],"next_num":4,"trial_type":"ticket-choose","trial_index":63,"time_elapsed":626017,"internal_node_id":"0.0-63.0"},{"result":111,"points":3,"place":0,"phase":0,"sequence":44,"prices":[156,181,131,256,176,200,171,151,111,206],"times":[886,2029,982,906,668,909,762,869,1205],"next_num":9,"trial_type":"ticket-choose","trial_index":64,"time_elapsed":638931,"internal_node_id":"0.0-64.0"},{"result":126,"points":2,"place":1,"phase":0,"sequence":45,"prices":[150,175,166,251,170,196,126,145,105,201],"times":[1140,972,698,654,700,723,1336],"next_num":7,"trial_type":"ticket-choose","trial_index":65,"time_elapsed":648396,"internal_node_id":"0.0-65.0"},{"result":86,"points":3,"place":0,"phase":0,"sequence":46,"prices":[86,180,130,151,170,271,145,191,220,160],"times":[1188],"next_num":1,"trial_type":"ticket-choose","trial_index":66,"time_elapsed":651555,"internal_node_id":"0.0-66.0"},{"result":100,"points":3,"place":0,"phase":0,"sequence":47,"prices":[146,171,120,245,165,191,160,140,100,196],"times":[844,832,1398,560,567,660,677,1407,949],"next_num":9,"trial_type":"ticket-choose","trial_index":67,"time_elapsed":663162,"internal_node_id":"0.0-67.0"},{"result":111,"points":3,"place":0,"phase":0,"sequence":48,"prices":[111,231,131,146,171,295,141,241,271,150],"times":[1572],"next_num":1,"trial_type":"ticket-choose","trial_index":68,"time_elapsed":666714,"internal_node_id":"0.0-68.0"},{"result":130,"points":3,"place":0,"phase":0,"sequence":49,"prices":[185,175,276,221,130,141,171,216,235,165],"times":[1072,840,794,1043,1079],"next_num":5,"trial_type":"ticket-choose","trial_index":69,"time_elapsed":674573,"internal_node_id":"0.0-69.0"},{"responses":[{"value":2,"offby":1,"category":"$30 - $75","category_index":0},{"value":4,"offby":2,"category":"$76 - $120","category_index":1},{"value":5,"offby":1,"category":"$121 - $165","category_index":2},{"value":5,"offby":-1,"category":"$166 - $210","category_index":3},{"value":3,"offby":-3,"category":"$211 - $255","category_index":4},{"value":1,"offby":0,"category":"$256 - $300","category_index":5},{"value":0,"offby":0,"category":"$301 - $345","category_index":6}],"phase":0,"number":1,"trial_type":"bar-choose","trial_index":70,"time_elapsed":710128,"internal_node_id":"0.0-70.0"},{"rt":19838,"url":"\/tickets\/utils\/start2.html","trial_type":"html","trial_index":71,"time_elapsed":731160,"internal_node_id":"0.0-71.0"},{"trial_type":"number-animation","trial_index":72,"time_elapsed":742805,"internal_node_id":"0.0-72.0"},{"phase":1,"sequence":0,"avg":180,"response":175,"trial_type":"training_avg","trial_index":73,"time_elapsed":750396,"internal_node_id":"0.0-73.0"},{"trial_type":"number-animation","trial_index":74,"time_elapsed":760741,"internal_node_id":"0.0-74.0"},{"phase":1,"sequence":1,"avg":178,"response":177,"trial_type":"training_avg","trial_index":75,"time_elapsed":765927,"internal_node_id":"0.0-75.0"},{"trial_type":"number-animation","trial_index":76,"time_elapsed":775449,"internal_node_id":"0.0-76.0"},{"phase":1,"sequence":2,"avg":176,"response":174,"trial_type":"training_avg","trial_index":77,"time_elapsed":781539,"internal_node_id":"0.0-77.0"},{"trial_type":"number-animation","trial_index":78,"time_elapsed":790711,"internal_node_id":"0.0-78.0"},{"phase":1,"sequence":3,"avg":178,"response":178,"trial_type":"training_avg","trial_index":79,"time_elapsed":795997,"internal_node_id":"0.0-79.0"},{"trial_type":"number-animation","trial_index":80,"time_elapsed":804243,"internal_node_id":"0.0-80.0"},{"phase":1,"sequence":4,"avg":179,"response":179,"trial_type":"training_avg","trial_index":81,"time_elapsed":809056,"internal_node_id":"0.0-81.0"},{"responses":[{"value":0,"offby":0,"category":"$140 - $250","category_index":0},{"value":0,"offby":0,"category":"$151 - $160","category_index":1},{"value":3,"offby":-1,"category":"$161 - $170","category_index":2},{"value":12,"offby":6,"category":"$171 - $180","category_index":3},{"value":4,"offby":-3,"category":"$181 - $190","category_index":4},{"value":1,"offby":-2,"category":"$191 - $200","category_index":5},{"value":0,"offby":0,"category":"$201 - $210","category_index":6}],"phase":1,"number":0,"trial_type":"bar-choose","trial_index":82,"time_elapsed":848642,"internal_node_id":"0.0-82.0"},{"rt":16860,"url":"\/tickets\/utils\/testing2.html","trial_type":"html","trial_index":83,"time_elapsed":866648,"internal_node_id":"0.0-83.0"},{"phase":1,"order":[21,27,4,9,32,45,47,12,44,46,3,16,43,17,26,34,25,37,40,28,8,33,30,11,19,13,2,23,7,5,15,1,42,31,48,39,20,0,35,41,22,14,36,49,10,6,24,18,29,38],"trial_type":"store_order","trial_index":84,"time_elapsed":867651,"internal_node_id":"0.0-84.0"},{"result":169,"points":2,"place":1,"phase":1,"sequence":0,"prices":[175,179,177,193,178,182,169,172,164,183],"times":[2149,597,690,670,925,972,942],"next_num":7,"trial_type":"ticket-choose","trial_index":85,"time_elapsed":878067,"internal_node_id":"0.0-85.0"},{"result":168,"points":2,"place":1,"phase":1,"sequence":1,"prices":[173,178,168,193,177,182,176,172,164,183],"times":[933,606,956],"next_num":3,"trial_type":"ticket-choose","trial_index":86,"time_elapsed":882882,"internal_node_id":"0.0-86.0"},{"result":159,"points":3,"place":0,"phase":1,"sequence":2,"prices":[159,178,170,174,176,194,173,182,185,175],"times":[2481],"next_num":1,"trial_type":"ticket-choose","trial_index":87,"time_elapsed":887369,"internal_node_id":"0.0-87.0"},{"result":166,"points":3,"place":0,"phase":1,"sequence":3,"prices":[166,190,170,173,178,203,172,192,198,174],"times":[1118],"next_num":1,"trial_type":"ticket-choose","trial_index":88,"time_elapsed":890416,"internal_node_id":"0.0-88.0"},{"result":170,"points":3,"place":0,"phase":1,"sequence":4,"prices":[181,179,199,188,170,172,178,187,191,177],"times":[1143,740,621,745,911],"next_num":5,"trial_type":"ticket-choose","trial_index":89,"time_elapsed":897317,"internal_node_id":"0.0-89.0"},{"result":166,"points":3,"place":0,"phase":1,"sequence":5,"prices":[175,180,170,195,179,184,178,174,166,185],"times":[1085,657,1345,622,637,582,802,775,839],"next_num":9,"trial_type":"ticket-choose","trial_index":90,"time_elapsed":908376,"internal_node_id":"0.0-90.0"},{"result":173,"points":1,"place":3,"phase":1,"sequence":6,"prices":[181,175,182,168,183,173,153,170,193,179],"times":[880,371,415,420,543,1469],"next_num":6,"trial_type":"ticket-choose","trial_index":91,"time_elapsed":915455,"internal_node_id":"0.0-91.0"},{"result":165,"points":3,"place":0,"phase":1,"sequence":7,"prices":[180,165,177,193,186,196,187,169,171,182],"times":[1018,971],"next_num":2,"trial_type":"ticket-choose","trial_index":92,"time_elapsed":919536,"internal_node_id":"0.0-92.0"},{"result":161,"points":3,"place":0,"phase":1,"sequence":8,"prices":[161,180,170,174,178,198,173,182,188,176],"times":[1531],"next_num":1,"trial_type":"ticket-choose","trial_index":93,"time_elapsed":922859,"internal_node_id":"0.0-93.0"},{"result":168,"points":2,"place":1,"phase":1,"sequence":9,"prices":[174,178,168,192,177,181,176,171,163,182],"times":[988,576,925],"next_num":3,"trial_type":"ticket-choose","trial_index":94,"time_elapsed":927683,"internal_node_id":"0.0-94.0"},{"result":165,"points":3,"place":0,"phase":1,"sequence":10,"prices":[175,189,193,170,179,165,180,186,177,184],"times":[623,589,612,567,605,839],"next_num":6,"trial_type":"ticket-choose","trial_index":95,"time_elapsed":934463,"internal_node_id":"0.0-95.0"},{"result":169,"points":2,"place":1,"phase":1,"sequence":11,"prices":[174,179,177,194,178,183,169,173,165,184],"times":[740,544,598,568,567,682,1223],"next_num":7,"trial_type":"ticket-choose","trial_index":96,"time_elapsed":942483,"internal_node_id":"0.0-96.0"},{"result":166,"points":3,"place":0,"phase":1,"sequence":12,"prices":[179,186,197,201,166,187,188,193,190,177],"times":[611,350,537,644,778],"next_num":5,"trial_type":"ticket-choose","trial_index":97,"time_elapsed":948409,"internal_node_id":"0.0-97.0"},{"result":165,"points":3,"place":0,"phase":1,"sequence":13,"prices":[165,187,173,177,186,196,176,191,192,181],"times":[903],"next_num":1,"trial_type":"ticket-choose","trial_index":98,"time_elapsed":951078,"internal_node_id":"0.0-98.0"},{"result":170,"points":1,"place":3,"phase":1,"sequence":14,"prices":[188,179,154,183,173,170,177,160,169,175],"times":[863,618,691,940,654,1110],"next_num":6,"trial_type":"ticket-choose","trial_index":99,"time_elapsed":958814,"internal_node_id":"0.0-99.0"},{"result":169,"points":2,"place":1,"phase":1,"sequence":15,"prices":[175,179,177,193,178,182,169,172,164,183],"times":[707,551,1400,571,639,720,925],"next_num":7,"trial_type":"ticket-choose","trial_index":100,"time_elapsed":969346,"internal_node_id":"0.0-100.0"},{"result":183,"points":1,"place":4,"phase":1,"sequence":16,"prices":[168,188,171,181,184,196,180,194,195,183],"times":[847,655,1042,621,645,644,676,699,698,740],"next_num":10,"trial_type":"ticket-choose","trial_index":101,"time_elapsed":980460,"internal_node_id":"0.0-101.0"},{"result":163,"points":3,"place":0,"phase":1,"sequence":17,"prices":[163,185,165,174,181,198,173,186,187,180],"times":[919],"next_num":1,"trial_type":"ticket-choose","trial_index":102,"time_elapsed":983235,"internal_node_id":"0.0-102.0"},{"result":169,"points":2,"place":1,"phase":1,"sequence":18,"prices":[174,179,169,194,178,183,177,173,165,184],"times":[1026,374,933],"next_num":3,"trial_type":"ticket-choose","trial_index":103,"time_elapsed":987842,"internal_node_id":"0.0-103.0"},{"result":165,"points":3,"place":0,"phase":1,"sequence":19,"prices":[176,180,170,194,179,183,178,173,165,184],"times":[735,498,530,549,746,593,583,615,846],"next_num":9,"trial_type":"ticket-choose","trial_index":104,"time_elapsed":997229,"internal_node_id":"0.0-104.0"},{"result":170,"points":2,"place":1,"phase":1,"sequence":20,"prices":[176,180,178,194,179,183,170,173,165,184],"times":[753,528,536,607,575,592,1042],"next_num":7,"trial_type":"ticket-choose","trial_index":105,"time_elapsed":1004951,"internal_node_id":"0.0-105.0"},{"result":166,"points":3,"place":0,"phase":1,"sequence":21,"prices":[175,180,170,195,179,184,178,174,166,185],"times":[640,564,576,607,606,580,556,568,799],"next_num":9,"trial_type":"ticket-choose","trial_index":106,"time_elapsed":1014108,"internal_node_id":"0.0-106.0"},{"result":187,"points":0,"place":7,"phase":1,"sequence":22,"prices":[193,173,175,182,179,198,181,171,176,187],"times":[1022,342,391,511,544,626,592,590,834,947],"next_num":10,"trial_type":"ticket-choose","trial_index":107,"time_elapsed":1024315,"internal_node_id":"0.0-107.0"},{"result":173,"points":1,"place":2,"phase":1,"sequence":23,"prices":[174,179,169,194,178,183,177,173,165,184],"times":[1119,585,1152,909,1042,667,569,864],"next_num":8,"trial_type":"ticket-choose","trial_index":108,"time_elapsed":1034540,"internal_node_id":"0.0-108.0"},{"result":167,"points":3,"place":0,"phase":1,"sequence":24,"prices":[179,174,199,178,196,167,170,184,177,190],"times":[635,488,629,620,677,957],"next_num":6,"trial_type":"ticket-choose","trial_index":109,"time_elapsed":1041733,"internal_node_id":"0.0-109.0"},{"result":156,"points":3,"place":0,"phase":1,"sequence":25,"prices":[188,191,179,157,181,164,166,156,175,182],"times":[1601,754,686,1135,2572,681,613,927],"next_num":8,"trial_type":"ticket-choose","trial_index":110,"time_elapsed":1054134,"internal_node_id":"0.0-110.0"},{"result":168,"points":2,"place":1,"phase":1,"sequence":26,"prices":[173,178,176,193,177,182,168,172,164,183],"times":[915,559,522,560,659,608,1009],"next_num":7,"trial_type":"ticket-choose","trial_index":111,"time_elapsed":1062130,"internal_node_id":"0.0-111.0"},{"result":157,"points":3,"place":0,"phase":1,"sequence":27,"prices":[157,184,163,174,181,190,168,187,189,177],"times":[813],"next_num":1,"trial_type":"ticket-choose","trial_index":112,"time_elapsed":1064798,"internal_node_id":"0.0-112.0"},{"result":168,"points":2,"place":1,"phase":1,"sequence":28,"prices":[173,178,176,193,177,182,168,172,164,183],"times":[752,537,574,616,1166,607,878],"next_num":7,"trial_type":"ticket-choose","trial_index":113,"time_elapsed":1073018,"internal_node_id":"0.0-113.0"},{"result":160,"points":3,"place":0,"phase":1,"sequence":29,"prices":[160,185,170,174,182,196,173,186,194,177],"times":[1323],"next_num":1,"trial_type":"ticket-choose","trial_index":114,"time_elapsed":1076868,"internal_node_id":"0.0-114.0"},{"result":168,"points":2,"place":1,"phase":1,"sequence":30,"prices":[174,178,176,192,177,181,168,171,163,182],"times":[980,510,654,713,637,595,879],"next_num":7,"trial_type":"ticket-choose","trial_index":115,"time_elapsed":1084811,"internal_node_id":"0.0-115.0"},{"result":160,"points":3,"place":0,"phase":1,"sequence":31,"prices":[175,193,175,160,180,170,175,205,177,167],"times":[702,566,1057,863],"next_num":4,"trial_type":"ticket-choose","trial_index":116,"time_elapsed":1090504,"internal_node_id":"0.0-116.0"},{"result":181,"points":0,"place":5,"phase":1,"sequence":32,"prices":[180,175,173,177,191,190,184,196,174,181],"times":[1564,437,728,1238,769,597,614,599,605,599],"next_num":10,"trial_type":"ticket-choose","trial_index":117,"time_elapsed":1101939,"internal_node_id":"0.0-117.0"},{"result":169,"points":1,"place":2,"phase":1,"sequence":33,"prices":[189,185,169,168,167,171,180,173,174,188],"times":[707,611,865],"next_num":3,"trial_type":"ticket-choose","trial_index":118,"time_elapsed":1106473,"internal_node_id":"0.0-118.0"},{"result":171,"points":1,"place":2,"phase":1,"sequence":34,"prices":[195,177,197,179,171,173,175,156,163,204],"times":[908,994,523,620,956],"next_num":5,"trial_type":"ticket-choose","trial_index":119,"time_elapsed":1113168,"internal_node_id":"0.0-119.0"},{"result":162,"points":3,"place":0,"phase":1,"sequence":35,"prices":[179,174,172,162,202,184,165,197,185,169],"times":[661,600,295,938],"next_num":4,"trial_type":"ticket-choose","trial_index":120,"time_elapsed":1118122,"internal_node_id":"0.0-120.0"},{"result":168,"points":2,"place":1,"phase":1,"sequence":36,"prices":[173,178,168,193,177,182,176,172,164,183],"times":[881,551,1962],"next_num":3,"trial_type":"ticket-choose","trial_index":121,"time_elapsed":1124073,"internal_node_id":"0.0-121.0"},{"result":168,"points":2,"place":1,"phase":1,"sequence":37,"prices":[174,178,176,192,177,181,168,171,163,182],"times":[936,536,589,623,574,919,939],"next_num":7,"trial_type":"ticket-choose","trial_index":122,"time_elapsed":1132317,"internal_node_id":"0.0-122.0"},{"result":164,"points":3,"place":0,"phase":1,"sequence":38,"prices":[175,179,169,193,178,182,177,172,164,183],"times":[951,490,481,739,588,591,622,661,1008],"next_num":9,"trial_type":"ticket-choose","trial_index":123,"time_elapsed":1142228,"internal_node_id":"0.0-123.0"},{"result":165,"points":3,"place":0,"phase":1,"sequence":39,"prices":[176,180,178,194,179,183,170,173,165,184],"times":[1250,418,551,481,537,682,614,582,1086],"next_num":9,"trial_type":"ticket-choose","trial_index":124,"time_elapsed":1152228,"internal_node_id":"0.0-124.0"},{"result":175,"points":1,"place":4,"phase":1,"sequence":40,"prices":[171,180,172,174,179,188,173,183,186,175],"times":[720,374,324,544,585,611,589,583,487,1090],"next_num":10,"trial_type":"ticket-choose","trial_index":125,"time_elapsed":1161919,"internal_node_id":"0.0-125.0"},{"result":164,"points":3,"place":0,"phase":1,"sequence":41,"prices":[175,179,169,193,178,182,177,172,164,183],"times":[897,352,347,552,280,645,543,584,930],"next_num":9,"trial_type":"ticket-choose","trial_index":126,"time_elapsed":1170537,"internal_node_id":"0.0-126.0"},{"result":166,"points":3,"place":0,"phase":1,"sequence":42,"prices":[175,180,178,195,179,184,170,174,166,185],"times":[1017,683,250,490,543,527,591,622,946],"next_num":9,"trial_type":"ticket-choose","trial_index":127,"time_elapsed":1179987,"internal_node_id":"0.0-127.0"},{"result":170,"points":2,"place":1,"phase":1,"sequence":43,"prices":[176,180,170,194,179,183,178,173,165,184],"times":[1008,339,1152],"next_num":3,"trial_type":"ticket-choose","trial_index":128,"time_elapsed":1184676,"internal_node_id":"0.0-128.0"},{"result":166,"points":3,"place":0,"phase":1,"sequence":44,"prices":[175,180,178,195,179,184,170,174,166,185],"times":[837,427,238,686,590,591,589,685,919],"next_num":9,"trial_type":"ticket-choose","trial_index":129,"time_elapsed":1193645,"internal_node_id":"0.0-129.0"},{"result":179,"points":1,"place":4,"phase":1,"sequence":45,"prices":[170,183,172,175,180,189,174,187,188,179],"times":[2536,814,777,559,519,646,559,628,739,715],"next_num":10,"trial_type":"ticket-choose","trial_index":130,"time_elapsed":1206048,"internal_node_id":"0.0-130.0"},{"result":169,"points":2,"place":1,"phase":1,"sequence":46,"prices":[174,179,177,194,178,183,169,173,165,184],"times":[802,420,405,653,576,587,943],"next_num":7,"trial_type":"ticket-choose","trial_index":131,"time_elapsed":1213492,"internal_node_id":"0.0-131.0"},{"result":168,"points":2,"place":1,"phase":1,"sequence":47,"prices":[174,178,168,192,177,181,176,171,163,182],"times":[975,597,846],"next_num":3,"trial_type":"ticket-choose","trial_index":132,"time_elapsed":1218433,"internal_node_id":"0.0-132.0"},{"result":164,"points":1,"place":3,"phase":1,"sequence":48,"prices":[175,150,164,155,171,199,158,180,184,196],"times":[1196,954,979],"next_num":3,"trial_type":"ticket-choose","trial_index":133,"time_elapsed":1223899,"internal_node_id":"0.0-133.0"},{"result":165,"points":2,"place":1,"phase":1,"sequence":49,"prices":[181,180,191,186,165,197,159,167,194,185],"times":[1284,508,348,321,1073],"next_num":5,"trial_type":"ticket-choose","trial_index":134,"time_elapsed":1230045,"internal_node_id":"0.0-134.0"},{"responses":[{"value":0,"offby":0,"category":"$140 - $250","category_index":0},{"value":2,"offby":2,"category":"$151 - $160","category_index":1},{"value":3,"offby":-1,"category":"$161 - $170","category_index":2},{"value":5,"offby":-1,"category":"$171 - $180","category_index":3},{"value":7,"offby":0,"category":"$181 - $190","category_index":4},{"value":3,"offby":0,"category":"$191 - $200","category_index":5},{"value":0,"offby":0,"category":"$201 - $210","category_index":6}],"phase":1,"number":1,"trial_type":"bar-choose","trial_index":135,"time_elapsed":1262012,"internal_node_id":"0.0-135.0"},{"special_comment":"Nothingjumped out at me","trial_type":"special_sequence","trial_index":136,"time_elapsed":1272227,"internal_node_id":"0.0-136.0"},{"during":"Nothing","bonus":304,"trial_type":"final","trial_index":137,"time_elapsed":1298299,"internal_node_id":"0.0-137.0"}],"bonus":304}