{"start_time":"2017-02-22 10:44:15","end_time":"2017-02-22 11:17:54","points_phase0":120,"points_phase1":114,"phase_order":1,"age":36,"gender":"m","tries":1,"during":"Nothing","worker_id":"A1Y55YV1WA1TTD","assignment_id":"33ISQZVXPQFXW204QWZVORKUZBJCCW","data":[{"rt":11661,"url":"\/tickets\/utils\/consent.html","trial_type":"html","trial_index":0,"time_elapsed":11748,"internal_node_id":"0.0-0.0"},{"age":36,"gender":"m","trial_type":"age","trial_index":1,"time_elapsed":16227,"internal_node_id":"0.0-1.0"},{"worker_id":"A1Y55YV1WA1TTD","trial_type":"workerid","trial_index":2,"time_elapsed":25130,"internal_node_id":"0.0-2.0"},{"tries":1,"trial_type":"instructions_check","trial_index":3,"time_elapsed":42610,"internal_node_id":"0.0-3.0"},{"rt":16353,"url":"\/tickets\/utils\/start.html","trial_type":"html","trial_index":4,"time_elapsed":60049,"internal_node_id":"0.0-4.0"},{"trial_type":"number-animation","trial_index":5,"time_elapsed":71729,"internal_node_id":"0.0-5.0"},{"phase":0,"sequence":0,"avg":182,"response":176,"trial_type":"training_avg","trial_index":6,"time_elapsed":82089,"internal_node_id":"0.0-6.0"},{"trial_type":"number-animation","trial_index":7,"time_elapsed":89473,"internal_node_id":"0.0-7.0"},{"phase":0,"sequence":1,"avg":188,"response":185,"trial_type":"training_avg","trial_index":8,"time_elapsed":98105,"internal_node_id":"0.0-8.0"},{"trial_type":"number-animation","trial_index":9,"time_elapsed":105849,"internal_node_id":"0.0-9.0"},{"phase":0,"sequence":2,"avg":176,"response":177,"trial_type":"training_avg","trial_index":10,"time_elapsed":112833,"internal_node_id":"0.0-10.0"},{"trial_type":"number-animation","trial_index":11,"time_elapsed":120690,"internal_node_id":"0.0-11.0"},{"phase":0,"sequence":3,"avg":180,"response":183,"trial_type":"training_avg","trial_index":12,"time_elapsed":127434,"internal_node_id":"0.0-12.0"},{"trial_type":"number-animation","trial_index":13,"time_elapsed":134594,"internal_node_id":"0.0-13.0"},{"phase":0,"sequence":4,"avg":174,"response":171,"trial_type":"training_avg","trial_index":14,"time_elapsed":141282,"internal_node_id":"0.0-14.0"},{"responses":[{"value":0,"offby":-1,"category":"$90 - $120","category_index":0},{"value":4,"offby":1,"category":"$121 - $145","category_index":1},{"value":6,"offby":3,"category":"$146 - $170","category_index":2},{"value":8,"offby":2,"category":"$171 - $195","category_index":3},{"value":2,"offby":-2,"category":"$196 - $220","category_index":4},{"value":0,"offby":-2,"category":"$221 - $245","category_index":5},{"value":0,"offby":-1,"category":"$246 - $270","category_index":6}],"phase":0,"number":0,"trial_type":"bar-choose","trial_index":15,"time_elapsed":179219,"internal_node_id":"0.0-15.0"},{"rt":10835,"url":"\/tickets\/\/utils\/testing.html","trial_type":"html","trial_index":16,"time_elapsed":191122,"internal_node_id":"0.0-16.0"},{"phase":0,"order":[33,29,34,48,36,18,41,40,37,5,31,14,28,23,42,30,26,0,27,16,2,8,49,47,15,11,13,32,19,44,10,24,20,45,17,1,25,6,9,3,35,12,7,4,39,21,22,46,43,38],"trial_type":"store_order","trial_index":17,"time_elapsed":192124,"internal_node_id":"0.0-17.0"},{"result":126,"points":3,"place":0,"phase":0,"sequence":-1,"prices":[184,180,224,165,181,199,185,193,218,126],"times":[2125,543,623,495,527,927,591,640,564,2110],"next_num":10,"trial_type":"ticket-choose","trial_index":18,"time_elapsed":205570,"internal_node_id":"0.0-18.0"},{"rt":11987,"url":"\/tickets\/utils\/testing_after.html","trial_type":"html","trial_index":19,"time_elapsed":218626,"internal_node_id":"0.0-19.0"},{"result":127,"points":3,"place":0,"phase":0,"sequence":0,"prices":[169,194,154,271,178,201,176,158,236,127],"times":[1545,590,1238,990,542,541,709,1055,719,1069],"next_num":10,"trial_type":"ticket-choose","trial_index":20,"time_elapsed":233346,"internal_node_id":"0.0-20.0"},{"result":136,"points":2,"place":1,"phase":0,"sequence":1,"prices":[173,194,136,239,182,200,174,150,236,127],"times":[1368,533,1247],"next_num":3,"trial_type":"ticket-choose","trial_index":21,"time_elapsed":239322,"internal_node_id":"0.0-21.0"},{"result":127,"points":3,"place":0,"phase":0,"sequence":2,"prices":[171,192,136,265,180,194,174,152,239,127],"times":[883,516,1710,504,454,510,486,551,511,888],"next_num":10,"trial_type":"ticket-choose","trial_index":22,"time_elapsed":250210,"internal_node_id":"0.0-22.0"},{"result":133,"points":3,"place":0,"phase":0,"sequence":3,"prices":[169,191,154,268,183,197,176,155,236,133],"times":[866,415,591,375,495,550,566,742,487,823],"next_num":10,"trial_type":"ticket-choose","trial_index":23,"time_elapsed":260138,"internal_node_id":"0.0-23.0"},{"result":131,"points":2,"place":1,"phase":0,"sequence":4,"prices":[221,234,131,136,132,149,154,90,176,173],"times":[1107,413,1727],"next_num":3,"trial_type":"ticket-choose","trial_index":24,"time_elapsed":265898,"internal_node_id":"0.0-24.0"},{"result":133,"points":3,"place":0,"phase":0,"sequence":5,"prices":[168,192,154,237,182,196,176,156,235,133],"times":[735,502,406,543,511,560,606,895,414,816],"next_num":10,"trial_type":"ticket-choose","trial_index":25,"time_elapsed":275706,"internal_node_id":"0.0-25.0"},{"result":126,"points":3,"place":0,"phase":0,"sequence":6,"prices":[170,193,176,245,178,194,154,159,236,126],"times":[569,334,254,422,528,479,782,702,591,679],"next_num":10,"trial_type":"ticket-choose","trial_index":26,"time_elapsed":284770,"internal_node_id":"0.0-26.0"},{"result":126,"points":3,"place":0,"phase":0,"sequence":7,"prices":[172,191,176,272,179,194,146,152,126,235],"times":[418,535,462,422,367,286,958,557,1311],"next_num":9,"trial_type":"ticket-choose","trial_index":27,"time_elapsed":293810,"internal_node_id":"0.0-27.0"},{"result":126,"points":3,"place":0,"phase":0,"sequence":8,"prices":[170,193,146,268,178,195,172,149,126,241],"times":[490,308,326,327,303,446,479,446,1304],"next_num":9,"trial_type":"ticket-choose","trial_index":28,"time_elapsed":301745,"internal_node_id":"0.0-28.0"},{"result":131,"points":3,"place":0,"phase":0,"sequence":9,"prices":[170,190,176,251,183,192,154,157,236,131],"times":[672,335,375,421,521,461,1583,455,511,639],"next_num":10,"trial_type":"ticket-choose","trial_index":29,"time_elapsed":311497,"internal_node_id":"0.0-29.0"},{"result":128,"points":3,"place":0,"phase":0,"sequence":10,"prices":[196,221,149,164,216,167,175,128,176,181],"times":[641,430,735,414,551,541,495,1167],"next_num":8,"trial_type":"ticket-choose","trial_index":30,"time_elapsed":319785,"internal_node_id":"0.0-30.0"},{"result":117,"points":3,"place":0,"phase":0,"sequence":11,"prices":[117,161,120,147,153,259,144,191,195,149],"times":[2593],"next_num":1,"trial_type":"ticket-choose","trial_index":31,"time_elapsed":324393,"internal_node_id":"0.0-31.0"},{"result":126,"points":3,"place":0,"phase":0,"sequence":12,"prices":[168,191,146,252,183,193,172,153,126,238],"times":[562,456,900,455,511,462,550,486,967],"next_num":9,"trial_type":"ticket-choose","trial_index":32,"time_elapsed":333329,"internal_node_id":"0.0-32.0"},{"result":124,"points":3,"place":0,"phase":0,"sequence":13,"prices":[216,206,158,145,224,185,124,149,175,162],"times":[2587,405,462,630,470,519,856],"next_num":7,"trial_type":"ticket-choose","trial_index":33,"time_elapsed":342329,"internal_node_id":"0.0-33.0"},{"result":127,"points":3,"place":0,"phase":0,"sequence":14,"prices":[171,191,172,268,179,194,146,150,127,239],"times":[729,366,327,336,397,375,1105,541,823],"next_num":9,"trial_type":"ticket-choose","trial_index":34,"time_elapsed":350769,"internal_node_id":"0.0-34.0"},{"result":235,"points":0,"place":8,"phase":0,"sequence":15,"prices":[173,191,146,242,178,194,172,152,126,235],"times":[632,502,415,487,423,455,534,798,430,1831],"next_num":10,"trial_type":"ticket-choose","trial_index":35,"time_elapsed":361330,"internal_node_id":"0.0-35.0"},{"result":160,"points":1,"place":4,"phase":0,"sequence":16,"prices":[137,187,152,156,166,231,155,194,202,160],"times":[1106,407,486,550,503,486,502,501,727,1536],"next_num":10,"trial_type":"ticket-choose","trial_index":36,"time_elapsed":372234,"internal_node_id":"0.0-36.0"},{"result":192,"points":1,"place":4,"phase":0,"sequence":17,"prices":[157,205,161,175,197,254,165,210,214,192],"times":[1097,510,695,479,478,462,606,895,502,991],"next_num":10,"trial_type":"ticket-choose","trial_index":37,"time_elapsed":382730,"internal_node_id":"0.0-37.0"},{"result":136,"points":2,"place":1,"phase":0,"sequence":18,"prices":[173,191,174,270,180,193,136,153,239,129],"times":[857,486,951,606,1398,544,1239],"next_num":7,"trial_type":"ticket-choose","trial_index":38,"time_elapsed":391882,"internal_node_id":"0.0-38.0"},{"result":105,"points":3,"place":0,"phase":0,"sequence":19,"prices":[263,165,224,214,105,230,215,185,177,193],"times":[1067,910,446,447,1159],"next_num":5,"trial_type":"ticket-choose","trial_index":39,"time_elapsed":398586,"internal_node_id":"0.0-39.0"},{"result":108,"points":3,"place":0,"phase":0,"sequence":20,"prices":[155,129,164,189,210,108,187,241,174,275],"times":[1330,399,575,398,519,1167],"next_num":6,"trial_type":"ticket-choose","trial_index":40,"time_elapsed":405873,"internal_node_id":"0.0-40.0"},{"result":189,"points":1,"place":4,"phase":0,"sequence":21,"prices":[157,213,159,187,194,242,161,222,225,189],"times":[2649,438,671,422,495,526,510,478,479,861],"next_num":10,"trial_type":"ticket-choose","trial_index":41,"time_elapsed":417171,"internal_node_id":"0.0-41.0"},{"result":130,"points":2,"place":1,"phase":0,"sequence":22,"prices":[181,130,116,142,157,193,165,218,173,207],"times":[679,1023],"next_num":2,"trial_type":"ticket-choose","trial_index":42,"time_elapsed":420905,"internal_node_id":"0.0-42.0"},{"result":121,"points":3,"place":0,"phase":0,"sequence":23,"prices":[121,191,128,141,166,217,129,196,202,157],"times":[1154],"next_num":1,"trial_type":"ticket-choose","trial_index":43,"time_elapsed":423909,"internal_node_id":"0.0-43.0"},{"result":188,"points":1,"place":4,"phase":0,"sequence":24,"prices":[142,207,171,182,190,269,180,218,256,188],"times":[1124,420,479,486,484,447,479,478,455,823],"next_num":10,"trial_type":"ticket-choose","trial_index":44,"time_elapsed":433241,"internal_node_id":"0.0-44.0"},{"result":132,"points":3,"place":0,"phase":0,"sequence":25,"prices":[132,222,144,153,190,248,151,224,228,179],"times":[1138],"next_num":1,"trial_type":"ticket-choose","trial_index":45,"time_elapsed":436729,"internal_node_id":"0.0-45.0"},{"result":154,"points":2,"place":1,"phase":0,"sequence":26,"prices":[168,192,176,242,183,197,154,156,237,132],"times":[536,479,607,501,631,629,1903],"next_num":7,"trial_type":"ticket-choose","trial_index":46,"time_elapsed":445121,"internal_node_id":"0.0-46.0"},{"result":135,"points":3,"place":0,"phase":0,"sequence":27,"prices":[221,193,135,188,217,179,196,190,175,159],"times":[376,456,878],"next_num":3,"trial_type":"ticket-choose","trial_index":47,"time_elapsed":449065,"internal_node_id":"0.0-47.0"},{"result":119,"points":3,"place":0,"phase":0,"sequence":28,"prices":[198,119,169,141,195,233,136,208,177,217],"times":[599,1055],"next_num":2,"trial_type":"ticket-choose","trial_index":48,"time_elapsed":452809,"internal_node_id":"0.0-48.0"},{"result":146,"points":3,"place":0,"phase":0,"sequence":29,"prices":[156,218,212,216,191,210,275,146,174,152],"times":[969,399,438,471,512,476,486,1383],"next_num":8,"trial_type":"ticket-choose","trial_index":49,"time_elapsed":461305,"internal_node_id":"0.0-49.0"},{"result":136,"points":2,"place":1,"phase":0,"sequence":30,"prices":[172,190,136,270,179,192,174,152,237,129],"times":[927,438,1063],"next_num":3,"trial_type":"ticket-choose","trial_index":50,"time_elapsed":466089,"internal_node_id":"0.0-50.0"},{"result":124,"points":3,"place":0,"phase":0,"sequence":31,"prices":[124,220,136,165,185,234,143,225,228,179],"times":[1209],"next_num":1,"trial_type":"ticket-choose","trial_index":51,"time_elapsed":469001,"internal_node_id":"0.0-51.0"},{"result":146,"points":1,"place":2,"phase":0,"sequence":32,"prices":[186,146,191,179,152,116,140,201,172,187],"times":[471,1520],"next_num":2,"trial_type":"ticket-choose","trial_index":52,"time_elapsed":473009,"internal_node_id":"0.0-52.0"},{"result":172,"points":1,"place":4,"phase":0,"sequence":33,"prices":[135,202,150,169,183,225,160,211,220,172],"times":[1128,431,560,406,567,2176,655,614,478,655],"next_num":10,"trial_type":"ticket-choose","trial_index":53,"time_elapsed":484306,"internal_node_id":"0.0-53.0"},{"result":150,"points":3,"place":0,"phase":0,"sequence":34,"prices":[197,153,181,215,150,155,164,247,177,162],"times":[801,847,430,478,1153],"next_num":5,"trial_type":"ticket-choose","trial_index":54,"time_elapsed":490706,"internal_node_id":"0.0-54.0"},{"result":114,"points":3,"place":0,"phase":0,"sequence":35,"prices":[182,249,159,114,184,205,175,189,172,178],"times":[1113,422,1310,991],"next_num":4,"trial_type":"ticket-choose","trial_index":55,"time_elapsed":497137,"internal_node_id":"0.0-55.0"},{"result":126,"points":3,"place":0,"phase":0,"sequence":36,"prices":[169,193,154,255,178,194,176,158,239,126],"times":[1993,520,581,438,471,486,615,2798,431,584],"next_num":10,"trial_type":"ticket-choose","trial_index":56,"time_elapsed":509850,"internal_node_id":"0.0-56.0"},{"result":154,"points":2,"place":1,"phase":0,"sequence":37,"prices":[169,192,176,244,178,194,154,159,237,125],"times":[834,437,391,606,703,510,1136],"next_num":7,"trial_type":"ticket-choose","trial_index":57,"time_elapsed":517626,"internal_node_id":"0.0-57.0"},{"result":138,"points":1,"place":2,"phase":0,"sequence":38,"prices":[181,138,118,170,190,101,146,169,175,233],"times":[921,1039],"next_num":2,"trial_type":"ticket-choose","trial_index":58,"time_elapsed":522258,"internal_node_id":"0.0-58.0"},{"result":149,"points":3,"place":0,"phase":0,"sequence":39,"prices":[244,203,196,189,154,206,197,149,171,159],"times":[481,477,527,543,654,599,503,1215],"next_num":8,"trial_type":"ticket-choose","trial_index":59,"time_elapsed":530882,"internal_node_id":"0.0-59.0"},{"result":136,"points":2,"place":1,"phase":0,"sequence":40,"prices":[172,194,174,243,182,193,136,150,237,126],"times":[986,436,479,453,487,742,800],"next_num":7,"trial_type":"ticket-choose","trial_index":60,"time_elapsed":538394,"internal_node_id":"0.0-60.0"},{"result":136,"points":2,"place":1,"phase":0,"sequence":41,"prices":[171,192,136,243,182,195,174,154,236,128],"times":[1129,398,887],"next_num":3,"trial_type":"ticket-choose","trial_index":61,"time_elapsed":543282,"internal_node_id":"0.0-61.0"},{"result":124,"points":3,"place":0,"phase":0,"sequence":42,"prices":[219,183,227,124,176,161,140,129,171,201],"times":[1336,790,447,983],"next_num":4,"trial_type":"ticket-choose","trial_index":62,"time_elapsed":549322,"internal_node_id":"0.0-62.0"},{"result":125,"points":3,"place":0,"phase":0,"sequence":43,"prices":[168,191,172,240,183,193,146,151,125,238],"times":[648,302,302,446,437,453,446,520,736],"next_num":9,"trial_type":"ticket-choose","trial_index":63,"time_elapsed":557042,"internal_node_id":"0.0-63.0"},{"result":136,"points":2,"place":1,"phase":0,"sequence":44,"prices":[170,192,174,242,181,196,136,153,236,128],"times":[632,558,839,438,431,422,935],"next_num":7,"trial_type":"ticket-choose","trial_index":64,"time_elapsed":564586,"internal_node_id":"0.0-64.0"},{"result":128,"points":3,"place":0,"phase":0,"sequence":45,"prices":[171,195,172,242,179,196,146,150,128,235],"times":[640,262,557,1566,494,415,863,495,847],"next_num":9,"trial_type":"ticket-choose","trial_index":65,"time_elapsed":574434,"internal_node_id":"0.0-65.0"},{"result":196,"points":1,"place":4,"phase":0,"sequence":46,"prices":[143,206,153,194,201,267,168,208,210,196],"times":[897,302,535,446,422,702,566,534,526,694],"next_num":10,"trial_type":"ticket-choose","trial_index":66,"time_elapsed":583866,"internal_node_id":"0.0-66.0"},{"result":136,"points":3,"place":0,"phase":0,"sequence":47,"prices":[240,188,273,207,250,136,217,170,171,236],"times":[641,453,422,414,471,911],"next_num":6,"trial_type":"ticket-choose","trial_index":67,"time_elapsed":590050,"internal_node_id":"0.0-67.0"},{"result":136,"points":2,"place":1,"phase":0,"sequence":48,"prices":[169,192,174,246,180,195,136,152,238,126],"times":[713,358,494,423,455,503,783],"next_num":7,"trial_type":"ticket-choose","trial_index":68,"time_elapsed":596857,"internal_node_id":"0.0-68.0"},{"result":129,"points":3,"place":0,"phase":0,"sequence":49,"prices":[169,193,146,237,180,196,172,150,129,236],"times":[489,351,398,343,350,631,566,582,814],"next_num":9,"trial_type":"ticket-choose","trial_index":69,"time_elapsed":605330,"internal_node_id":"0.0-69.0"},{"responses":[{"value":0,"offby":-1,"category":"$90 - $120","category_index":0},{"value":4,"offby":1,"category":"$121 - $145","category_index":1},{"value":4,"offby":1,"category":"$146 - $170","category_index":2},{"value":5,"offby":-1,"category":"$171 - $195","category_index":3},{"value":7,"offby":3,"category":"$196 - $220","category_index":4},{"value":0,"offby":-2,"category":"$221 - $245","category_index":5},{"value":0,"offby":-1,"category":"$246 - $270","category_index":6}],"phase":0,"number":1,"trial_type":"bar-choose","trial_index":70,"time_elapsed":627427,"internal_node_id":"0.0-70.0"},{"rt":6113,"url":"\/tickets\/utils\/start2.html","trial_type":"html","trial_index":71,"time_elapsed":635234,"internal_node_id":"0.0-71.0"},{"trial_type":"number-animation","trial_index":72,"time_elapsed":643377,"internal_node_id":"0.0-72.0"},{"phase":1,"sequence":0,"avg":181,"response":175,"trial_type":"training_avg","trial_index":73,"time_elapsed":649738,"internal_node_id":"0.0-73.0"},{"trial_type":"number-animation","trial_index":74,"time_elapsed":658826,"internal_node_id":"0.0-74.0"},{"phase":1,"sequence":1,"avg":188,"response":172,"trial_type":"training_avg","trial_index":75,"time_elapsed":664794,"internal_node_id":"0.0-75.0"},{"trial_type":"number-animation","trial_index":76,"time_elapsed":671202,"internal_node_id":"0.0-76.0"},{"phase":1,"sequence":2,"avg":188,"response":184,"trial_type":"training_avg","trial_index":77,"time_elapsed":677186,"internal_node_id":"0.0-77.0"},{"trial_type":"number-animation","trial_index":78,"time_elapsed":683345,"internal_node_id":"0.0-78.0"},{"phase":1,"sequence":3,"avg":177,"response":180,"trial_type":"training_avg","trial_index":79,"time_elapsed":689082,"internal_node_id":"0.0-79.0"},{"trial_type":"number-animation","trial_index":80,"time_elapsed":695010,"internal_node_id":"0.0-80.0"},{"phase":1,"sequence":4,"avg":182,"response":169,"trial_type":"training_avg","trial_index":81,"time_elapsed":699722,"internal_node_id":"0.0-81.0"},{"responses":[{"value":0,"offby":0,"category":"$106 - $134","category_index":0},{"value":2,"offby":1,"category":"$135 - $150","category_index":1},{"value":4,"offby":1,"category":"$151 - $165","category_index":2},{"value":7,"offby":1,"category":"$166 - $180","category_index":3},{"value":5,"offby":-1,"category":"$181 - $195","category_index":4},{"value":1,"offby":-2,"category":"$196 - $210","category_index":5},{"value":1,"offby":0,"category":"$211 - $225","category_index":6}],"phase":1,"number":0,"trial_type":"bar-choose","trial_index":82,"time_elapsed":722914,"internal_node_id":"0.0-82.0"},{"rt":832418,"url":"\/tickets\/utils\/testing2.html","trial_type":"html","trial_index":83,"time_elapsed":1556417,"internal_node_id":"0.0-83.0"},{"phase":1,"order":[11,18,16,9,41,8,15,4,3,13,36,31,2,37,7,0,33,27,23,42,35,28,34,29,24,25,12,43,40,38,19,26,49,30,39,48,10,14,44,45,22,17,47,6,21,5,32,46,20,1],"trial_type":"store_order","trial_index":84,"time_elapsed":1557418,"internal_node_id":"0.0-84.0"},{"result":170,"points":1,"place":4,"phase":1,"sequence":0,"prices":[159,183,166,168,173,205,167,187,191,170],"times":[11153,445,422,446,455,416,406,518,447,584],"next_num":10,"trial_type":"ticket-choose","trial_index":85,"time_elapsed":1579305,"internal_node_id":"0.0-85.0"},{"result":150,"points":3,"place":0,"phase":1,"sequence":1,"prices":[150,185,154,161,173,199,155,188,191,168],"times":[3208],"next_num":1,"trial_type":"ticket-choose","trial_index":86,"time_elapsed":1584936,"internal_node_id":"0.0-86.0"},{"result":155,"points":2,"place":1,"phase":1,"sequence":2,"prices":[181,155,148,161,168,187,172,199,176,194],"times":[543,855],"next_num":2,"trial_type":"ticket-choose","trial_index":87,"time_elapsed":1588304,"internal_node_id":"0.0-87.0"},{"result":179,"points":1,"place":4,"phase":1,"sequence":3,"prices":[181,215,169,147,182,193,177,184,176,179],"times":[321,407,367,447,503,502,448,502,487,686],"next_num":10,"trial_type":"ticket-choose","trial_index":88,"time_elapsed":1596768,"internal_node_id":"0.0-88.0"},{"result":154,"points":3,"place":0,"phase":1,"sequence":4,"prices":[188,200,165,172,198,174,177,154,177,180],"times":[1968,478,551,542,503,575,472,814],"next_num":8,"trial_type":"ticket-choose","trial_index":89,"time_elapsed":1606017,"internal_node_id":"0.0-89.0"},{"result":158,"points":2,"place":1,"phase":1,"sequence":5,"prices":[176,187,158,210,181,187,177,165,208,153],"times":[703,295,768],"next_num":3,"trial_type":"ticket-choose","trial_index":90,"time_elapsed":1610040,"internal_node_id":"0.0-90.0"},{"result":155,"points":2,"place":1,"phase":1,"sequence":6,"prices":[201,207,155,158,156,165,167,135,178,177],"times":[488,367,808],"next_num":3,"trial_type":"ticket-choose","trial_index":91,"time_elapsed":1613817,"internal_node_id":"0.0-91.0"},{"result":158,"points":2,"place":1,"phase":1,"sequence":7,"prices":[189,150,175,160,188,207,158,194,178,199],"times":[432,349,479,479,501,503,881],"next_num":7,"trial_type":"ticket-choose","trial_index":92,"time_elapsed":1620544,"internal_node_id":"0.0-92.0"},{"result":152,"points":3,"place":0,"phase":1,"sequence":8,"prices":[198,193,169,163,202,182,152,164,177,171],"times":[543,543,726,544,608,518,679],"next_num":7,"trial_type":"ticket-choose","trial_index":93,"time_elapsed":1627720,"internal_node_id":"0.0-93.0"},{"result":154,"points":3,"place":0,"phase":1,"sequence":9,"prices":[175,187,176,209,180,188,163,165,154,208],"times":[2185,2055,599,727,520,1198,1111,727,736],"next_num":9,"trial_type":"ticket-choose","trial_index":94,"time_elapsed":1641202,"internal_node_id":"0.0-94.0"},{"result":148,"points":3,"place":0,"phase":1,"sequence":10,"prices":[148,171,150,163,167,220,162,186,187,165],"times":[1815],"next_num":1,"trial_type":"ticket-choose","trial_index":95,"time_elapsed":1645000,"internal_node_id":"0.0-95.0"},{"result":153,"points":3,"place":0,"phase":1,"sequence":11,"prices":[175,186,178,212,179,187,167,169,209,153],"times":[514,494,582,511,488,439,486,623,752,551],"next_num":10,"trial_type":"ticket-choose","trial_index":96,"time_elapsed":1655377,"internal_node_id":"0.0-96.0"},{"result":185,"points":1,"place":4,"phase":1,"sequence":12,"prices":[169,196,170,184,187,211,171,201,202,185],"times":[5545,1558,471,615,511,679,575,606,503,615],"next_num":10,"trial_type":"ticket-choose","trial_index":97,"time_elapsed":1671072,"internal_node_id":"0.0-97.0"},{"result":158,"points":2,"place":1,"phase":1,"sequence":13,"prices":[176,185,177,218,180,186,158,166,209,154],"times":[1074,470,5718,591,431,486,783],"next_num":7,"trial_type":"ticket-choose","trial_index":98,"time_elapsed":1683760,"internal_node_id":"0.0-98.0"},{"result":143,"points":3,"place":0,"phase":1,"sequence":14,"prices":[222,173,202,197,143,205,198,183,178,186],"times":[962,526,358,454,728],"next_num":5,"trial_type":"ticket-choose","trial_index":99,"time_elapsed":1689640,"internal_node_id":"0.0-99.0"},{"result":157,"points":3,"place":0,"phase":1,"sequence":15,"prices":[157,191,165,175,182,203,170,195,200,176],"times":[1841],"next_num":1,"trial_type":"ticket-choose","trial_index":100,"time_elapsed":1693432,"internal_node_id":"0.0-100.0"},{"result":152,"points":3,"place":0,"phase":1,"sequence":16,"prices":[152,200,158,173,182,207,161,202,204,180],"times":[1081],"next_num":1,"trial_type":"ticket-choose","trial_index":101,"time_elapsed":1696401,"internal_node_id":"0.0-101.0"},{"result":153,"points":3,"place":0,"phase":1,"sequence":17,"prices":[176,186,163,214,179,187,176,166,153,208],"times":[498,477,511,463,438,479,495,510,1048],"next_num":9,"trial_type":"ticket-choose","trial_index":102,"time_elapsed":1704681,"internal_node_id":"0.0-102.0"},{"result":186,"points":1,"place":4,"phase":1,"sequence":18,"prices":[168,192,171,178,188,217,172,195,197,186],"times":[450,461,464,421,510,478,566,800,462,895],"next_num":10,"trial_type":"ticket-choose","trial_index":103,"time_elapsed":1714041,"internal_node_id":"0.0-103.0"},{"result":158,"points":2,"place":1,"phase":1,"sequence":19,"prices":[175,186,158,211,180,187,177,166,209,153],"times":[961,488,677],"next_num":3,"trial_type":"ticket-choose","trial_index":104,"time_elapsed":1718555,"internal_node_id":"0.0-104.0"},{"result":153,"points":3,"place":0,"phase":1,"sequence":20,"prices":[174,186,163,212,181,187,176,166,153,209],"times":[390,408,511,447,286,495,535,511,734],"next_num":9,"trial_type":"ticket-choose","trial_index":105,"time_elapsed":1726409,"internal_node_id":"0.0-105.0"},{"result":156,"points":3,"place":0,"phase":1,"sequence":21,"prices":[174,186,167,211,181,188,178,168,208,156],"times":[530,526,1398,511,415,391,456,1030,503,462],"next_num":10,"trial_type":"ticket-choose","trial_index":106,"time_elapsed":1736361,"internal_node_id":"0.0-106.0"},{"result":148,"points":3,"place":0,"phase":1,"sequence":22,"prices":[183,163,185,180,166,148,160,186,176,184],"times":[408,1257,318,223,695,1015],"next_num":6,"trial_type":"ticket-choose","trial_index":107,"time_elapsed":1743226,"internal_node_id":"0.0-107.0"},{"result":152,"points":3,"place":0,"phase":1,"sequence":23,"prices":[200,181,203,152,175,171,160,154,176,191],"times":[1129,574,654,1008],"next_num":4,"trial_type":"ticket-choose","trial_index":108,"time_elapsed":1748993,"internal_node_id":"0.0-108.0"},{"result":153,"points":3,"place":0,"phase":1,"sequence":24,"prices":[175,187,178,209,179,187,167,169,208,153],"times":[418,301,392,496,430,471,846,591,438,463],"next_num":10,"trial_type":"ticket-choose","trial_index":109,"time_elapsed":1757561,"internal_node_id":"0.0-109.0"},{"result":153,"points":3,"place":0,"phase":1,"sequence":25,"prices":[175,187,167,212,179,187,178,169,208,153],"times":[433,405,471,464,383,455,431,575,832,417],"next_num":10,"trial_type":"ticket-choose","trial_index":110,"time_elapsed":1766105,"internal_node_id":"0.0-110.0"},{"result":156,"points":3,"place":0,"phase":1,"sequence":26,"prices":[175,185,178,215,181,186,167,168,208,156],"times":[497,406,423,502,446,422,824,542,535,408],"next_num":10,"trial_type":"ticket-choose","trial_index":111,"time_elapsed":1774825,"internal_node_id":"0.0-111.0"},{"result":188,"points":1,"place":4,"phase":1,"sequence":27,"prices":[161,193,167,187,190,224,174,194,195,188],"times":[3034,606,439,366,590,544,717,742,446,535],"next_num":10,"trial_type":"ticket-choose","trial_index":112,"time_elapsed":1786641,"internal_node_id":"0.0-112.0"},{"result":158,"points":2,"place":1,"phase":1,"sequence":28,"prices":[176,185,158,217,180,186,177,166,209,154],"times":[802,477,816],"next_num":3,"trial_type":"ticket-choose","trial_index":113,"time_elapsed":1791041,"internal_node_id":"0.0-113.0"},{"result":207,"points":0,"place":9,"phase":1,"sequence":29,"prices":[180,159,149,175,185,141,163,174,178,207],"times":[344,361,388,510,358,374,535,855,406,511],"next_num":10,"trial_type":"ticket-choose","trial_index":114,"time_elapsed":1799369,"internal_node_id":"0.0-114.0"},{"result":153,"points":3,"place":0,"phase":1,"sequence":30,"prices":[175,186,167,225,179,187,178,169,209,153],"times":[904,495,454,481,470,479,766,655,503,639],"next_num":10,"trial_type":"ticket-choose","trial_index":115,"time_elapsed":1809113,"internal_node_id":"0.0-115.0"},{"result":184,"points":1,"place":4,"phase":1,"sequence":31,"prices":[161,193,175,181,185,224,180,199,218,184],"times":[528,1029,630,400,504,453,502,455,446,384],"next_num":10,"trial_type":"ticket-choose","trial_index":116,"time_elapsed":1818112,"internal_node_id":"0.0-116.0"},{"result":158,"points":2,"place":1,"phase":1,"sequence":32,"prices":[175,186,177,221,180,187,158,166,209,153],"times":[527,440,559,4768,493,502,768],"next_num":7,"trial_type":"ticket-choose","trial_index":117,"time_elapsed":1829200,"internal_node_id":"0.0-117.0"},{"result":170,"points":1,"place":2,"phase":1,"sequence":33,"prices":[212,192,188,184,167,193,189,164,176,170],"times":[536,700,376,397,438,503,823,784,678,728],"next_num":10,"trial_type":"ticket-choose","trial_index":118,"time_elapsed":1838890,"internal_node_id":"0.0-118.0"},{"result":158,"points":2,"place":1,"phase":1,"sequence":34,"prices":[175,186,158,209,181,188,177,167,208,154],"times":[967,407,704],"next_num":3,"trial_type":"ticket-choose","trial_index":119,"time_elapsed":1843104,"internal_node_id":"0.0-119.0"},{"result":154,"points":3,"place":0,"phase":1,"sequence":35,"prices":[175,187,163,209,180,188,176,165,154,208],"times":[864,310,503,448,598,430,702,591,767],"next_num":9,"trial_type":"ticket-choose","trial_index":120,"time_elapsed":1851760,"internal_node_id":"0.0-120.0"},{"result":156,"points":3,"place":0,"phase":1,"sequence":36,"prices":[156,201,162,166,185,214,165,202,204,179],"times":[2273],"next_num":1,"trial_type":"ticket-choose","trial_index":121,"time_elapsed":1856313,"internal_node_id":"0.0-121.0"},{"result":153,"points":3,"place":0,"phase":1,"sequence":37,"prices":[174,186,176,217,181,187,163,166,153,209],"times":[2321,1606,406,502,479,438,6400,455,1377],"next_num":9,"trial_type":"ticket-choose","trial_index":122,"time_elapsed":1874496,"internal_node_id":"0.0-122.0"},{"result":156,"points":3,"place":0,"phase":1,"sequence":38,"prices":[175,185,167,224,181,186,178,168,208,156],"times":[736,350,446,421,903,589,3864,1045,534,1064],"next_num":10,"trial_type":"ticket-choose","trial_index":123,"time_elapsed":1888344,"internal_node_id":"0.0-123.0"},{"result":210,"points":0,"place":8,"phase":1,"sequence":39,"prices":[175,186,163,211,179,187,176,165,153,210],"times":[681,231,606,560,359,263,245,441,525,511],"next_num":11,"trial_type":"ticket-choose","trial_index":124,"time_elapsed":1897168,"internal_node_id":"0.0-124.0"},{"result":154,"points":2,"place":1,"phase":1,"sequence":40,"prices":[168,154,172,185,195,144,184,211,177,227],"times":[543,840],"next_num":2,"trial_type":"ticket-choose","trial_index":125,"time_elapsed":1900688,"internal_node_id":"0.0-125.0"},{"result":156,"points":3,"place":0,"phase":1,"sequence":41,"prices":[174,186,178,217,181,188,167,168,208,156],"times":[351,382,358,495,672,357,413,463,694,440],"next_num":10,"trial_type":"ticket-choose","trial_index":126,"time_elapsed":1909128,"internal_node_id":"0.0-126.0"},{"result":153,"points":3,"place":0,"phase":1,"sequence":42,"prices":[175,186,176,224,179,187,163,165,153,210],"times":[593,334,359,502,551,455,832,668,703],"next_num":9,"trial_type":"ticket-choose","trial_index":127,"time_elapsed":1917696,"internal_node_id":"0.0-127.0"},{"result":163,"points":2,"place":1,"phase":1,"sequence":43,"prices":[176,186,176,210,179,187,163,166,153,208],"times":[360,7088,381,432,462,391,1216],"next_num":7,"trial_type":"ticket-choose","trial_index":128,"time_elapsed":1931368,"internal_node_id":"0.0-128.0"},{"result":171,"points":1,"place":3,"phase":1,"sequence":44,"prices":[189,167,180,197,165,168,172,213,178,171],"times":[512,222,375,327,327,302,494,529,549,359],"next_num":10,"trial_type":"ticket-choose","trial_index":129,"time_elapsed":1939040,"internal_node_id":"0.0-129.0"},{"result":158,"points":2,"place":1,"phase":1,"sequence":45,"prices":[175,186,177,209,181,188,158,167,208,154],"times":[896,366,343,461,446,415,791],"next_num":7,"trial_type":"ticket-choose","trial_index":130,"time_elapsed":1945944,"internal_node_id":"0.0-130.0"},{"result":158,"points":2,"place":1,"phase":1,"sequence":46,"prices":[176,187,177,225,181,187,158,165,208,153],"times":[689,285,455,543,536,869,807],"next_num":7,"trial_type":"ticket-choose","trial_index":131,"time_elapsed":1953392,"internal_node_id":"0.0-131.0"},{"result":158,"points":3,"place":0,"phase":1,"sequence":47,"prices":[210,184,226,193,215,158,199,175,176,208],"times":[616,247,350,494,542,727],"next_num":6,"trial_type":"ticket-choose","trial_index":132,"time_elapsed":1959256,"internal_node_id":"0.0-132.0"},{"result":157,"points":3,"place":0,"phase":1,"sequence":48,"prices":[201,187,157,184,198,179,188,185,178,170],"times":[791,742,783],"next_num":3,"trial_type":"ticket-choose","trial_index":133,"time_elapsed":1963848,"internal_node_id":"0.0-133.0"},{"result":166,"points":2,"place":1,"phase":1,"sequence":49,"prices":[168,199,196,198,185,195,227,163,177,166],"times":[624,245,238,295,454,424,545,742,446,519],"next_num":10,"trial_type":"ticket-choose","trial_index":134,"time_elapsed":1972248,"internal_node_id":"0.0-134.0"},{"responses":[{"value":0,"offby":0,"category":"$106 - $134","category_index":0},{"value":1,"offby":0,"category":"$135 - $150","category_index":1},{"value":4,"offby":1,"category":"$151 - $165","category_index":2},{"value":5,"offby":-1,"category":"$166 - $180","category_index":3},{"value":6,"offby":0,"category":"$181 - $195","category_index":4},{"value":4,"offby":1,"category":"$196 - $210","category_index":5},{"value":0,"offby":-1,"category":"$211 - $225","category_index":6}],"phase":1,"number":1,"trial_type":"bar-choose","trial_index":135,"time_elapsed":1987745,"internal_node_id":"0.0-135.0"},{"special_comment":"no","trial_type":"special_sequence","trial_index":136,"time_elapsed":1993057,"internal_node_id":"0.0-136.0"},{"during":"Nothing","bonus":312,"trial_type":"final","trial_index":137,"time_elapsed":2016715,"internal_node_id":"0.0-137.0"}],"bonus":312}