{"start_time":"2017-02-03 13:46:03","end_time":"2017-02-03 14:07:18","points_phase0":113,"points_phase1":116,"phase_order":1,"age":24,"gender":"m","tries":1,"during":"Nothing","worker_id":"A1YM0IWPC72J7V","assignment_id":"3IRIK4HM3BD8GLR3G5MS2RSK1RNC6L","data":[{"rt":6628,"url":"\/tickets\/utils\/consent.html","trial_type":"html","trial_index":0,"time_elapsed":6716,"internal_node_id":"0.0-0.0"},{"age":24,"gender":"m","trial_type":"age","trial_index":1,"time_elapsed":10861,"internal_node_id":"0.0-1.0"},{"worker_id":"A1YM0IWPC72J7V","trial_type":"workerid","trial_index":2,"time_elapsed":18653,"internal_node_id":"0.0-2.0"},{"tries":1,"trial_type":"instructions_check","trial_index":3,"time_elapsed":47687,"internal_node_id":"0.0-3.0"},{"rt":14487,"url":"\/tickets\/utils\/start.html","trial_type":"html","trial_index":4,"time_elapsed":63267,"internal_node_id":"0.0-4.0"},{"trial_type":"number-animation","trial_index":5,"time_elapsed":101251,"internal_node_id":"0.0-5.0"},{"phase":0,"sequence":0,"avg":184,"response":185,"trial_type":"training_avg","trial_index":6,"time_elapsed":142998,"internal_node_id":"0.0-6.0"},{"trial_type":"number-animation","trial_index":7,"time_elapsed":165699,"internal_node_id":"0.0-7.0"},{"phase":0,"sequence":1,"avg":199,"response":198,"trial_type":"training_avg","trial_index":8,"time_elapsed":189096,"internal_node_id":"0.0-8.0"},{"trial_type":"number-animation","trial_index":9,"time_elapsed":213579,"internal_node_id":"0.0-9.0"},{"phase":0,"sequence":2,"avg":199,"response":199,"trial_type":"training_avg","trial_index":10,"time_elapsed":235193,"internal_node_id":"0.0-10.0"},{"trial_type":"number-animation","trial_index":11,"time_elapsed":258947,"internal_node_id":"0.0-11.0"},{"phase":0,"sequence":3,"avg":210,"response":210,"trial_type":"training_avg","trial_index":12,"time_elapsed":281230,"internal_node_id":"0.0-12.0"},{"trial_type":"number-animation","trial_index":13,"time_elapsed":307995,"internal_node_id":"0.0-13.0"},{"phase":0,"sequence":4,"avg":202,"response":200,"trial_type":"training_avg","trial_index":14,"time_elapsed":331513,"internal_node_id":"0.0-14.0"},{"responses":[{"value":2,"offby":1,"category":"$105 - $130","category_index":0},{"value":3,"offby":1,"category":"$131 - $155","category_index":1},{"value":5,"offby":3,"category":"$156 - $180","category_index":2},{"value":4,"offby":-1,"category":"$181 - $205","category_index":3},{"value":4,"offby":-1,"category":"$206 - $230","category_index":4},{"value":1,"offby":-2,"category":"$231 - $255","category_index":5},{"value":1,"offby":-1,"category":"$256 - $280","category_index":6}],"phase":0,"number":0,"trial_type":"bar-choose","trial_index":15,"time_elapsed":388070,"internal_node_id":"0.0-15.0"},{"rt":8327,"url":"\/tickets\/\/utils\/testing.html","trial_type":"html","trial_index":16,"time_elapsed":397497,"internal_node_id":"0.0-16.0"},{"phase":0,"order":[33,34,43,39,12,47,42,29,15,24,36,40,16,5,11,4,22,8,49,19,2,23,35,6,38,28,27,30,25,45,1,17,48,41,31,46,26,3,21,20,14,32,44,0,7,13,37,10,18,9],"trial_type":"store_order","trial_index":17,"time_elapsed":398498,"internal_node_id":"0.0-17.0"},{"result":165,"points":2,"place":1,"phase":0,"sequence":-1,"times":[3763,1676,1291,1064],"next_num":4,"trial_type":"ticket-choose","trial_index":18,"time_elapsed":409254,"internal_node_id":"0.0-18.0"},{"rt":4173,"url":"\/tickets\/utils\/testing_after.html","trial_type":"html","trial_index":19,"time_elapsed":414524,"internal_node_id":"0.0-19.0"},{"result":171,"points":3,"place":0,"phase":0,"sequence":0,"times":[1190,858,625,561,1248],"next_num":5,"trial_type":"ticket-choose","trial_index":20,"time_elapsed":422515,"internal_node_id":"0.0-20.0"},{"result":148,"points":2,"place":1,"phase":0,"sequence":1,"times":[773,532,935],"next_num":3,"trial_type":"ticket-choose","trial_index":21,"time_elapsed":427626,"internal_node_id":"0.0-21.0"},{"result":154,"points":3,"place":0,"phase":0,"sequence":2,"times":[937],"next_num":1,"trial_type":"ticket-choose","trial_index":22,"time_elapsed":430602,"internal_node_id":"0.0-22.0"},{"result":162,"points":3,"place":0,"phase":0,"sequence":3,"times":[1050],"next_num":1,"trial_type":"ticket-choose","trial_index":23,"time_elapsed":433576,"internal_node_id":"0.0-23.0"},{"result":167,"points":2,"place":1,"phase":0,"sequence":4,"times":[659,556,1247,849],"next_num":4,"trial_type":"ticket-choose","trial_index":24,"time_elapsed":439358,"internal_node_id":"0.0-24.0"},{"result":157,"points":2,"place":1,"phase":0,"sequence":5,"times":[681,498,913],"next_num":3,"trial_type":"ticket-choose","trial_index":25,"time_elapsed":443664,"internal_node_id":"0.0-25.0"},{"result":161,"points":2,"place":1,"phase":0,"sequence":6,"times":[761,546,527,571,602,910],"next_num":6,"trial_type":"ticket-choose","trial_index":26,"time_elapsed":450453,"internal_node_id":"0.0-26.0"},{"result":166,"points":1,"place":2,"phase":0,"sequence":7,"times":[948,1162],"next_num":2,"trial_type":"ticket-choose","trial_index":27,"time_elapsed":454453,"internal_node_id":"0.0-27.0"},{"result":169,"points":3,"place":0,"phase":0,"sequence":8,"times":[471,589,478,486,721,540,583,876],"next_num":8,"trial_type":"ticket-choose","trial_index":28,"time_elapsed":462473,"internal_node_id":"0.0-28.0"},{"result":165,"points":2,"place":1,"phase":0,"sequence":9,"times":[839,461,828],"next_num":3,"trial_type":"ticket-choose","trial_index":29,"time_elapsed":466775,"internal_node_id":"0.0-29.0"},{"result":163,"points":3,"place":0,"phase":0,"sequence":10,"times":[880],"next_num":1,"trial_type":"ticket-choose","trial_index":30,"time_elapsed":469345,"internal_node_id":"0.0-30.0"},{"result":170,"points":2,"place":1,"phase":0,"sequence":11,"times":[541,460,464,470,456,442,1202],"next_num":7,"trial_type":"ticket-choose","trial_index":31,"time_elapsed":476387,"internal_node_id":"0.0-31.0"},{"result":153,"points":3,"place":0,"phase":0,"sequence":12,"times":[1491],"next_num":1,"trial_type":"ticket-choose","trial_index":32,"time_elapsed":479617,"internal_node_id":"0.0-32.0"},{"result":126,"points":3,"place":0,"phase":0,"sequence":13,"times":[853,828,521,483,1217],"next_num":5,"trial_type":"ticket-choose","trial_index":33,"time_elapsed":486139,"internal_node_id":"0.0-33.0"},{"result":165,"points":2,"place":1,"phase":0,"sequence":14,"times":[532,497,592,503,603,502,1187],"next_num":7,"trial_type":"ticket-choose","trial_index":34,"time_elapsed":493521,"internal_node_id":"0.0-34.0"},{"result":158,"points":3,"place":0,"phase":0,"sequence":15,"times":[781],"next_num":1,"trial_type":"ticket-choose","trial_index":35,"time_elapsed":496079,"internal_node_id":"0.0-35.0"},{"result":135,"points":3,"place":0,"phase":0,"sequence":16,"times":[635,475,603,899],"next_num":4,"trial_type":"ticket-choose","trial_index":36,"time_elapsed":500981,"internal_node_id":"0.0-36.0"},{"result":151,"points":3,"place":0,"phase":0,"sequence":17,"times":[481,945],"next_num":2,"trial_type":"ticket-choose","trial_index":37,"time_elapsed":504443,"internal_node_id":"0.0-37.0"},{"result":191,"points":2,"place":1,"phase":0,"sequence":18,"times":[552,508,484,516,503,770,925],"next_num":7,"trial_type":"ticket-choose","trial_index":38,"time_elapsed":511738,"internal_node_id":"0.0-38.0"},{"result":182,"points":2,"place":1,"phase":0,"sequence":19,"times":[589,486,487,511,497,503,881],"next_num":7,"trial_type":"ticket-choose","trial_index":39,"time_elapsed":518621,"internal_node_id":"0.0-39.0"},{"result":137,"points":3,"place":0,"phase":0,"sequence":20,"times":[806],"next_num":1,"trial_type":"ticket-choose","trial_index":40,"time_elapsed":521207,"internal_node_id":"0.0-40.0"},{"result":180,"points":2,"place":1,"phase":0,"sequence":21,"times":[628,436,1060,358,448,540,1073],"next_num":7,"trial_type":"ticket-choose","trial_index":41,"time_elapsed":528709,"internal_node_id":"0.0-41.0"},{"result":158,"points":1,"place":2,"phase":0,"sequence":22,"times":[432,814],"next_num":2,"trial_type":"ticket-choose","trial_index":42,"time_elapsed":531811,"internal_node_id":"0.0-42.0"},{"result":155,"points":3,"place":0,"phase":0,"sequence":23,"times":[500,459,1397],"next_num":3,"trial_type":"ticket-choose","trial_index":43,"time_elapsed":536377,"internal_node_id":"0.0-43.0"},{"result":145,"points":3,"place":0,"phase":0,"sequence":24,"times":[806],"next_num":1,"trial_type":"ticket-choose","trial_index":44,"time_elapsed":538931,"internal_node_id":"0.0-44.0"},{"result":116,"points":3,"place":0,"phase":0,"sequence":25,"times":[568,477,614,477,515,865],"next_num":6,"trial_type":"ticket-choose","trial_index":45,"time_elapsed":545142,"internal_node_id":"0.0-45.0"},{"result":182,"points":1,"place":2,"phase":0,"sequence":26,"times":[763,423,520,467,594,511,1819],"next_num":7,"trial_type":"ticket-choose","trial_index":46,"time_elapsed":553165,"internal_node_id":"0.0-46.0"},{"result":151,"points":2,"place":1,"phase":0,"sequence":27,"times":[545,474,824],"next_num":3,"trial_type":"ticket-choose","trial_index":47,"time_elapsed":557059,"internal_node_id":"0.0-47.0"},{"result":149,"points":2,"place":1,"phase":0,"sequence":28,"times":[545,903],"next_num":2,"trial_type":"ticket-choose","trial_index":48,"time_elapsed":560346,"internal_node_id":"0.0-48.0"},{"result":148,"points":3,"place":0,"phase":0,"sequence":29,"times":[512,477,663,526,492,696,881,759],"next_num":8,"trial_type":"ticket-choose","trial_index":49,"time_elapsed":568435,"internal_node_id":"0.0-49.0"},{"result":133,"points":3,"place":0,"phase":0,"sequence":30,"times":[496,492,1053],"next_num":3,"trial_type":"ticket-choose","trial_index":50,"time_elapsed":572543,"internal_node_id":"0.0-50.0"},{"result":212,"points":1,"place":4,"phase":0,"sequence":31,"times":[645,473,551,517,510,511,681,855,734,805],"next_num":10,"trial_type":"ticket-choose","trial_index":51,"time_elapsed":582947,"internal_node_id":"0.0-51.0"},{"result":173,"points":2,"place":1,"phase":0,"sequence":32,"times":[701,464,594,465,521,467,832],"next_num":7,"trial_type":"ticket-choose","trial_index":52,"time_elapsed":589859,"internal_node_id":"0.0-52.0"},{"result":184,"points":1,"place":2,"phase":0,"sequence":33,"times":[478,455,426,290,483,443,1437],"next_num":7,"trial_type":"ticket-choose","trial_index":53,"time_elapsed":596774,"internal_node_id":"0.0-53.0"},{"result":167,"points":1,"place":3,"phase":0,"sequence":34,"times":[675,442,874],"next_num":3,"trial_type":"ticket-choose","trial_index":54,"time_elapsed":600854,"internal_node_id":"0.0-54.0"},{"result":163,"points":1,"place":3,"phase":0,"sequence":35,"times":[419,299,445,895],"next_num":4,"trial_type":"ticket-choose","trial_index":55,"time_elapsed":605118,"internal_node_id":"0.0-55.0"},{"result":150,"points":2,"place":1,"phase":0,"sequence":36,"times":[508,1507],"next_num":2,"trial_type":"ticket-choose","trial_index":56,"time_elapsed":608945,"internal_node_id":"0.0-56.0"},{"result":182,"points":1,"place":3,"phase":0,"sequence":37,"times":[643,541,611,496,479,543,774,1149],"next_num":8,"trial_type":"ticket-choose","trial_index":57,"time_elapsed":617612,"internal_node_id":"0.0-57.0"},{"result":140,"points":3,"place":0,"phase":0,"sequence":38,"times":[468,793],"next_num":2,"trial_type":"ticket-choose","trial_index":58,"time_elapsed":620687,"internal_node_id":"0.0-58.0"},{"result":140,"points":2,"place":1,"phase":0,"sequence":39,"times":[509,478,530,482,643,497,831],"next_num":7,"trial_type":"ticket-choose","trial_index":59,"time_elapsed":627537,"internal_node_id":"0.0-59.0"},{"result":134,"points":3,"place":0,"phase":0,"sequence":40,"times":[614,489,603,406,632,428,665,723,562,482],"next_num":10,"trial_type":"ticket-choose","trial_index":60,"time_elapsed":636652,"internal_node_id":"0.0-60.0"},{"result":156,"points":3,"place":0,"phase":0,"sequence":41,"times":[525,455,432,472,491,828],"next_num":6,"trial_type":"ticket-choose","trial_index":61,"time_elapsed":642571,"internal_node_id":"0.0-61.0"},{"result":140,"points":2,"place":1,"phase":0,"sequence":42,"times":[673,461,781],"next_num":3,"trial_type":"ticket-choose","trial_index":62,"time_elapsed":646517,"internal_node_id":"0.0-62.0"},{"result":147,"points":3,"place":0,"phase":0,"sequence":43,"times":[382,434,672,514,446,460,490,508,711,522],"next_num":10,"trial_type":"ticket-choose","trial_index":63,"time_elapsed":655133,"internal_node_id":"0.0-63.0"},{"result":161,"points":1,"place":2,"phase":0,"sequence":44,"times":[646,413,408,473,1427,561,719],"next_num":7,"trial_type":"ticket-choose","trial_index":64,"time_elapsed":662607,"internal_node_id":"0.0-64.0"},{"result":139,"points":3,"place":0,"phase":0,"sequence":45,"times":[792,409,646,569,558,501,593,668,762],"next_num":9,"trial_type":"ticket-choose","trial_index":65,"time_elapsed":671843,"internal_node_id":"0.0-65.0"},{"result":142,"points":3,"place":0,"phase":0,"sequence":46,"times":[585,470,447,477,572,591,698,632,649,504],"next_num":10,"trial_type":"ticket-choose","trial_index":66,"time_elapsed":680970,"internal_node_id":"0.0-66.0"},{"result":167,"points":3,"place":0,"phase":0,"sequence":47,"times":[738,489,571,523,536,574,600,886],"next_num":8,"trial_type":"ticket-choose","trial_index":67,"time_elapsed":689008,"internal_node_id":"0.0-67.0"},{"result":173,"points":2,"place":1,"phase":0,"sequence":48,"times":[598,449,1055],"next_num":3,"trial_type":"ticket-choose","trial_index":68,"time_elapsed":693334,"internal_node_id":"0.0-68.0"},{"result":162,"points":1,"place":3,"phase":0,"sequence":49,"times":[396,435,1035],"next_num":3,"trial_type":"ticket-choose","trial_index":69,"time_elapsed":697450,"internal_node_id":"0.0-69.0"},{"responses":[{"value":1,"offby":0,"category":"$105 - $130","category_index":0},{"value":4,"offby":2,"category":"$131 - $155","category_index":1},{"value":4,"offby":2,"category":"$156 - $180","category_index":2},{"value":5,"offby":0,"category":"$181 - $205","category_index":3},{"value":4,"offby":-1,"category":"$206 - $230","category_index":4},{"value":1,"offby":-2,"category":"$231 - $255","category_index":5},{"value":1,"offby":-1,"category":"$256 - $280","category_index":6}],"phase":0,"number":1,"trial_type":"bar-choose","trial_index":70,"time_elapsed":721579,"internal_node_id":"0.0-70.0"},{"rt":8412,"url":"\/tickets\/utils\/start2.html","trial_type":"html","trial_index":71,"time_elapsed":731181,"internal_node_id":"0.0-71.0"},{"trial_type":"number-animation","trial_index":72,"time_elapsed":753556,"internal_node_id":"0.0-72.0"},{"phase":1,"sequence":0,"avg":181,"response":181,"trial_type":"training_avg","trial_index":73,"time_elapsed":773749,"internal_node_id":"0.0-73.0"},{"trial_type":"number-animation","trial_index":74,"time_elapsed":794999,"internal_node_id":"0.0-74.0"},{"phase":1,"sequence":1,"avg":188,"response":190,"trial_type":"training_avg","trial_index":75,"time_elapsed":815697,"internal_node_id":"0.0-75.0"},{"trial_type":"number-animation","trial_index":76,"time_elapsed":837579,"internal_node_id":"0.0-76.0"},{"phase":1,"sequence":2,"avg":188,"response":190,"trial_type":"training_avg","trial_index":77,"time_elapsed":878247,"internal_node_id":"0.0-77.0"},{"trial_type":"number-animation","trial_index":78,"time_elapsed":898877,"internal_node_id":"0.0-78.0"},{"phase":1,"sequence":3,"avg":177,"response":180,"trial_type":"training_avg","trial_index":79,"time_elapsed":923478,"internal_node_id":"0.0-79.0"},{"trial_type":"number-animation","trial_index":80,"time_elapsed":943379,"internal_node_id":"0.0-80.0"},{"phase":1,"sequence":4,"avg":182,"response":180,"trial_type":"training_avg","trial_index":81,"time_elapsed":964326,"internal_node_id":"0.0-81.0"},{"responses":[{"value":2,"offby":2,"category":"$106 - $134","category_index":0},{"value":3,"offby":2,"category":"$135 - $150","category_index":1},{"value":4,"offby":1,"category":"$151 - $165","category_index":2},{"value":3,"offby":-3,"category":"$166 - $180","category_index":3},{"value":4,"offby":-2,"category":"$181 - $195","category_index":4},{"value":2,"offby":-1,"category":"$196 - $210","category_index":5},{"value":2,"offby":1,"category":"$211 - $225","category_index":6}],"phase":1,"number":0,"trial_type":"bar-choose","trial_index":82,"time_elapsed":990284,"internal_node_id":"0.0-82.0"},{"rt":4317,"url":"\/tickets\/utils\/testing2.html","trial_type":"html","trial_index":83,"time_elapsed":995704,"internal_node_id":"0.0-83.0"},{"phase":1,"order":[39,3,26,20,37,0,31,49,45,1,28,18,21,42,16,29,48,33,19,14,27,12,44,43,22,30,24,41,35,36,32,23,15,7,13,25,34,6,40,17,8,46,5,2,47,11,4,38,9,10],"trial_type":"store_order","trial_index":84,"time_elapsed":996707,"internal_node_id":"0.0-84.0"},{"result":155,"points":3,"place":0,"phase":1,"sequence":0,"times":[1197,841],"next_num":2,"trial_type":"ticket-choose","trial_index":85,"time_elapsed":1000843,"internal_node_id":"0.0-85.0"},{"result":155,"points":2,"place":1,"phase":1,"sequence":1,"times":[596,813],"next_num":2,"trial_type":"ticket-choose","trial_index":86,"time_elapsed":1004128,"internal_node_id":"0.0-86.0"},{"result":157,"points":3,"place":0,"phase":1,"sequence":2,"times":[513,606,772],"next_num":3,"trial_type":"ticket-choose","trial_index":87,"time_elapsed":1008055,"internal_node_id":"0.0-87.0"},{"result":167,"points":2,"place":1,"phase":1,"sequence":3,"times":[607,776],"next_num":2,"trial_type":"ticket-choose","trial_index":88,"time_elapsed":1011419,"internal_node_id":"0.0-88.0"},{"result":148,"points":3,"place":0,"phase":1,"sequence":4,"times":[603,583,573,503,548,519,623,769,729],"next_num":9,"trial_type":"ticket-choose","trial_index":89,"time_elapsed":1020147,"internal_node_id":"0.0-89.0"},{"result":152,"points":3,"place":0,"phase":1,"sequence":5,"times":[848,618,504,853],"next_num":4,"trial_type":"ticket-choose","trial_index":90,"time_elapsed":1025202,"internal_node_id":"0.0-90.0"},{"result":143,"points":3,"place":0,"phase":1,"sequence":6,"times":[651,636,452,557,840],"next_num":5,"trial_type":"ticket-choose","trial_index":91,"time_elapsed":1030751,"internal_node_id":"0.0-91.0"},{"result":159,"points":3,"place":0,"phase":1,"sequence":7,"times":[934],"next_num":1,"trial_type":"ticket-choose","trial_index":92,"time_elapsed":1033325,"internal_node_id":"0.0-92.0"},{"result":166,"points":2,"place":1,"phase":1,"sequence":8,"times":[630,539,526,497,551,503,852],"next_num":7,"trial_type":"ticket-choose","trial_index":93,"time_elapsed":1040295,"internal_node_id":"0.0-93.0"},{"result":169,"points":3,"place":0,"phase":1,"sequence":9,"times":[866],"next_num":1,"trial_type":"ticket-choose","trial_index":94,"time_elapsed":1042850,"internal_node_id":"0.0-94.0"},{"result":165,"points":2,"place":1,"phase":1,"sequence":10,"times":[645,553,791],"next_num":3,"trial_type":"ticket-choose","trial_index":95,"time_elapsed":1046872,"internal_node_id":"0.0-95.0"},{"result":150,"points":3,"place":0,"phase":1,"sequence":11,"times":[766,751],"next_num":2,"trial_type":"ticket-choose","trial_index":96,"time_elapsed":1050270,"internal_node_id":"0.0-96.0"},{"result":169,"points":1,"place":4,"phase":1,"sequence":12,"times":[1142],"next_num":1,"trial_type":"ticket-choose","trial_index":97,"time_elapsed":1053022,"internal_node_id":"0.0-97.0"},{"result":150,"points":2,"place":1,"phase":1,"sequence":13,"times":[829,498,770],"next_num":3,"trial_type":"ticket-choose","trial_index":98,"time_elapsed":1057423,"internal_node_id":"0.0-98.0"},{"result":167,"points":2,"place":1,"phase":1,"sequence":14,"times":[760,521,480,494,471,465,880],"next_num":7,"trial_type":"ticket-choose","trial_index":99,"time_elapsed":1064436,"internal_node_id":"0.0-99.0"},{"result":140,"points":3,"place":0,"phase":1,"sequence":15,"times":[643,456,463,431,520,526,507,730,654,541],"next_num":10,"trial_type":"ticket-choose","trial_index":100,"time_elapsed":1073315,"internal_node_id":"0.0-100.0"},{"result":158,"points":2,"place":1,"phase":1,"sequence":16,"times":[573,585,738],"next_num":3,"trial_type":"ticket-choose","trial_index":101,"time_elapsed":1077206,"internal_node_id":"0.0-101.0"},{"result":147,"points":3,"place":0,"phase":1,"sequence":17,"times":[611,566,490,512,462,516,522,526,529,543],"next_num":10,"trial_type":"ticket-choose","trial_index":102,"time_elapsed":1085952,"internal_node_id":"0.0-102.0"},{"result":163,"points":1,"place":2,"phase":1,"sequence":18,"times":[553,737],"next_num":2,"trial_type":"ticket-choose","trial_index":103,"time_elapsed":1089054,"internal_node_id":"0.0-103.0"},{"result":158,"points":3,"place":0,"phase":1,"sequence":19,"times":[622,507,485,516,541,494,652,492,839],"next_num":9,"trial_type":"ticket-choose","trial_index":104,"time_elapsed":1097471,"internal_node_id":"0.0-104.0"},{"result":153,"points":3,"place":0,"phase":1,"sequence":20,"times":[533,531,471,447,530,453,540,581,957,489],"next_num":10,"trial_type":"ticket-choose","trial_index":105,"time_elapsed":1106489,"internal_node_id":"0.0-105.0"},{"result":168,"points":3,"place":0,"phase":1,"sequence":21,"times":[1346],"next_num":1,"trial_type":"ticket-choose","trial_index":106,"time_elapsed":1109472,"internal_node_id":"0.0-106.0"},{"result":168,"points":1,"place":2,"phase":1,"sequence":22,"times":[655],"next_num":1,"trial_type":"ticket-choose","trial_index":107,"time_elapsed":1111911,"internal_node_id":"0.0-107.0"},{"result":173,"points":1,"place":4,"phase":1,"sequence":23,"times":[833],"next_num":1,"trial_type":"ticket-choose","trial_index":108,"time_elapsed":1114410,"internal_node_id":"0.0-108.0"},{"result":168,"points":1,"place":2,"phase":1,"sequence":24,"times":[726],"next_num":1,"trial_type":"ticket-choose","trial_index":109,"time_elapsed":1116781,"internal_node_id":"0.0-109.0"},{"result":161,"points":3,"place":0,"phase":1,"sequence":25,"times":[786],"next_num":1,"trial_type":"ticket-choose","trial_index":110,"time_elapsed":1119297,"internal_node_id":"0.0-110.0"},{"result":148,"points":3,"place":0,"phase":1,"sequence":26,"times":[609],"next_num":1,"trial_type":"ticket-choose","trial_index":111,"time_elapsed":1121509,"internal_node_id":"0.0-111.0"},{"result":138,"points":3,"place":0,"phase":1,"sequence":27,"times":[709,458,550,473,533,820],"next_num":6,"trial_type":"ticket-choose","trial_index":112,"time_elapsed":1127670,"internal_node_id":"0.0-112.0"},{"result":150,"points":3,"place":0,"phase":1,"sequence":28,"times":[814],"next_num":1,"trial_type":"ticket-choose","trial_index":113,"time_elapsed":1130141,"internal_node_id":"0.0-113.0"},{"result":167,"points":2,"place":1,"phase":1,"sequence":29,"times":[588,474,498,496,940],"next_num":5,"trial_type":"ticket-choose","trial_index":114,"time_elapsed":1135609,"internal_node_id":"0.0-114.0"},{"result":169,"points":1,"place":4,"phase":1,"sequence":30,"times":[889],"next_num":1,"trial_type":"ticket-choose","trial_index":115,"time_elapsed":1138127,"internal_node_id":"0.0-115.0"},{"result":169,"points":1,"place":4,"phase":1,"sequence":31,"times":[1524],"next_num":1,"trial_type":"ticket-choose","trial_index":116,"time_elapsed":1141259,"internal_node_id":"0.0-116.0"},{"result":147,"points":3,"place":0,"phase":1,"sequence":32,"times":[643,486,679,813],"next_num":4,"trial_type":"ticket-choose","trial_index":117,"time_elapsed":1146002,"internal_node_id":"0.0-117.0"},{"result":155,"points":2,"place":1,"phase":1,"sequence":33,"times":[689,464,810],"next_num":3,"trial_type":"ticket-choose","trial_index":118,"time_elapsed":1149967,"internal_node_id":"0.0-118.0"},{"result":162,"points":1,"place":2,"phase":1,"sequence":34,"times":[1108],"next_num":1,"trial_type":"ticket-choose","trial_index":119,"time_elapsed":1152663,"internal_node_id":"0.0-119.0"},{"result":158,"points":3,"place":0,"phase":1,"sequence":35,"times":[505,459,522,522,481,844],"next_num":6,"trial_type":"ticket-choose","trial_index":120,"time_elapsed":1158491,"internal_node_id":"0.0-120.0"},{"result":157,"points":3,"place":0,"phase":1,"sequence":36,"times":[741],"next_num":1,"trial_type":"ticket-choose","trial_index":121,"time_elapsed":1160832,"internal_node_id":"0.0-121.0"},{"result":154,"points":2,"place":1,"phase":1,"sequence":37,"times":[585,507,762],"next_num":3,"trial_type":"ticket-choose","trial_index":122,"time_elapsed":1164677,"internal_node_id":"0.0-122.0"},{"result":156,"points":3,"place":0,"phase":1,"sequence":38,"times":[687],"next_num":1,"trial_type":"ticket-choose","trial_index":123,"time_elapsed":1166881,"internal_node_id":"0.0-123.0"},{"result":161,"points":3,"place":0,"phase":1,"sequence":39,"times":[706],"next_num":1,"trial_type":"ticket-choose","trial_index":124,"time_elapsed":1169217,"internal_node_id":"0.0-124.0"},{"result":171,"points":2,"place":1,"phase":1,"sequence":40,"times":[523,409,459,524,497,505,809],"next_num":7,"trial_type":"ticket-choose","trial_index":125,"time_elapsed":1175761,"internal_node_id":"0.0-125.0"},{"result":170,"points":2,"place":1,"phase":1,"sequence":41,"times":[446,313,448,503,444,465,447,685,1092],"next_num":9,"trial_type":"ticket-choose","trial_index":126,"time_elapsed":1183859,"internal_node_id":"0.0-126.0"},{"result":159,"points":1,"place":2,"phase":1,"sequence":42,"times":[894,777],"next_num":2,"trial_type":"ticket-choose","trial_index":127,"time_elapsed":1187243,"internal_node_id":"0.0-127.0"},{"result":158,"points":2,"place":1,"phase":1,"sequence":43,"times":[493,409,797],"next_num":3,"trial_type":"ticket-choose","trial_index":128,"time_elapsed":1190959,"internal_node_id":"0.0-128.0"},{"result":155,"points":3,"place":0,"phase":1,"sequence":44,"times":[478,523,609,489,494,531,723,524,513,502],"next_num":10,"trial_type":"ticket-choose","trial_index":129,"time_elapsed":1199785,"internal_node_id":"0.0-129.0"},{"result":154,"points":2,"place":1,"phase":1,"sequence":45,"times":[575,450,449,490,648,401,893],"next_num":7,"trial_type":"ticket-choose","trial_index":130,"time_elapsed":1206472,"internal_node_id":"0.0-130.0"},{"result":152,"points":3,"place":0,"phase":1,"sequence":46,"times":[457,497,521,443,539,597,855],"next_num":7,"trial_type":"ticket-choose","trial_index":131,"time_elapsed":1213206,"internal_node_id":"0.0-131.0"},{"result":164,"points":1,"place":4,"phase":1,"sequence":47,"times":[1500],"next_num":1,"trial_type":"ticket-choose","trial_index":132,"time_elapsed":1216488,"internal_node_id":"0.0-132.0"},{"result":138,"points":3,"place":0,"phase":1,"sequence":48,"times":[520,503,478,506,458,581,512,677,792],"next_num":9,"trial_type":"ticket-choose","trial_index":133,"time_elapsed":1224772,"internal_node_id":"0.0-133.0"},{"result":138,"points":3,"place":0,"phase":1,"sequence":49,"times":[671,923,700,391,432,502,559,723,571,505],"next_num":10,"trial_type":"ticket-choose","trial_index":134,"time_elapsed":1234763,"internal_node_id":"0.0-134.0"},{"responses":[{"value":5,"offby":5,"category":"$106 - $134","category_index":0},{"value":4,"offby":3,"category":"$135 - $150","category_index":1},{"value":4,"offby":1,"category":"$151 - $165","category_index":2},{"value":3,"offby":-3,"category":"$166 - $180","category_index":3},{"value":2,"offby":-4,"category":"$181 - $195","category_index":4},{"value":1,"offby":-2,"category":"$196 - $210","category_index":5},{"value":1,"offby":0,"category":"$211 - $225","category_index":6}],"phase":1,"number":1,"trial_type":"bar-choose","trial_index":135,"time_elapsed":1255825,"internal_node_id":"0.0-135.0"},{"during":"Nothing","bonus":304,"trial_type":"final","trial_index":136,"time_elapsed":1273203,"internal_node_id":"0.0-136.0"}],"bonus":304}