{"start_time":"2017-02-24 15:39:37","end_time":"2017-02-24 16:05:50","points_phase0":105,"points_phase1":87,"phase_order":0,"age":33,"gender":"m","tries":2,"during":"Nothing","worker_id":"A1YSYI926BBOHW","assignment_id":"3LYA37P8IRGW5VKM49KY1QRKMCEBKD","data":[{"rt":6262,"url":"\/tickets\/utils\/consent.html","trial_type":"html","trial_index":0,"time_elapsed":6442,"internal_node_id":"0.0-0.0"},{"age":33,"gender":"m","trial_type":"age","trial_index":1,"time_elapsed":11797,"internal_node_id":"0.0-1.0"},{"worker_id":"A1YSYI926BBOHW","trial_type":"workerid","trial_index":2,"time_elapsed":28479,"internal_node_id":"0.0-2.0"},{"tries":2,"trial_type":"instructions_check","trial_index":3,"time_elapsed":268751,"internal_node_id":"0.0-3.0"},{"rt":3958,"url":"\/tickets\/utils\/start.html","trial_type":"html","trial_index":4,"time_elapsed":273888,"internal_node_id":"0.0-4.0"},{"trial_type":"number-animation","trial_index":5,"time_elapsed":290744,"internal_node_id":"0.0-5.0"},{"phase":0,"sequence":0,"avg":180,"response":174,"trial_type":"training_avg","trial_index":6,"time_elapsed":301253,"internal_node_id":"0.0-6.0"},{"trial_type":"number-animation","trial_index":7,"time_elapsed":353462,"internal_node_id":"0.0-7.0"},{"phase":0,"sequence":1,"avg":178,"response":178,"trial_type":"training_avg","trial_index":8,"time_elapsed":368358,"internal_node_id":"0.0-8.0"},{"trial_type":"number-animation","trial_index":9,"time_elapsed":417152,"internal_node_id":"0.0-9.0"},{"phase":0,"sequence":2,"avg":176,"response":175,"trial_type":"training_avg","trial_index":10,"time_elapsed":439645,"internal_node_id":"0.0-10.0"},{"trial_type":"number-animation","trial_index":11,"time_elapsed":491587,"internal_node_id":"0.0-11.0"},{"phase":0,"sequence":3,"avg":178,"response":178,"trial_type":"training_avg","trial_index":12,"time_elapsed":505049,"internal_node_id":"0.0-12.0"},{"trial_type":"number-animation","trial_index":13,"time_elapsed":543484,"internal_node_id":"0.0-13.0"},{"phase":0,"sequence":4,"avg":179,"response":179,"trial_type":"training_avg","trial_index":14,"time_elapsed":550434,"internal_node_id":"0.0-14.0"},{"responses":[{"value":0,"offby":0,"category":"$140 - $250","category_index":0},{"value":5,"offby":5,"category":"$151 - $160","category_index":1},{"value":5,"offby":1,"category":"$161 - $170","category_index":2},{"value":5,"offby":-1,"category":"$171 - $180","category_index":3},{"value":5,"offby":-2,"category":"$181 - $190","category_index":4},{"value":0,"offby":-3,"category":"$191 - $200","category_index":5},{"value":0,"offby":0,"category":"$201 - $210","category_index":6}],"phase":0,"number":0,"trial_type":"bar-choose","trial_index":15,"time_elapsed":611364,"internal_node_id":"0.0-15.0"},{"rt":8052,"url":"\/tickets\/\/utils\/testing.html","trial_type":"html","trial_index":16,"time_elapsed":620758,"internal_node_id":"0.0-16.0"},{"phase":0,"order":[44,12,27,36,20,8,14,7,22,35,6,41,24,42,46,48,2,37,1,9,17,25,19,11,18,40,45,16,4,26,21,47,34,32,0,28,43,39,10,15,13,33,29,38,30,49,5,31,3,23],"trial_type":"store_order","trial_index":17,"time_elapsed":621761,"internal_node_id":"0.0-17.0"},{"result":165,"points":2,"place":1,"phase":0,"sequence":-1,"prices":[184,180,224,165,181,199,185,193,218,126],"times":[1635,1028,1046,1283],"next_num":4,"trial_type":"ticket-choose","trial_index":18,"time_elapsed":630260,"internal_node_id":"0.0-18.0"},{"rt":2113,"url":"\/tickets\/utils\/testing_after.html","trial_type":"html","trial_index":19,"time_elapsed":633529,"internal_node_id":"0.0-19.0"},{"result":150,"points":3,"place":0,"phase":0,"sequence":0,"prices":[175,150,164,155,171,199,158,180,184,196],"times":[1362,1151],"next_num":2,"trial_type":"ticket-choose","trial_index":20,"time_elapsed":639279,"internal_node_id":"0.0-20.0"},{"result":170,"points":2,"place":1,"phase":0,"sequence":1,"prices":[176,180,178,194,179,183,170,173,165,184],"times":[1848,739,618,650,677,766,1198],"next_num":7,"trial_type":"ticket-choose","trial_index":21,"time_elapsed":649449,"internal_node_id":"0.0-21.0"},{"result":183,"points":1,"place":4,"phase":0,"sequence":2,"prices":[168,188,171,181,184,196,180,194,195,183],"times":[1773,644,620,647,646,694,777,917,819,1193],"next_num":10,"trial_type":"ticket-choose","trial_index":22,"time_elapsed":663352,"internal_node_id":"0.0-22.0"},{"result":169,"points":1,"place":2,"phase":0,"sequence":3,"prices":[189,185,169,168,167,171,180,173,174,188],"times":[963,929,1536],"next_num":3,"trial_type":"ticket-choose","trial_index":23,"time_elapsed":669427,"internal_node_id":"0.0-23.0"},{"result":168,"points":2,"place":1,"phase":0,"sequence":4,"prices":[174,178,176,192,177,181,168,171,163,182],"times":[956,591,636,602,577,659,1484],"next_num":7,"trial_type":"ticket-choose","trial_index":24,"time_elapsed":678375,"internal_node_id":"0.0-24.0"},{"result":170,"points":2,"place":1,"phase":0,"sequence":5,"prices":[176,180,170,194,179,183,178,173,165,184],"times":[1004,575,1058],"next_num":3,"trial_type":"ticket-choose","trial_index":25,"time_elapsed":683884,"internal_node_id":"0.0-25.0"},{"result":170,"points":2,"place":1,"phase":0,"sequence":6,"prices":[175,180,178,195,179,184,170,174,166,185],"times":[1068,593,546,867,665,683,1119],"next_num":7,"trial_type":"ticket-choose","trial_index":26,"time_elapsed":693116,"internal_node_id":"0.0-26.0"},{"result":169,"points":2,"place":1,"phase":0,"sequence":7,"prices":[174,179,177,194,178,183,169,173,165,184],"times":[803,630,567,624,572,656,1606],"next_num":7,"trial_type":"ticket-choose","trial_index":27,"time_elapsed":701992,"internal_node_id":"0.0-27.0"},{"result":164,"points":3,"place":0,"phase":0,"sequence":8,"prices":[173,178,176,193,177,182,168,172,164,183],"times":[811,494,550,555,554,597,599,787,748],"next_num":9,"trial_type":"ticket-choose","trial_index":28,"time_elapsed":711959,"internal_node_id":"0.0-28.0"},{"result":154,"points":3,"place":0,"phase":0,"sequence":9,"prices":[188,179,154,183,173,170,177,160,169,175],"times":[1424,615,946],"next_num":3,"trial_type":"ticket-choose","trial_index":29,"time_elapsed":717467,"internal_node_id":"0.0-29.0"},{"result":169,"points":2,"place":1,"phase":0,"sequence":10,"prices":[174,179,177,194,178,183,169,173,165,184],"times":[850,580,526,504,587,677,1264],"next_num":7,"trial_type":"ticket-choose","trial_index":30,"time_elapsed":725810,"internal_node_id":"0.0-30.0"},{"result":165,"points":3,"place":0,"phase":0,"sequence":11,"prices":[180,165,177,193,186,196,187,169,171,182],"times":[545,913],"next_num":2,"trial_type":"ticket-choose","trial_index":31,"time_elapsed":729653,"internal_node_id":"0.0-31.0"},{"result":176,"points":1,"place":4,"phase":0,"sequence":12,"prices":[161,180,170,174,178,198,173,182,188,176],"times":[486,492,562,973,651,633,643,602,670,699],"next_num":10,"trial_type":"ticket-choose","trial_index":32,"time_elapsed":740216,"internal_node_id":"0.0-32.0"},{"result":160,"points":3,"place":0,"phase":0,"sequence":13,"prices":[175,193,175,160,180,170,175,205,177,167],"times":[1104,686,243,1093],"next_num":4,"trial_type":"ticket-choose","trial_index":33,"time_elapsed":755877,"internal_node_id":"0.0-33.0"},{"result":166,"points":3,"place":0,"phase":0,"sequence":14,"prices":[179,186,197,201,166,187,188,193,190,177],"times":[2511,1176,562,917,901],"next_num":5,"trial_type":"ticket-choose","trial_index":34,"time_elapsed":765845,"internal_node_id":"0.0-34.0"},{"result":171,"points":3,"place":0,"phase":0,"sequence":15,"prices":[193,173,175,182,179,198,181,171,176,187],"times":[2940,896,735,610,591,637,570,875],"next_num":8,"trial_type":"ticket-choose","trial_index":35,"time_elapsed":777274,"internal_node_id":"0.0-35.0"},{"result":174,"points":1,"place":3,"phase":0,"sequence":16,"prices":[174,179,169,194,178,183,177,173,165,184],"times":[1186],"next_num":1,"trial_type":"ticket-choose","trial_index":36,"time_elapsed":780655,"internal_node_id":"0.0-36.0"},{"result":168,"points":2,"place":1,"phase":0,"sequence":17,"prices":[181,175,182,168,183,173,153,170,193,179],"times":[851,1045,554,1257],"next_num":4,"trial_type":"ticket-choose","trial_index":37,"time_elapsed":787173,"internal_node_id":"0.0-37.0"},{"result":169,"points":2,"place":1,"phase":0,"sequence":18,"prices":[175,179,169,193,178,182,177,172,164,183],"times":[1362,658,880],"next_num":3,"trial_type":"ticket-choose","trial_index":38,"time_elapsed":792408,"internal_node_id":"0.0-38.0"},{"result":170,"points":2,"place":1,"phase":0,"sequence":19,"prices":[176,180,170,194,179,183,178,173,165,184],"times":[754,660,1539],"next_num":3,"trial_type":"ticket-choose","trial_index":39,"time_elapsed":798313,"internal_node_id":"0.0-39.0"},{"result":168,"points":2,"place":1,"phase":0,"sequence":20,"prices":[174,178,168,192,177,181,176,171,163,182],"times":[1271,751,942],"next_num":3,"trial_type":"ticket-choose","trial_index":40,"time_elapsed":804071,"internal_node_id":"0.0-40.0"},{"result":163,"points":3,"place":0,"phase":0,"sequence":21,"prices":[163,185,165,174,181,198,173,186,187,180],"times":[963],"next_num":1,"trial_type":"ticket-choose","trial_index":41,"time_elapsed":807223,"internal_node_id":"0.0-41.0"},{"result":173,"points":1,"place":3,"phase":0,"sequence":22,"prices":[173,178,168,193,177,182,176,172,164,183],"times":[1834],"next_num":1,"trial_type":"ticket-choose","trial_index":42,"time_elapsed":811305,"internal_node_id":"0.0-42.0"},{"result":170,"points":2,"place":1,"phase":0,"sequence":23,"prices":[175,180,170,195,179,184,178,174,166,185],"times":[811,1061,1084],"next_num":3,"trial_type":"ticket-choose","trial_index":43,"time_elapsed":817036,"internal_node_id":"0.0-43.0"},{"result":168,"points":2,"place":1,"phase":0,"sequence":24,"prices":[173,178,168,193,177,182,176,172,164,183],"times":[1393,686,1030],"next_num":3,"trial_type":"ticket-choose","trial_index":44,"time_elapsed":823137,"internal_node_id":"0.0-44.0"},{"result":167,"points":3,"place":0,"phase":0,"sequence":25,"prices":[179,174,199,178,196,167,170,184,177,190],"times":[1245,877,664,773,691,915],"next_num":6,"trial_type":"ticket-choose","trial_index":45,"time_elapsed":831543,"internal_node_id":"0.0-45.0"},{"result":172,"points":1,"place":3,"phase":0,"sequence":26,"prices":[179,174,172,162,202,184,165,197,185,169],"times":[968,1220,1330],"next_num":3,"trial_type":"ticket-choose","trial_index":46,"time_elapsed":838043,"internal_node_id":"0.0-46.0"},{"result":168,"points":2,"place":1,"phase":0,"sequence":27,"prices":[174,178,168,192,177,181,176,171,163,182],"times":[854,575,1162],"next_num":3,"trial_type":"ticket-choose","trial_index":47,"time_elapsed":844238,"internal_node_id":"0.0-47.0"},{"result":169,"points":2,"place":1,"phase":0,"sequence":28,"prices":[175,179,177,193,178,182,169,172,164,183],"times":[10473,1027,964,719,1067,915,985],"next_num":7,"trial_type":"ticket-choose","trial_index":48,"time_elapsed":864112,"internal_node_id":"0.0-48.0"},{"result":165,"points":3,"place":0,"phase":0,"sequence":29,"prices":[165,187,173,177,186,196,176,191,192,181],"times":[1430],"next_num":1,"trial_type":"ticket-choose","trial_index":49,"time_elapsed":867830,"internal_node_id":"0.0-49.0"},{"result":168,"points":2,"place":1,"phase":0,"sequence":30,"prices":[174,178,176,192,177,181,168,171,163,182],"times":[1204,616,763,604,587,930,3694],"next_num":7,"trial_type":"ticket-choose","trial_index":50,"time_elapsed":879727,"internal_node_id":"0.0-50.0"},{"result":181,"points":0,"place":5,"phase":0,"sequence":31,"prices":[180,175,173,177,191,190,184,196,174,181],"times":[1085,731,1380,556,617,654,645,697,1040,648],"next_num":10,"trial_type":"ticket-choose","trial_index":51,"time_elapsed":893089,"internal_node_id":"0.0-51.0"},{"result":165,"points":2,"place":1,"phase":0,"sequence":32,"prices":[181,180,191,186,165,197,159,167,194,185],"times":[1745,622,735,874,1172],"next_num":5,"trial_type":"ticket-choose","trial_index":52,"time_elapsed":901361,"internal_node_id":"0.0-52.0"},{"result":171,"points":3,"place":0,"phase":0,"sequence":33,"prices":[171,180,172,174,179,188,173,183,186,175],"times":[1506],"next_num":1,"trial_type":"ticket-choose","trial_index":53,"time_elapsed":905290,"internal_node_id":"0.0-53.0"},{"result":169,"points":2,"place":1,"phase":0,"sequence":34,"prices":[175,179,169,193,178,182,177,172,164,183],"times":[861,1033,826],"next_num":3,"trial_type":"ticket-choose","trial_index":54,"time_elapsed":910817,"internal_node_id":"0.0-54.0"},{"result":159,"points":3,"place":0,"phase":0,"sequence":35,"prices":[159,178,170,174,176,194,173,182,185,175],"times":[991],"next_num":1,"trial_type":"ticket-choose","trial_index":55,"time_elapsed":914163,"internal_node_id":"0.0-55.0"},{"result":157,"points":2,"place":1,"phase":0,"sequence":36,"prices":[188,191,179,157,181,164,166,156,175,182],"times":[851,641,569,941],"next_num":4,"trial_type":"ticket-choose","trial_index":56,"time_elapsed":920660,"internal_node_id":"0.0-56.0"},{"result":171,"points":1,"place":2,"phase":0,"sequence":37,"prices":[195,177,197,179,171,173,175,156,163,204],"times":[953,675,1398,827,1271],"next_num":5,"trial_type":"ticket-choose","trial_index":57,"time_elapsed":929137,"internal_node_id":"0.0-57.0"},{"result":170,"points":2,"place":1,"phase":0,"sequence":38,"prices":[175,180,170,195,179,184,178,174,166,185],"times":[2300,576,1254],"next_num":3,"trial_type":"ticket-choose","trial_index":58,"time_elapsed":939610,"internal_node_id":"0.0-58.0"},{"result":170,"points":2,"place":1,"phase":0,"sequence":39,"prices":[175,180,178,195,179,184,170,174,166,185],"times":[1387,840,796,578,709,404,1177],"next_num":7,"trial_type":"ticket-choose","trial_index":59,"time_elapsed":948762,"internal_node_id":"0.0-59.0"},{"result":170,"points":2,"place":1,"phase":0,"sequence":40,"prices":[176,180,178,194,179,183,170,173,165,184],"times":[854,627,604,621,585,660,849],"next_num":7,"trial_type":"ticket-choose","trial_index":60,"time_elapsed":956853,"internal_node_id":"0.0-60.0"},{"result":170,"points":3,"place":0,"phase":0,"sequence":41,"prices":[170,183,172,175,180,189,174,187,188,179],"times":[1267],"next_num":1,"trial_type":"ticket-choose","trial_index":61,"time_elapsed":960727,"internal_node_id":"0.0-61.0"},{"result":166,"points":3,"place":0,"phase":0,"sequence":42,"prices":[166,190,170,173,178,203,172,192,198,174],"times":[981],"next_num":1,"trial_type":"ticket-choose","trial_index":62,"time_elapsed":963885,"internal_node_id":"0.0-62.0"},{"result":170,"points":3,"place":0,"phase":0,"sequence":43,"prices":[181,179,199,188,170,172,178,187,191,177],"times":[791,641,686,839,859],"next_num":5,"trial_type":"ticket-choose","trial_index":63,"time_elapsed":970628,"internal_node_id":"0.0-63.0"},{"result":177,"points":1,"place":4,"phase":0,"sequence":44,"prices":[160,185,170,174,182,196,173,186,194,177],"times":[521,773,606,616,632,652,582,678,596,752],"next_num":10,"trial_type":"ticket-choose","trial_index":64,"time_elapsed":981076,"internal_node_id":"0.0-64.0"},{"result":170,"points":2,"place":1,"phase":0,"sequence":45,"prices":[175,189,193,170,179,165,180,186,177,184],"times":[1174,618,655,1069],"next_num":4,"trial_type":"ticket-choose","trial_index":65,"time_elapsed":987493,"internal_node_id":"0.0-65.0"},{"result":169,"points":2,"place":1,"phase":0,"sequence":46,"prices":[175,179,177,193,178,182,169,172,164,183],"times":[804,572,587,614,575,754,1487],"next_num":7,"trial_type":"ticket-choose","trial_index":66,"time_elapsed":996149,"internal_node_id":"0.0-66.0"},{"result":157,"points":3,"place":0,"phase":0,"sequence":47,"prices":[157,184,163,174,181,190,168,187,189,177],"times":[1641],"next_num":1,"trial_type":"ticket-choose","trial_index":67,"time_elapsed":1000183,"internal_node_id":"0.0-67.0"},{"result":169,"points":2,"place":1,"phase":0,"sequence":48,"prices":[174,179,169,194,178,183,177,173,165,184],"times":[878,591,1013],"next_num":3,"trial_type":"ticket-choose","trial_index":68,"time_elapsed":1004934,"internal_node_id":"0.0-68.0"},{"result":173,"points":1,"place":3,"phase":0,"sequence":49,"prices":[173,178,176,193,177,182,168,172,164,183],"times":[902],"next_num":1,"trial_type":"ticket-choose","trial_index":69,"time_elapsed":1008011,"internal_node_id":"0.0-69.0"},{"responses":[{"value":0,"offby":0,"category":"$140 - $250","category_index":0},{"value":4,"offby":4,"category":"$151 - $160","category_index":1},{"value":3,"offby":-1,"category":"$161 - $170","category_index":2},{"value":4,"offby":-2,"category":"$171 - $180","category_index":3},{"value":5,"offby":-2,"category":"$181 - $190","category_index":4},{"value":2,"offby":-1,"category":"$191 - $200","category_index":5},{"value":2,"offby":2,"category":"$201 - $210","category_index":6}],"phase":0,"number":1,"trial_type":"bar-choose","trial_index":70,"time_elapsed":1064028,"internal_node_id":"0.0-70.0"},{"rt":9695,"url":"\/tickets\/utils\/start2.html","trial_type":"html","trial_index":71,"time_elapsed":1074927,"internal_node_id":"0.0-71.0"},{"trial_type":"number-animation","trial_index":72,"time_elapsed":1112193,"internal_node_id":"0.0-72.0"},{"phase":1,"sequence":0,"avg":166,"response":166,"trial_type":"training_avg","trial_index":73,"time_elapsed":1126763,"internal_node_id":"0.0-73.0"},{"trial_type":"number-animation","trial_index":74,"time_elapsed":1165920,"internal_node_id":"0.0-74.0"},{"phase":1,"sequence":1,"avg":198,"response":198,"trial_type":"training_avg","trial_index":75,"time_elapsed":1178372,"internal_node_id":"0.0-75.0"},{"trial_type":"number-animation","trial_index":76,"time_elapsed":1215564,"internal_node_id":"0.0-76.0"},{"phase":1,"sequence":2,"avg":177,"response":178,"trial_type":"training_avg","trial_index":77,"time_elapsed":1226241,"internal_node_id":"0.0-77.0"},{"trial_type":"number-animation","trial_index":78,"time_elapsed":1259632,"internal_node_id":"0.0-78.0"},{"phase":1,"sequence":3,"avg":190,"response":190,"trial_type":"training_avg","trial_index":79,"time_elapsed":1267058,"internal_node_id":"0.0-79.0"},{"trial_type":"number-animation","trial_index":80,"time_elapsed":1290034,"internal_node_id":"0.0-80.0"},{"phase":1,"sequence":4,"avg":201,"response":189,"trial_type":"training_avg","trial_index":81,"time_elapsed":1302443,"internal_node_id":"0.0-81.0"},{"responses":[{"value":2,"offby":1,"category":"$30 - $75","category_index":0},{"value":3,"offby":1,"category":"$76 - $120","category_index":1},{"value":4,"offby":0,"category":"$121 - $165","category_index":2},{"value":6,"offby":0,"category":"$166 - $210","category_index":3},{"value":5,"offby":-1,"category":"$211 - $255","category_index":4},{"value":0,"offby":-1,"category":"$256 - $300","category_index":5},{"value":0,"offby":0,"category":"$301 - $345","category_index":6}],"phase":1,"number":0,"trial_type":"bar-choose","trial_index":82,"time_elapsed":1328417,"internal_node_id":"0.0-82.0"},{"rt":1927,"url":"\/tickets\/utils\/testing2.html","trial_type":"html","trial_index":83,"time_elapsed":1331591,"internal_node_id":"0.0-83.0"},{"phase":1,"order":[48,16,49,13,33,4,31,35,29,27,21,37,47,10,6,17,5,7,9,36,34,26,0,25,22,8,15,2,11,3,43,24,1,19,32,23,14,38,42,41,12,40,30,45,20,46,44,28,18,39],"trial_type":"store_order","trial_index":84,"time_elapsed":1332687,"internal_node_id":"0.0-84.0"},{"result":145,"points":2,"place":1,"phase":1,"sequence":0,"prices":[246,145,155,191,176,270,185,136,160,215],"times":[1309,1279],"next_num":2,"trial_type":"ticket-choose","trial_index":85,"time_elapsed":1337539,"internal_node_id":"0.0-85.0"},{"result":150,"points":1,"place":3,"phase":1,"sequence":1,"prices":[150,171,121,241,165,185,160,136,95,191],"times":[1035],"next_num":1,"trial_type":"ticket-choose","trial_index":86,"time_elapsed":1340770,"internal_node_id":"0.0-86.0"},{"result":155,"points":1,"place":2,"phase":1,"sequence":2,"prices":[155,225,245,130,176,106,180,211,165,200],"times":[983],"next_num":1,"trial_type":"ticket-choose","trial_index":87,"time_elapsed":1344099,"internal_node_id":"0.0-87.0"},{"result":160,"points":1,"place":3,"phase":1,"sequence":3,"prices":[160,180,170,251,176,195,131,146,105,200],"times":[865],"next_num":1,"trial_type":"ticket-choose","trial_index":88,"time_elapsed":1347038,"internal_node_id":"0.0-88.0"},{"result":130,"points":3,"place":0,"phase":1,"sequence":4,"prices":[130,195,141,155,181,226,150,216,221,175],"times":[855],"next_num":1,"trial_type":"ticket-choose","trial_index":89,"time_elapsed":1349978,"internal_node_id":"0.0-89.0"},{"result":155,"points":1,"place":3,"phase":1,"sequence":5,"prices":[155,175,166,245,171,190,125,140,101,196],"times":[1000],"next_num":1,"trial_type":"ticket-choose","trial_index":90,"time_elapsed":1352853,"internal_node_id":"0.0-90.0"},{"result":66,"points":3,"place":0,"phase":1,"sequence":6,"prices":[66,201,96,150,185,230,121,216,225,165],"times":[811],"next_num":1,"trial_type":"ticket-choose","trial_index":91,"time_elapsed":1355879,"internal_node_id":"0.0-91.0"},{"result":51,"points":3,"place":0,"phase":1,"sequence":7,"prices":[221,175,51,196,146,130,166,80,126,156],"times":[769,1150,831],"next_num":3,"trial_type":"ticket-choose","trial_index":92,"time_elapsed":1360993,"internal_node_id":"0.0-92.0"},{"result":111,"points":3,"place":0,"phase":1,"sequence":8,"prices":[111,231,131,146,171,295,141,241,271,150],"times":[1143],"next_num":1,"trial_type":"ticket-choose","trial_index":93,"time_elapsed":1364614,"internal_node_id":"0.0-93.0"},{"result":120,"points":3,"place":0,"phase":1,"sequence":9,"prices":[120,221,135,185,200,261,181,251,255,196],"times":[936],"next_num":1,"trial_type":"ticket-choose","trial_index":94,"time_elapsed":1367690,"internal_node_id":"0.0-94.0"},{"result":120,"points":2,"place":1,"phase":1,"sequence":10,"prices":[150,170,160,241,166,186,120,136,96,191],"times":[801,572,677,556,770,543,1393],"next_num":7,"trial_type":"ticket-choose","trial_index":95,"time_elapsed":1376909,"internal_node_id":"0.0-95.0"},{"result":156,"points":1,"place":4,"phase":1,"sequence":11,"prices":[186,156,191,120,195,145,45,130,246,176],"times":[3202,828],"next_num":2,"trial_type":"ticket-choose","trial_index":96,"time_elapsed":1383541,"internal_node_id":"0.0-96.0"},{"result":156,"points":1,"place":2,"phase":1,"sequence":12,"prices":[181,156,145,165,236,231,201,260,150,185],"times":[602,674],"next_num":2,"trial_type":"ticket-choose","trial_index":97,"time_elapsed":1386846,"internal_node_id":"0.0-97.0"},{"result":156,"points":1,"place":3,"phase":1,"sequence":13,"prices":[156,181,131,256,176,200,171,151,111,206],"times":[822],"next_num":1,"trial_type":"ticket-choose","trial_index":98,"time_elapsed":1389753,"internal_node_id":"0.0-98.0"},{"result":150,"points":1,"place":3,"phase":1,"sequence":14,"prices":[150,175,166,251,170,196,126,145,105,201],"times":[890],"next_num":1,"trial_type":"ticket-choose","trial_index":99,"time_elapsed":1392962,"internal_node_id":"0.0-99.0"},{"result":150,"points":1,"place":3,"phase":1,"sequence":15,"prices":[150,171,120,241,165,185,160,135,96,190],"times":[804],"next_num":1,"trial_type":"ticket-choose","trial_index":100,"time_elapsed":1395702,"internal_node_id":"0.0-100.0"},{"result":156,"points":1,"place":3,"phase":1,"sequence":16,"prices":[156,176,165,246,171,190,126,141,101,196],"times":[909],"next_num":1,"trial_type":"ticket-choose","trial_index":101,"time_elapsed":1398982,"internal_node_id":"0.0-101.0"},{"result":151,"points":1,"place":3,"phase":1,"sequence":17,"prices":[151,175,166,251,170,195,126,146,105,201],"times":[789],"next_num":1,"trial_type":"ticket-choose","trial_index":102,"time_elapsed":1401715,"internal_node_id":"0.0-102.0"},{"result":130,"points":2,"place":1,"phase":1,"sequence":18,"prices":[160,180,130,251,176,195,170,146,105,200],"times":[866,573,753],"next_num":3,"trial_type":"ticket-choose","trial_index":103,"time_elapsed":1406114,"internal_node_id":"0.0-103.0"},{"result":125,"points":1,"place":2,"phase":1,"sequence":19,"prices":[226,205,125,120,115,135,180,145,150,220],"times":[895,568,812],"next_num":3,"trial_type":"ticket-choose","trial_index":104,"time_elapsed":1411026,"internal_node_id":"0.0-104.0"},{"result":106,"points":2,"place":1,"phase":1,"sequence":20,"prices":[185,180,235,210,106,266,76,115,250,205],"times":[723,897,636,594,772],"next_num":5,"trial_type":"ticket-choose","trial_index":105,"time_elapsed":1417391,"internal_node_id":"0.0-105.0"},{"result":105,"points":3,"place":0,"phase":1,"sequence":21,"prices":[105,216,146,165,210,260,161,235,241,185],"times":[835],"next_num":1,"trial_type":"ticket-choose","trial_index":106,"time_elapsed":1420115,"internal_node_id":"0.0-106.0"},{"result":126,"points":2,"place":1,"phase":1,"sequence":22,"prices":[156,175,126,246,170,190,165,140,100,196],"times":[547,511,813],"next_num":3,"trial_type":"ticket-choose","trial_index":107,"time_elapsed":1424807,"internal_node_id":"0.0-107.0"},{"result":95,"points":3,"place":0,"phase":1,"sequence":23,"prices":[95,205,106,151,186,271,145,210,215,181],"times":[845],"next_num":1,"trial_type":"ticket-choose","trial_index":108,"time_elapsed":1427762,"internal_node_id":"0.0-108.0"},{"result":145,"points":1,"place":3,"phase":1,"sequence":24,"prices":[145,171,161,245,165,191,120,140,100,196],"times":[731],"next_num":1,"trial_type":"ticket-choose","trial_index":109,"time_elapsed":1430394,"internal_node_id":"0.0-109.0"},{"result":131,"points":2,"place":1,"phase":1,"sequence":25,"prices":[161,180,131,251,175,196,171,146,105,201],"times":[495,517,951],"next_num":3,"trial_type":"ticket-choose","trial_index":110,"time_elapsed":1434600,"internal_node_id":"0.0-110.0"},{"result":131,"points":2,"place":1,"phase":1,"sequence":26,"prices":[156,181,171,256,175,200,131,150,110,206],"times":[424,503,506,659,632,555,821],"next_num":7,"trial_type":"ticket-choose","trial_index":111,"time_elapsed":1442115,"internal_node_id":"0.0-111.0"},{"result":151,"points":1,"place":3,"phase":1,"sequence":27,"prices":[151,176,126,251,170,196,165,145,105,201],"times":[1156],"next_num":1,"trial_type":"ticket-choose","trial_index":112,"time_elapsed":1445554,"internal_node_id":"0.0-112.0"},{"result":156,"points":1,"place":3,"phase":1,"sequence":28,"prices":[156,181,130,255,175,200,170,150,111,205],"times":[795],"next_num":1,"trial_type":"ticket-choose","trial_index":113,"time_elapsed":1448320,"internal_node_id":"0.0-113.0"},{"result":150,"points":1,"place":3,"phase":1,"sequence":29,"prices":[150,176,126,251,171,195,165,145,105,200],"times":[1125],"next_num":1,"trial_type":"ticket-choose","trial_index":114,"time_elapsed":1451275,"internal_node_id":"0.0-114.0"},{"result":65,"points":2,"place":1,"phase":1,"sequence":30,"prices":[220,236,176,65,185,101,110,61,156,191],"times":[1118,653,797,814],"next_num":4,"trial_type":"ticket-choose","trial_index":115,"time_elapsed":1457279,"internal_node_id":"0.0-115.0"},{"result":86,"points":3,"place":0,"phase":1,"sequence":31,"prices":[86,180,130,151,170,271,145,191,220,160],"times":[985],"next_num":1,"trial_type":"ticket-choose","trial_index":116,"time_elapsed":1460091,"internal_node_id":"0.0-116.0"},{"result":165,"points":1,"place":4,"phase":1,"sequence":32,"prices":[156,175,125,245,170,190,165,140,101,196],"times":[554,525,725,593,564,570,913],"next_num":7,"trial_type":"ticket-choose","trial_index":117,"time_elapsed":1467665,"internal_node_id":"0.0-117.0"},{"result":146,"points":1,"place":3,"phase":1,"sequence":33,"prices":[146,170,121,245,166,190,161,141,100,195],"times":[835],"next_num":1,"trial_type":"ticket-choose","trial_index":118,"time_elapsed":1470338,"internal_node_id":"0.0-118.0"},{"result":135,"points":3,"place":0,"phase":1,"sequence":34,"prices":[135,180,141,151,175,220,145,196,211,155],"times":[807],"next_num":1,"trial_type":"ticket-choose","trial_index":119,"time_elapsed":1473084,"internal_node_id":"0.0-119.0"},{"result":145,"points":1,"place":3,"phase":1,"sequence":35,"prices":[145,170,160,245,165,190,120,141,100,195],"times":[790],"next_num":1,"trial_type":"ticket-choose","trial_index":120,"time_elapsed":1476471,"internal_node_id":"0.0-120.0"},{"result":130,"points":2,"place":1,"phase":1,"sequence":36,"prices":[155,181,170,255,176,200,130,150,110,205],"times":[622,838,576,593,566,576,890],"next_num":7,"trial_type":"ticket-choose","trial_index":121,"time_elapsed":1484128,"internal_node_id":"0.0-121.0"},{"result":130,"points":3,"place":0,"phase":1,"sequence":37,"prices":[185,175,276,221,130,141,171,216,235,165],"times":[588,548,591,646,836],"next_num":5,"trial_type":"ticket-choose","trial_index":122,"time_elapsed":1490364,"internal_node_id":"0.0-122.0"},{"result":155,"points":1,"place":3,"phase":1,"sequence":38,"prices":[155,245,155,81,180,130,156,306,166,115],"times":[879],"next_num":1,"trial_type":"ticket-choose","trial_index":123,"time_elapsed":1493211,"internal_node_id":"0.0-123.0"},{"result":106,"points":3,"place":0,"phase":1,"sequence":39,"prices":[180,106,166,245,211,261,215,125,135,190],"times":[510,784],"next_num":2,"trial_type":"ticket-choose","trial_index":124,"time_elapsed":1496492,"internal_node_id":"0.0-124.0"},{"result":161,"points":1,"place":3,"phase":1,"sequence":40,"prices":[161,180,171,250,176,195,131,146,105,201],"times":[1174],"next_num":1,"trial_type":"ticket-choose","trial_index":125,"time_elapsed":1499600,"internal_node_id":"0.0-125.0"},{"result":150,"points":1,"place":2,"phase":1,"sequence":41,"prices":[176,150,276,171,261,116,130,201,166,231],"times":[504,724],"next_num":2,"trial_type":"ticket-choose","trial_index":126,"time_elapsed":1502766,"internal_node_id":"0.0-126.0"},{"result":81,"points":3,"place":0,"phase":1,"sequence":42,"prices":[81,205,130,151,191,261,145,210,250,165],"times":[643],"next_num":1,"trial_type":"ticket-choose","trial_index":127,"time_elapsed":1505147,"internal_node_id":"0.0-127.0"},{"result":150,"points":1,"place":4,"phase":1,"sequence":43,"prices":[176,150,141,91,290,201,106,266,206,126],"times":[668,689],"next_num":2,"trial_type":"ticket-choose","trial_index":128,"time_elapsed":1508707,"internal_node_id":"0.0-128.0"},{"result":150,"points":1,"place":3,"phase":1,"sequence":44,"prices":[150,170,160,240,166,185,121,136,95,191],"times":[643],"next_num":1,"trial_type":"ticket-choose","trial_index":129,"time_elapsed":1511068,"internal_node_id":"0.0-129.0"},{"result":111,"points":3,"place":0,"phase":1,"sequence":45,"prices":[175,211,266,286,111,216,220,245,230,165],"times":[1100,469,581,547,824],"next_num":5,"trial_type":"ticket-choose","trial_index":130,"time_elapsed":1517586,"internal_node_id":"0.0-130.0"},{"result":155,"points":0,"place":5,"phase":1,"sequence":46,"prices":[155,30,101,55,136,276,70,181,200,261],"times":[732],"next_num":1,"trial_type":"ticket-choose","trial_index":131,"time_elapsed":1520337,"internal_node_id":"0.0-131.0"},{"result":75,"points":3,"place":0,"phase":1,"sequence":47,"prices":[75,171,131,151,161,250,145,190,206,156],"times":[717],"next_num":1,"trial_type":"ticket-choose","trial_index":132,"time_elapsed":1523111,"internal_node_id":"0.0-132.0"},{"result":120,"points":2,"place":1,"phase":1,"sequence":48,"prices":[146,171,120,245,165,191,160,140,100,196],"times":[649,491,1150],"next_num":3,"trial_type":"ticket-choose","trial_index":133,"time_elapsed":1527710,"internal_node_id":"0.0-133.0"},{"result":136,"points":1,"place":2,"phase":1,"sequence":49,"prices":[255,166,266,175,136,145,155,61,96,301],"times":[697,573,564,642,929],"next_num":5,"trial_type":"ticket-choose","trial_index":134,"time_elapsed":1534237,"internal_node_id":"0.0-134.0"},{"responses":[{"value":1,"offby":0,"category":"$30 - $75","category_index":0},{"value":3,"offby":1,"category":"$76 - $120","category_index":1},{"value":6,"offby":2,"category":"$121 - $165","category_index":2},{"value":5,"offby":-1,"category":"$166 - $210","category_index":3},{"value":3,"offby":-3,"category":"$211 - $255","category_index":4},{"value":2,"offby":1,"category":"$256 - $300","category_index":5},{"value":0,"offby":0,"category":"$301 - $345","category_index":6}],"phase":1,"number":1,"trial_type":"bar-choose","trial_index":135,"time_elapsed":1552347,"internal_node_id":"0.0-135.0"},{"special_comment":"no","trial_type":"special_sequence","trial_index":136,"time_elapsed":1555754,"internal_node_id":"0.0-136.0"},{"during":"Nothing","bonus":256,"trial_type":"final","trial_index":137,"time_elapsed":1570568,"internal_node_id":"0.0-137.0"}],"bonus":256}