{"start_time":"2017-02-24 16:13:32","end_time":"2017-02-24 16:35:30","points_phase0":112,"points_phase1":96,"phase_order":1,"age":30,"gender":"f","tries":1,"during":"Nothing","worker_id":"A1Z0O5MC9DAE8C","assignment_id":"3EQHHY4HQTLPET7UD8860CZZ5ZB5G3","data":[{"rt":27585,"url":"\/tickets\/utils\/consent.html","trial_type":"html","trial_index":0,"time_elapsed":27721,"internal_node_id":"0.0-0.0"},{"age":30,"gender":"f","trial_type":"age","trial_index":1,"time_elapsed":32842,"internal_node_id":"0.0-1.0"},{"worker_id":"A1Z0O5MC9DAE8C","trial_type":"workerid","trial_index":2,"time_elapsed":41162,"internal_node_id":"0.0-2.0"},{"tries":1,"trial_type":"instructions_check","trial_index":3,"time_elapsed":68350,"internal_node_id":"0.0-3.0"},{"rt":13539,"url":"\/tickets\/utils\/start.html","trial_type":"html","trial_index":4,"time_elapsed":83053,"internal_node_id":"0.0-4.0"},{"trial_type":"number-animation","trial_index":5,"time_elapsed":100807,"internal_node_id":"0.0-5.0"},{"phase":0,"sequence":0,"avg":166,"response":160,"trial_type":"training_avg","trial_index":6,"time_elapsed":111890,"internal_node_id":"0.0-6.0"},{"trial_type":"number-animation","trial_index":7,"time_elapsed":123589,"internal_node_id":"0.0-7.0"},{"phase":0,"sequence":1,"avg":198,"response":175,"trial_type":"training_avg","trial_index":8,"time_elapsed":137433,"internal_node_id":"0.0-8.0"},{"trial_type":"number-animation","trial_index":9,"time_elapsed":149887,"internal_node_id":"0.0-9.0"},{"phase":0,"sequence":2,"avg":177,"response":165,"trial_type":"training_avg","trial_index":10,"time_elapsed":160640,"internal_node_id":"0.0-10.0"},{"trial_type":"number-animation","trial_index":11,"time_elapsed":171720,"internal_node_id":"0.0-11.0"},{"phase":0,"sequence":3,"avg":190,"response":180,"trial_type":"training_avg","trial_index":12,"time_elapsed":187752,"internal_node_id":"0.0-12.0"},{"trial_type":"number-animation","trial_index":13,"time_elapsed":200943,"internal_node_id":"0.0-13.0"},{"phase":0,"sequence":4,"avg":201,"response":190,"trial_type":"training_avg","trial_index":14,"time_elapsed":228051,"internal_node_id":"0.0-14.0"},{"responses":[{"value":0,"offby":-1,"category":"$30 - $75","category_index":0},{"value":1,"offby":-1,"category":"$76 - $120","category_index":1},{"value":6,"offby":2,"category":"$121 - $165","category_index":2},{"value":8,"offby":2,"category":"$166 - $210","category_index":3},{"value":3,"offby":-3,"category":"$211 - $255","category_index":4},{"value":2,"offby":1,"category":"$256 - $300","category_index":5},{"value":0,"offby":0,"category":"$301 - $345","category_index":6}],"phase":0,"number":0,"trial_type":"bar-choose","trial_index":15,"time_elapsed":321565,"internal_node_id":"0.0-15.0"},{"rt":15463,"url":"\/tickets\/\/utils\/testing.html","trial_type":"html","trial_index":16,"time_elapsed":338188,"internal_node_id":"0.0-16.0"},{"phase":0,"order":[40,5,31,23,29,48,8,33,35,7,36,41,16,38,27,26,39,28,25,37,49,10,1,18,14,13,43,42,0,46,4,45,24,30,44,17,6,12,34,32,20,19,3,2,15,47,21,9,22,11],"trial_type":"store_order","trial_index":17,"time_elapsed":339189,"internal_node_id":"0.0-17.0"},{"result":165,"points":2,"place":1,"phase":0,"sequence":-1,"prices":[184,180,224,165,181,199,185,193,218,126],"times":[3200,954,628,2210],"next_num":4,"trial_type":"ticket-choose","trial_index":18,"time_elapsed":349520,"internal_node_id":"0.0-18.0"},{"rt":5164,"url":"\/tickets\/utils\/testing_after.html","trial_type":"html","trial_index":19,"time_elapsed":355844,"internal_node_id":"0.0-19.0"},{"result":126,"points":2,"place":1,"phase":0,"sequence":0,"prices":[151,175,166,251,170,195,126,146,105,201],"times":[2498,741,520,556,1268,526,1264],"next_num":7,"trial_type":"ticket-choose","trial_index":20,"time_elapsed":366751,"internal_node_id":"0.0-20.0"},{"result":30,"points":3,"place":0,"phase":0,"sequence":1,"prices":[155,30,101,55,136,276,70,181,200,261],"times":[1051,1140],"next_num":2,"trial_type":"ticket-choose","trial_index":21,"time_elapsed":372527,"internal_node_id":"0.0-21.0"},{"result":130,"points":2,"place":1,"phase":0,"sequence":2,"prices":[155,181,170,255,176,200,130,150,110,205],"times":[1698,470,438,530,500,556,1096],"next_num":7,"trial_type":"ticket-choose","trial_index":22,"time_elapsed":381083,"internal_node_id":"0.0-22.0"},{"result":165,"points":1,"place":2,"phase":0,"sequence":3,"prices":[185,175,276,221,130,141,171,216,235,165],"times":[544,416,581,503,630,717,467,614,848,1466],"next_num":11,"trial_type":"ticket-choose","trial_index":23,"time_elapsed":392342,"internal_node_id":"0.0-23.0"},{"result":130,"points":2,"place":1,"phase":0,"sequence":4,"prices":[155,225,245,130,176,106,180,211,165,200],"times":[853,554,599,859],"next_num":4,"trial_type":"ticket-choose","trial_index":24,"time_elapsed":397672,"internal_node_id":"0.0-24.0"},{"result":120,"points":2,"place":1,"phase":0,"sequence":5,"prices":[145,170,160,245,165,190,120,141,100,195],"times":[710,1049,490,545,638,1538,976],"next_num":7,"trial_type":"ticket-choose","trial_index":25,"time_elapsed":406646,"internal_node_id":"0.0-25.0"},{"result":111,"points":3,"place":0,"phase":0,"sequence":6,"prices":[111,231,131,146,171,295,141,241,271,150],"times":[1169],"next_num":1,"trial_type":"ticket-choose","trial_index":26,"time_elapsed":409671,"internal_node_id":"0.0-26.0"},{"result":86,"points":3,"place":0,"phase":0,"sequence":7,"prices":[86,180,130,151,170,271,145,191,220,160],"times":[787],"next_num":1,"trial_type":"ticket-choose","trial_index":27,"time_elapsed":412275,"internal_node_id":"0.0-27.0"},{"result":106,"points":2,"place":1,"phase":0,"sequence":8,"prices":[185,180,235,210,106,266,76,115,250,205],"times":[1041,475,462,439,848],"next_num":5,"trial_type":"ticket-choose","trial_index":28,"time_elapsed":418077,"internal_node_id":"0.0-28.0"},{"result":136,"points":1,"place":2,"phase":0,"sequence":9,"prices":[255,166,266,175,136,145,155,61,96,301],"times":[489,610,461,453,656],"next_num":5,"trial_type":"ticket-choose","trial_index":29,"time_elapsed":423229,"internal_node_id":"0.0-29.0"},{"result":125,"points":2,"place":1,"phase":0,"sequence":10,"prices":[155,175,166,245,171,190,125,140,101,196],"times":[434,480,506,503,509,497,784],"next_num":7,"trial_type":"ticket-choose","trial_index":30,"time_elapsed":429940,"internal_node_id":"0.0-30.0"},{"result":121,"points":2,"place":1,"phase":0,"sequence":11,"prices":[150,170,160,240,166,185,121,136,95,191],"times":[1242,493,563,466,524,458,976],"next_num":7,"trial_type":"ticket-choose","trial_index":31,"time_elapsed":437724,"internal_node_id":"0.0-31.0"},{"result":101,"points":3,"place":0,"phase":0,"sequence":12,"prices":[156,175,125,245,170,190,165,140,101,196],"times":[569,389,1232,486,510,506,890,601,726],"next_num":9,"trial_type":"ticket-choose","trial_index":32,"time_elapsed":447475,"internal_node_id":"0.0-32.0"},{"result":100,"points":3,"place":0,"phase":0,"sequence":13,"prices":[146,170,121,245,166,190,161,141,100,195],"times":[612,445,908,462,442,466,466,506,694],"next_num":9,"trial_type":"ticket-choose","trial_index":33,"time_elapsed":455862,"internal_node_id":"0.0-33.0"},{"result":105,"points":3,"place":0,"phase":0,"sequence":14,"prices":[160,180,130,251,176,195,170,146,105,200],"times":[330,442,495,471,454,698,576,657,727],"next_num":9,"trial_type":"ticket-choose","trial_index":34,"time_elapsed":464323,"internal_node_id":"0.0-34.0"},{"result":111,"points":3,"place":0,"phase":0,"sequence":15,"prices":[156,181,130,255,175,200,170,150,111,205],"times":[698,518,600,570,536,629,505,470,763],"next_num":9,"trial_type":"ticket-choose","trial_index":35,"time_elapsed":473309,"internal_node_id":"0.0-35.0"},{"result":105,"points":3,"place":0,"phase":0,"sequence":16,"prices":[161,180,131,251,175,196,171,146,105,201],"times":[4153,461,454,442,452,456,495,524,805],"next_num":9,"trial_type":"ticket-choose","trial_index":36,"time_elapsed":485007,"internal_node_id":"0.0-36.0"},{"result":51,"points":3,"place":0,"phase":0,"sequence":17,"prices":[221,175,51,196,146,130,166,80,126,156],"times":[291,473,747],"next_num":3,"trial_type":"ticket-choose","trial_index":37,"time_elapsed":488555,"internal_node_id":"0.0-37.0"},{"result":65,"points":2,"place":1,"phase":0,"sequence":18,"prices":[220,236,176,65,185,101,110,61,156,191],"times":[555,504,517,689],"next_num":4,"trial_type":"ticket-choose","trial_index":38,"time_elapsed":493145,"internal_node_id":"0.0-38.0"},{"result":75,"points":3,"place":0,"phase":0,"sequence":19,"prices":[75,171,131,151,161,250,145,190,206,156],"times":[797],"next_num":1,"trial_type":"ticket-choose","trial_index":39,"time_elapsed":495635,"internal_node_id":"0.0-39.0"},{"result":165,"points":2,"place":1,"phase":0,"sequence":20,"prices":[175,211,266,286,111,216,220,245,230,165],"times":[570,561,511,480,1119,428,557,482,508,1212],"next_num":11,"trial_type":"ticket-choose","trial_index":40,"time_elapsed":505728,"internal_node_id":"0.0-40.0"},{"result":126,"points":2,"place":1,"phase":0,"sequence":21,"prices":[156,175,126,246,170,190,165,140,100,196],"times":[507,509,981],"next_num":3,"trial_type":"ticket-choose","trial_index":41,"time_elapsed":509801,"internal_node_id":"0.0-41.0"},{"result":126,"points":2,"place":1,"phase":0,"sequence":22,"prices":[156,176,165,246,171,190,126,141,101,196],"times":[457,446,458,458,597,610,745],"next_num":7,"trial_type":"ticket-choose","trial_index":42,"time_elapsed":516511,"internal_node_id":"0.0-42.0"},{"result":135,"points":1,"place":2,"phase":0,"sequence":23,"prices":[150,171,120,241,165,185,160,135,96,190],"times":[345,418,440,467,475,506,530,874],"next_num":8,"trial_type":"ticket-choose","trial_index":43,"time_elapsed":523673,"internal_node_id":"0.0-43.0"},{"result":105,"points":3,"place":0,"phase":0,"sequence":24,"prices":[105,216,146,165,210,260,161,235,241,185],"times":[987],"next_num":1,"trial_type":"ticket-choose","trial_index":44,"time_elapsed":526212,"internal_node_id":"0.0-44.0"},{"result":105,"points":3,"place":0,"phase":0,"sequence":25,"prices":[150,175,166,251,170,196,126,145,105,201],"times":[699,503,518,506,490,663,1609,805,677],"next_num":9,"trial_type":"ticket-choose","trial_index":45,"time_elapsed":536019,"internal_node_id":"0.0-45.0"},{"result":120,"points":3,"place":0,"phase":0,"sequence":26,"prices":[120,221,135,185,200,261,181,251,255,196],"times":[2014],"next_num":1,"trial_type":"ticket-choose","trial_index":46,"time_elapsed":539693,"internal_node_id":"0.0-46.0"},{"result":131,"points":2,"place":1,"phase":0,"sequence":27,"prices":[161,180,171,250,176,195,131,146,105,201],"times":[620,649,546,581,555,526,1136],"next_num":7,"trial_type":"ticket-choose","trial_index":47,"time_elapsed":547146,"internal_node_id":"0.0-47.0"},{"result":81,"points":3,"place":0,"phase":0,"sequence":28,"prices":[81,205,130,151,191,261,145,210,250,165],"times":[921],"next_num":1,"trial_type":"ticket-choose","trial_index":48,"time_elapsed":549634,"internal_node_id":"0.0-48.0"},{"result":125,"points":1,"place":2,"phase":0,"sequence":29,"prices":[226,205,125,120,115,135,180,145,150,220],"times":[620,574,819],"next_num":3,"trial_type":"ticket-choose","trial_index":49,"time_elapsed":553639,"internal_node_id":"0.0-49.0"},{"result":91,"points":3,"place":0,"phase":0,"sequence":30,"prices":[176,150,141,91,290,201,106,266,206,126],"times":[510,762,572,1004],"next_num":4,"trial_type":"ticket-choose","trial_index":50,"time_elapsed":558871,"internal_node_id":"0.0-50.0"},{"result":45,"points":3,"place":0,"phase":0,"sequence":31,"prices":[186,156,191,120,195,145,45,130,246,176],"times":[517,766,561,498,450,445,679],"next_num":7,"trial_type":"ticket-choose","trial_index":51,"time_elapsed":565712,"internal_node_id":"0.0-51.0"},{"result":81,"points":3,"place":0,"phase":0,"sequence":32,"prices":[155,245,155,81,180,130,156,306,166,115],"times":[599,501,802,665],"next_num":4,"trial_type":"ticket-choose","trial_index":52,"time_elapsed":570619,"internal_node_id":"0.0-52.0"},{"result":215,"points":0,"place":7,"phase":0,"sequence":33,"prices":[246,145,155,191,176,270,185,136,160,215],"times":[686,432,537,526,474,483,580,1300,783,902],"next_num":11,"trial_type":"ticket-choose","trial_index":53,"time_elapsed":581521,"internal_node_id":"0.0-53.0"},{"result":155,"points":1,"place":4,"phase":0,"sequence":34,"prices":[135,180,141,151,175,220,145,196,211,155],"times":[1017,504,483,457,487,543,1026,777,611,1111],"next_num":11,"trial_type":"ticket-choose","trial_index":54,"time_elapsed":592578,"internal_node_id":"0.0-54.0"},{"result":66,"points":3,"place":0,"phase":0,"sequence":35,"prices":[66,201,96,150,185,230,121,216,225,165],"times":[654],"next_num":1,"trial_type":"ticket-choose","trial_index":55,"time_elapsed":594895,"internal_node_id":"0.0-55.0"},{"result":131,"points":2,"place":1,"phase":0,"sequence":36,"prices":[156,181,131,256,176,200,171,151,111,206],"times":[750,1901,928],"next_num":3,"trial_type":"ticket-choose","trial_index":56,"time_elapsed":600426,"internal_node_id":"0.0-56.0"},{"result":126,"points":2,"place":1,"phase":0,"sequence":37,"prices":[150,176,126,251,171,195,165,145,105,200],"times":[669,482,698],"next_num":3,"trial_type":"ticket-choose","trial_index":57,"time_elapsed":604258,"internal_node_id":"0.0-57.0"},{"result":175,"points":1,"place":4,"phase":0,"sequence":38,"prices":[130,195,141,155,181,226,150,216,221,175],"times":[520,515,518,817,509,523,5791,560,622,769],"next_num":11,"trial_type":"ticket-choose","trial_index":58,"time_elapsed":618862,"internal_node_id":"0.0-58.0"},{"result":150,"points":2,"place":1,"phase":0,"sequence":39,"prices":[181,156,145,165,236,231,201,260,150,185],"times":[478,633,592,5460,574,543,653,553,1501],"next_num":9,"trial_type":"ticket-choose","trial_index":59,"time_elapsed":633215,"internal_node_id":"0.0-59.0"},{"result":120,"points":2,"place":1,"phase":0,"sequence":40,"prices":[146,171,120,245,165,191,160,140,100,196],"times":[560,519,883],"next_num":3,"trial_type":"ticket-choose","trial_index":60,"time_elapsed":637780,"internal_node_id":"0.0-60.0"},{"result":105,"points":3,"place":0,"phase":0,"sequence":41,"prices":[160,180,170,251,176,195,131,146,105,200],"times":[508,469,444,504,509,553,463,546,631],"next_num":9,"trial_type":"ticket-choose","trial_index":61,"time_elapsed":645788,"internal_node_id":"0.0-61.0"},{"result":105,"points":3,"place":0,"phase":0,"sequence":42,"prices":[151,176,126,251,170,196,165,145,105,201],"times":[521,452,1492,443,450,472,426,494,636],"next_num":9,"trial_type":"ticket-choose","trial_index":62,"time_elapsed":654449,"internal_node_id":"0.0-62.0"},{"result":95,"points":3,"place":0,"phase":0,"sequence":43,"prices":[150,171,121,241,165,185,160,136,95,191],"times":[414,490,383,455,521,515,670,1401,648],"next_num":9,"trial_type":"ticket-choose","trial_index":63,"time_elapsed":663331,"internal_node_id":"0.0-63.0"},{"result":181,"points":1,"place":4,"phase":0,"sequence":44,"prices":[95,205,106,151,186,271,145,210,215,181],"times":[421,748,479,482,385,481,460,447,444,467],"next_num":11,"trial_type":"ticket-choose","trial_index":64,"time_elapsed":671615,"internal_node_id":"0.0-64.0"},{"result":120,"points":2,"place":1,"phase":0,"sequence":45,"prices":[150,170,160,241,166,186,120,136,96,191],"times":[333,457,446,438,451,869,871],"next_num":7,"trial_type":"ticket-choose","trial_index":65,"time_elapsed":678297,"internal_node_id":"0.0-65.0"},{"result":231,"points":0,"place":7,"phase":0,"sequence":46,"prices":[176,150,276,171,261,116,130,201,166,231],"times":[652,363,442,450,442,485,508,665,621,488],"next_num":11,"trial_type":"ticket-choose","trial_index":66,"time_elapsed":687135,"internal_node_id":"0.0-66.0"},{"result":120,"points":2,"place":1,"phase":0,"sequence":47,"prices":[145,171,161,245,165,191,120,140,100,196],"times":[440,546,1121,531,458,529,962],"next_num":7,"trial_type":"ticket-choose","trial_index":67,"time_elapsed":694576,"internal_node_id":"0.0-67.0"},{"result":110,"points":3,"place":0,"phase":0,"sequence":48,"prices":[156,181,171,256,175,200,131,150,110,206],"times":[550,435,478,520,529,3266,572,896,637],"next_num":9,"trial_type":"ticket-choose","trial_index":68,"time_elapsed":707362,"internal_node_id":"0.0-68.0"},{"result":106,"points":3,"place":0,"phase":0,"sequence":49,"prices":[180,106,166,245,211,261,215,125,135,190],"times":[4039,998],"next_num":2,"trial_type":"ticket-choose","trial_index":69,"time_elapsed":714680,"internal_node_id":"0.0-69.0"},{"responses":[{"value":0,"offby":-1,"category":"$30 - $75","category_index":0},{"value":3,"offby":1,"category":"$76 - $120","category_index":1},{"value":8,"offby":4,"category":"$121 - $165","category_index":2},{"value":5,"offby":-1,"category":"$166 - $210","category_index":3},{"value":4,"offby":-2,"category":"$211 - $255","category_index":4},{"value":0,"offby":-1,"category":"$256 - $300","category_index":5},{"value":0,"offby":0,"category":"$301 - $345","category_index":6}],"phase":0,"number":1,"trial_type":"bar-choose","trial_index":70,"time_elapsed":769105,"internal_node_id":"0.0-70.0"},{"rt":6345,"url":"\/tickets\/utils\/start2.html","trial_type":"html","trial_index":71,"time_elapsed":776616,"internal_node_id":"0.0-71.0"},{"trial_type":"number-animation","trial_index":72,"time_elapsed":785702,"internal_node_id":"0.0-72.0"},{"phase":1,"sequence":0,"avg":180,"response":170,"trial_type":"training_avg","trial_index":73,"time_elapsed":790045,"internal_node_id":"0.0-73.0"},{"trial_type":"number-animation","trial_index":74,"time_elapsed":827083,"internal_node_id":"0.0-74.0"},{"phase":1,"sequence":1,"avg":178,"response":175,"trial_type":"training_avg","trial_index":75,"time_elapsed":832478,"internal_node_id":"0.0-75.0"},{"trial_type":"number-animation","trial_index":76,"time_elapsed":870589,"internal_node_id":"0.0-76.0"},{"phase":1,"sequence":2,"avg":176,"response":173,"trial_type":"training_avg","trial_index":77,"time_elapsed":874462,"internal_node_id":"0.0-77.0"},{"trial_type":"number-animation","trial_index":78,"time_elapsed":880351,"internal_node_id":"0.0-78.0"},{"phase":1,"sequence":3,"avg":178,"response":175,"trial_type":"training_avg","trial_index":79,"time_elapsed":883985,"internal_node_id":"0.0-79.0"},{"trial_type":"number-animation","trial_index":80,"time_elapsed":889857,"internal_node_id":"0.0-80.0"},{"phase":1,"sequence":4,"avg":179,"response":176,"trial_type":"training_avg","trial_index":81,"time_elapsed":894422,"internal_node_id":"0.0-81.0"},{"responses":[{"value":0,"offby":0,"category":"$140 - $250","category_index":0},{"value":2,"offby":2,"category":"$151 - $160","category_index":1},{"value":6,"offby":2,"category":"$161 - $170","category_index":2},{"value":6,"offby":0,"category":"$171 - $180","category_index":3},{"value":5,"offby":-2,"category":"$181 - $190","category_index":4},{"value":1,"offby":-2,"category":"$191 - $200","category_index":5},{"value":0,"offby":0,"category":"$201 - $210","category_index":6}],"phase":1,"number":0,"trial_type":"bar-choose","trial_index":82,"time_elapsed":916003,"internal_node_id":"0.0-82.0"},{"rt":1573,"url":"\/tickets\/utils\/testing2.html","trial_type":"html","trial_index":83,"time_elapsed":918742,"internal_node_id":"0.0-83.0"},{"phase":1,"order":[7,44,14,38,49,23,29,24,34,39,4,20,1,19,9,11,8,35,43,28,46,0,5,17,26,6,27,12,30,36,45,37,42,48,32,31,10,3,33,47,18,13,2,16,25,21,40,22,15,41],"trial_type":"store_order","trial_index":84,"time_elapsed":919749,"internal_node_id":"0.0-84.0"},{"result":167,"points":3,"place":0,"phase":1,"sequence":0,"prices":[179,174,199,178,196,167,170,184,177,190],"times":[1308,433,510,455,576,656],"next_num":6,"trial_type":"ticket-choose","trial_index":85,"time_elapsed":926373,"internal_node_id":"0.0-85.0"},{"result":169,"points":2,"place":1,"phase":1,"sequence":1,"prices":[175,179,177,193,178,182,169,172,164,183],"times":[364,422,426,508,413,446,1009],"next_num":7,"trial_type":"ticket-choose","trial_index":86,"time_elapsed":932791,"internal_node_id":"0.0-86.0"},{"result":177,"points":1,"place":4,"phase":1,"sequence":2,"prices":[157,184,163,174,181,190,168,187,189,177],"times":[330,382,530,385,485,495,453,916,683,538],"next_num":11,"trial_type":"ticket-choose","trial_index":87,"time_elapsed":941609,"internal_node_id":"0.0-87.0"},{"result":164,"points":3,"place":0,"phase":1,"sequence":3,"prices":[173,178,176,193,177,182,168,172,164,183],"times":[541,457,418,500,453,516,1022,541,913],"next_num":9,"trial_type":"ticket-choose","trial_index":88,"time_elapsed":950372,"internal_node_id":"0.0-88.0"},{"result":174,"points":1,"place":4,"phase":1,"sequence":4,"prices":[166,190,170,173,178,203,172,192,198,174],"times":[308,471,513,542,488,619,700,568,500,539],"next_num":11,"trial_type":"ticket-choose","trial_index":89,"time_elapsed":959113,"internal_node_id":"0.0-89.0"},{"result":181,"points":0,"place":5,"phase":1,"sequence":5,"prices":[193,173,175,182,179,198,181,171,176,187],"times":[610,425,1110,483,745,522,1197],"next_num":7,"trial_type":"ticket-choose","trial_index":90,"time_elapsed":967270,"internal_node_id":"0.0-90.0"},{"result":165,"points":3,"place":0,"phase":1,"sequence":6,"prices":[176,180,170,194,179,183,178,173,165,184],"times":[468,481,445,551,516,539,479,617,619],"next_num":9,"trial_type":"ticket-choose","trial_index":91,"time_elapsed":975271,"internal_node_id":"0.0-91.0"},{"result":179,"points":1,"place":4,"phase":1,"sequence":7,"prices":[170,183,172,175,180,189,174,187,188,179],"times":[726,508,814,687,492,491,492,928,495,825],"next_num":11,"trial_type":"ticket-choose","trial_index":92,"time_elapsed":985205,"internal_node_id":"0.0-92.0"},{"result":154,"points":3,"place":0,"phase":1,"sequence":8,"prices":[188,179,154,183,173,170,177,160,169,175],"times":[753,842,679],"next_num":3,"trial_type":"ticket-choose","trial_index":93,"time_elapsed":989532,"internal_node_id":"0.0-93.0"},{"result":169,"points":2,"place":1,"phase":1,"sequence":9,"prices":[174,179,177,194,178,183,169,173,165,184],"times":[567,453,459,523,867,529,699],"next_num":7,"trial_type":"ticket-choose","trial_index":94,"time_elapsed":996558,"internal_node_id":"0.0-94.0"},{"result":169,"points":1,"place":2,"phase":1,"sequence":10,"prices":[189,185,169,168,167,171,180,173,174,188],"times":[740,473,659],"next_num":3,"trial_type":"ticket-choose","trial_index":95,"time_elapsed":1000566,"internal_node_id":"0.0-95.0"},{"result":165,"points":3,"place":0,"phase":1,"sequence":11,"prices":[180,165,177,193,186,196,187,169,171,182],"times":[1028,607],"next_num":2,"trial_type":"ticket-choose","trial_index":96,"time_elapsed":1004155,"internal_node_id":"0.0-96.0"},{"result":174,"points":1,"place":3,"phase":1,"sequence":12,"prices":[174,178,168,192,177,181,176,171,163,182],"times":[804],"next_num":1,"trial_type":"ticket-choose","trial_index":97,"time_elapsed":1006667,"internal_node_id":"0.0-97.0"},{"result":177,"points":1,"place":2,"phase":1,"sequence":13,"prices":[181,179,199,188,170,172,178,187,191,177],"times":[492,460,483,396,651,424,422,514,535,463],"next_num":11,"trial_type":"ticket-choose","trial_index":98,"time_elapsed":1015130,"internal_node_id":"0.0-98.0"},{"result":183,"points":1,"place":4,"phase":1,"sequence":14,"prices":[168,188,171,181,184,196,180,194,195,183],"times":[363,462,770,484,470,653,470,557,512,530],"next_num":11,"trial_type":"ticket-choose","trial_index":99,"time_elapsed":1023826,"internal_node_id":"0.0-99.0"},{"result":176,"points":1,"place":2,"phase":1,"sequence":15,"prices":[165,187,173,177,186,196,176,191,192,181],"times":[345,378,394,386,507,506,1001],"next_num":7,"trial_type":"ticket-choose","trial_index":100,"time_elapsed":1030237,"internal_node_id":"0.0-100.0"},{"result":156,"points":3,"place":0,"phase":1,"sequence":16,"prices":[195,177,197,179,171,173,175,156,163,204],"times":[556,812,470,478,498,613,960,940],"next_num":8,"trial_type":"ticket-choose","trial_index":101,"time_elapsed":1038643,"internal_node_id":"0.0-101.0"},{"result":159,"points":3,"place":0,"phase":1,"sequence":17,"prices":[159,178,170,174,176,194,173,182,185,175],"times":[1237],"next_num":1,"trial_type":"ticket-choose","trial_index":102,"time_elapsed":1041508,"internal_node_id":"0.0-102.0"},{"result":163,"points":3,"place":0,"phase":1,"sequence":18,"prices":[163,185,165,174,181,198,173,186,187,180],"times":[803],"next_num":1,"trial_type":"ticket-choose","trial_index":103,"time_elapsed":1043979,"internal_node_id":"0.0-103.0"},{"result":168,"points":2,"place":1,"phase":1,"sequence":19,"prices":[181,175,182,168,183,173,153,170,193,179],"times":[516,1094,536,657],"next_num":4,"trial_type":"ticket-choose","trial_index":104,"time_elapsed":1048985,"internal_node_id":"0.0-104.0"},{"result":170,"points":2,"place":1,"phase":1,"sequence":20,"prices":[175,189,193,170,179,165,180,186,177,184],"times":[458,405,504,616],"next_num":4,"trial_type":"ticket-choose","trial_index":105,"time_elapsed":1053181,"internal_node_id":"0.0-105.0"},{"result":170,"points":2,"place":1,"phase":1,"sequence":21,"prices":[175,180,170,195,179,184,178,174,166,185],"times":[459,464,663],"next_num":3,"trial_type":"ticket-choose","trial_index":106,"time_elapsed":1056915,"internal_node_id":"0.0-106.0"},{"result":175,"points":1,"place":3,"phase":1,"sequence":22,"prices":[175,179,169,193,178,182,177,172,164,183],"times":[743],"next_num":1,"trial_type":"ticket-choose","trial_index":107,"time_elapsed":1059291,"internal_node_id":"0.0-107.0"},{"result":173,"points":1,"place":3,"phase":1,"sequence":23,"prices":[173,178,168,193,177,182,176,172,164,183],"times":[1812],"next_num":1,"trial_type":"ticket-choose","trial_index":108,"time_elapsed":1062933,"internal_node_id":"0.0-108.0"},{"result":175,"points":1,"place":3,"phase":1,"sequence":24,"prices":[175,180,178,195,179,184,170,174,166,185],"times":[929],"next_num":1,"trial_type":"ticket-choose","trial_index":109,"time_elapsed":1065541,"internal_node_id":"0.0-109.0"},{"result":165,"points":3,"place":0,"phase":1,"sequence":25,"prices":[176,180,178,194,179,183,170,173,165,184],"times":[626,519,543,647,2636,574,1130,584,637],"next_num":9,"trial_type":"ticket-choose","trial_index":110,"time_elapsed":1076687,"internal_node_id":"0.0-110.0"},{"result":157,"points":2,"place":1,"phase":1,"sequence":26,"prices":[188,191,179,157,181,164,166,156,175,182],"times":[628,750,915,657],"next_num":4,"trial_type":"ticket-choose","trial_index":111,"time_elapsed":1082173,"internal_node_id":"0.0-111.0"},{"result":160,"points":3,"place":0,"phase":1,"sequence":27,"prices":[175,193,175,160,180,170,175,205,177,167],"times":[706,465,456,873],"next_num":4,"trial_type":"ticket-choose","trial_index":112,"time_elapsed":1086878,"internal_node_id":"0.0-112.0"},{"result":169,"points":2,"place":1,"phase":1,"sequence":28,"prices":[175,179,169,193,178,182,177,172,164,183],"times":[979,452,890],"next_num":3,"trial_type":"ticket-choose","trial_index":113,"time_elapsed":1091115,"internal_node_id":"0.0-113.0"},{"result":166,"points":3,"place":0,"phase":1,"sequence":29,"prices":[179,186,197,201,166,187,188,193,190,177],"times":[476,472,497,612,636],"next_num":5,"trial_type":"ticket-choose","trial_index":114,"time_elapsed":1096356,"internal_node_id":"0.0-114.0"},{"result":169,"points":2,"place":1,"phase":1,"sequence":30,"prices":[175,179,177,193,178,182,169,172,164,183],"times":[2806,391,411,569,453,443,1071],"next_num":7,"trial_type":"ticket-choose","trial_index":115,"time_elapsed":1105277,"internal_node_id":"0.0-115.0"},{"result":162,"points":3,"place":0,"phase":1,"sequence":31,"prices":[179,174,172,162,202,184,165,197,185,169],"times":[395,460,460,631],"next_num":4,"trial_type":"ticket-choose","trial_index":116,"time_elapsed":1109371,"internal_node_id":"0.0-116.0"},{"result":176,"points":1,"place":4,"phase":1,"sequence":32,"prices":[161,180,170,174,178,198,173,182,188,176],"times":[356,411,491,552,407,470,527,470,491,509],"next_num":11,"trial_type":"ticket-choose","trial_index":117,"time_elapsed":1117473,"internal_node_id":"0.0-117.0"},{"result":160,"points":3,"place":0,"phase":1,"sequence":33,"prices":[160,185,170,174,182,196,173,186,194,177],"times":[588],"next_num":1,"trial_type":"ticket-choose","trial_index":118,"time_elapsed":1119609,"internal_node_id":"0.0-118.0"},{"result":175,"points":0,"place":5,"phase":1,"sequence":34,"prices":[175,150,164,155,171,199,158,180,184,196],"times":[869],"next_num":1,"trial_type":"ticket-choose","trial_index":119,"time_elapsed":1122001,"internal_node_id":"0.0-119.0"},{"result":168,"points":2,"place":1,"phase":1,"sequence":35,"prices":[174,178,168,192,177,181,176,171,163,182],"times":[386,473,2898],"next_num":3,"trial_type":"ticket-choose","trial_index":120,"time_elapsed":1127851,"internal_node_id":"0.0-120.0"},{"result":169,"points":2,"place":1,"phase":1,"sequence":36,"prices":[174,179,177,194,178,183,169,173,165,184],"times":[1447,495,841,624,482,1130,672],"next_num":7,"trial_type":"ticket-choose","trial_index":121,"time_elapsed":1136461,"internal_node_id":"0.0-121.0"},{"result":165,"points":3,"place":0,"phase":1,"sequence":37,"prices":[176,180,178,194,179,183,170,173,165,184],"times":[2573,951,516,614,1071,513,450,2173,587],"next_num":9,"trial_type":"ticket-choose","trial_index":122,"time_elapsed":1149436,"internal_node_id":"0.0-122.0"},{"result":165,"points":2,"place":1,"phase":1,"sequence":38,"prices":[181,180,191,186,165,197,159,167,194,185],"times":[1952,470,636,435,642],"next_num":5,"trial_type":"ticket-choose","trial_index":123,"time_elapsed":1156049,"internal_node_id":"0.0-123.0"},{"result":175,"points":1,"place":4,"phase":1,"sequence":39,"prices":[171,180,172,174,179,188,173,183,186,175],"times":[572,522,472,479,431,522,418,733,4150,1137],"next_num":11,"trial_type":"ticket-choose","trial_index":124,"time_elapsed":1169098,"internal_node_id":"0.0-124.0"},{"result":168,"points":2,"place":1,"phase":1,"sequence":40,"prices":[174,178,176,192,177,181,168,171,163,182],"times":[849,3647,529,542,428,458,635],"next_num":7,"trial_type":"ticket-choose","trial_index":125,"time_elapsed":1179259,"internal_node_id":"0.0-125.0"},{"result":168,"points":2,"place":1,"phase":1,"sequence":41,"prices":[173,178,168,193,177,182,176,172,164,183],"times":[1245,509,625],"next_num":3,"trial_type":"ticket-choose","trial_index":126,"time_elapsed":1183821,"internal_node_id":"0.0-126.0"},{"result":169,"points":2,"place":1,"phase":1,"sequence":42,"prices":[174,179,169,194,178,183,177,173,165,184],"times":[826,459,773],"next_num":3,"trial_type":"ticket-choose","trial_index":127,"time_elapsed":1187913,"internal_node_id":"0.0-127.0"},{"result":169,"points":2,"place":1,"phase":1,"sequence":43,"prices":[174,179,169,194,178,183,177,173,165,184],"times":[656,339,1233],"next_num":3,"trial_type":"ticket-choose","trial_index":128,"time_elapsed":1192273,"internal_node_id":"0.0-128.0"},{"result":166,"points":3,"place":0,"phase":1,"sequence":44,"prices":[175,180,178,195,179,184,170,174,166,185],"times":[632,469,476,582,471,467,449,446,606],"next_num":9,"trial_type":"ticket-choose","trial_index":129,"time_elapsed":1200199,"internal_node_id":"0.0-129.0"},{"result":181,"points":0,"place":5,"phase":1,"sequence":45,"prices":[180,175,173,177,191,190,184,196,174,181],"times":[421,397,412,329,493,480,428,1170,1030,524],"next_num":11,"trial_type":"ticket-choose","trial_index":130,"time_elapsed":1209305,"internal_node_id":"0.0-130.0"},{"result":168,"points":2,"place":1,"phase":1,"sequence":46,"prices":[174,178,176,192,177,181,168,171,163,182],"times":[354,402,444,551,417,436,645],"next_num":7,"trial_type":"ticket-choose","trial_index":131,"time_elapsed":1215516,"internal_node_id":"0.0-131.0"},{"result":178,"points":1,"place":4,"phase":1,"sequence":47,"prices":[176,180,170,194,179,183,178,173,165,184],"times":[338,420,1097,528,432,461,702],"next_num":7,"trial_type":"ticket-choose","trial_index":132,"time_elapsed":1222374,"internal_node_id":"0.0-132.0"},{"result":168,"points":2,"place":1,"phase":1,"sequence":48,"prices":[173,178,176,193,177,182,168,172,164,183],"times":[673,691,466,537,470,464,740],"next_num":7,"trial_type":"ticket-choose","trial_index":133,"time_elapsed":1229399,"internal_node_id":"0.0-133.0"},{"result":166,"points":3,"place":0,"phase":1,"sequence":49,"prices":[175,180,170,195,179,184,178,174,166,185],"times":[515,296,254,514,399,423,418,388,591],"next_num":9,"trial_type":"ticket-choose","trial_index":134,"time_elapsed":1237504,"internal_node_id":"0.0-134.0"},{"responses":[{"value":0,"offby":0,"category":"$140 - $250","category_index":0},{"value":3,"offby":3,"category":"$151 - $160","category_index":1},{"value":6,"offby":2,"category":"$161 - $170","category_index":2},{"value":8,"offby":2,"category":"$171 - $180","category_index":3},{"value":3,"offby":-4,"category":"$181 - $190","category_index":4},{"value":0,"offby":-3,"category":"$191 - $200","category_index":5},{"value":0,"offby":0,"category":"$201 - $210","category_index":6}],"phase":1,"number":1,"trial_type":"bar-choose","trial_index":135,"time_elapsed":1271386,"internal_node_id":"0.0-135.0"},{"special_comment":"No.","trial_type":"special_sequence","trial_index":136,"time_elapsed":1298830,"internal_node_id":"0.0-136.0"},{"during":"Nothing","bonus":276,"trial_type":"final","trial_index":137,"time_elapsed":1316184,"internal_node_id":"0.0-137.0"}],"bonus":276}