{"start_time":"2017-02-22 10:08:24","end_time":"2017-02-22 10:45:19","points_phase0":125,"points_phase1":115,"phase_order":1,"age":22,"gender":"f","tries":1,"during":"Nothing","worker_id":"A1ZB2NY0F9QNP0","assignment_id":"30MVJZJNHN6I6IZ7O46Q95WHJAP9JQ","data":[{"rt":111454,"url":"\/tickets\/utils\/consent.html","trial_type":"html","trial_index":0,"time_elapsed":111560,"internal_node_id":"0.0-0.0"},{"age":22,"gender":"f","trial_type":"age","trial_index":1,"time_elapsed":124732,"internal_node_id":"0.0-1.0"},{"worker_id":"A1ZB2NY0F9QNP0","trial_type":"workerid","trial_index":2,"time_elapsed":135263,"internal_node_id":"0.0-2.0"},{"tries":1,"trial_type":"instructions_check","trial_index":3,"time_elapsed":172301,"internal_node_id":"0.0-3.0"},{"rt":17495,"url":"\/tickets\/utils\/start.html","trial_type":"html","trial_index":4,"time_elapsed":190948,"internal_node_id":"0.0-4.0"},{"trial_type":"number-animation","trial_index":5,"time_elapsed":228218,"internal_node_id":"0.0-5.0"},{"phase":0,"sequence":0,"avg":182,"response":175,"trial_type":"training_avg","trial_index":6,"time_elapsed":243155,"internal_node_id":"0.0-6.0"},{"trial_type":"number-animation","trial_index":7,"time_elapsed":270037,"internal_node_id":"0.0-7.0"},{"phase":0,"sequence":1,"avg":188,"response":186,"trial_type":"training_avg","trial_index":8,"time_elapsed":284904,"internal_node_id":"0.0-8.0"},{"trial_type":"number-animation","trial_index":9,"time_elapsed":306217,"internal_node_id":"0.0-9.0"},{"phase":0,"sequence":2,"avg":176,"response":170,"trial_type":"training_avg","trial_index":10,"time_elapsed":317128,"internal_node_id":"0.0-10.0"},{"trial_type":"number-animation","trial_index":11,"time_elapsed":371409,"internal_node_id":"0.0-11.0"},{"phase":0,"sequence":3,"avg":180,"response":181,"trial_type":"training_avg","trial_index":12,"time_elapsed":389401,"internal_node_id":"0.0-12.0"},{"trial_type":"number-animation","trial_index":13,"time_elapsed":432219,"internal_node_id":"0.0-13.0"},{"phase":0,"sequence":4,"avg":174,"response":175,"trial_type":"training_avg","trial_index":14,"time_elapsed":451188,"internal_node_id":"0.0-14.0"},{"responses":[{"value":0,"offby":-1,"category":"$90 - $120","category_index":0},{"value":2,"offby":-1,"category":"$121 - $145","category_index":1},{"value":5,"offby":2,"category":"$146 - $170","category_index":2},{"value":6,"offby":0,"category":"$171 - $195","category_index":3},{"value":4,"offby":0,"category":"$196 - $220","category_index":4},{"value":3,"offby":1,"category":"$221 - $245","category_index":5},{"value":0,"offby":-1,"category":"$246 - $270","category_index":6}],"phase":0,"number":0,"trial_type":"bar-choose","trial_index":15,"time_elapsed":568877,"internal_node_id":"0.0-15.0"},{"rt":25225,"url":"\/tickets\/\/utils\/testing.html","trial_type":"html","trial_index":16,"time_elapsed":595233,"internal_node_id":"0.0-16.0"},{"phase":0,"order":[19,10,40,36,37,13,30,6,38,24,1,28,5,35,44,23,12,9,41,39,26,16,18,34,8,2,4,22,45,47,21,31,17,43,0,11,7,33,27,42,20,46,25,15,3,32,49,29,14,48],"trial_type":"store_order","trial_index":17,"time_elapsed":596234,"internal_node_id":"0.0-17.0"},{"result":126,"points":3,"place":0,"phase":0,"sequence":-1,"prices":[184,180,224,165,181,199,185,193,218,126],"times":[2998,1739,1675,2095,1570,1224,1262,1229,1052,1572],"next_num":10,"trial_type":"ticket-choose","trial_index":18,"time_elapsed":617796,"internal_node_id":"0.0-18.0"},{"rt":11976,"url":"\/tickets\/utils\/testing_after.html","trial_type":"html","trial_index":19,"time_elapsed":631448,"internal_node_id":"0.0-19.0"},{"result":126,"points":3,"place":0,"phase":0,"sequence":0,"prices":[173,191,146,242,178,194,172,152,126,235],"times":[2015,1293,4429,1048,1003,1028,1059,2189,1402],"next_num":9,"trial_type":"ticket-choose","trial_index":20,"time_elapsed":653597,"internal_node_id":"0.0-20.0"},{"result":149,"points":3,"place":0,"phase":0,"sequence":1,"prices":[244,203,196,189,154,206,197,149,171,159],"times":[1492,686,876,803,949,932,926,3492],"next_num":8,"trial_type":"ticket-choose","trial_index":21,"time_elapsed":668565,"internal_node_id":"0.0-21.0"},{"result":143,"points":3,"place":0,"phase":0,"sequence":2,"prices":[143,206,153,194,201,267,168,208,210,196],"times":[4353],"next_num":1,"trial_type":"ticket-choose","trial_index":22,"time_elapsed":676416,"internal_node_id":"0.0-22.0"},{"result":142,"points":3,"place":0,"phase":0,"sequence":3,"prices":[142,207,171,182,190,269,180,218,256,188],"times":[2279],"next_num":1,"trial_type":"ticket-choose","trial_index":23,"time_elapsed":681760,"internal_node_id":"0.0-23.0"},{"result":146,"points":2,"place":1,"phase":0,"sequence":4,"prices":[168,191,172,240,183,193,146,151,125,238],"times":[1438,1016,773,740,826,919,1966],"next_num":7,"trial_type":"ticket-choose","trial_index":24,"time_elapsed":693662,"internal_node_id":"0.0-24.0"},{"result":126,"points":3,"place":0,"phase":0,"sequence":5,"prices":[170,193,176,245,178,194,154,159,236,126],"times":[1409,1207,721,868,717,893,1596,1213,1076,1456],"next_num":10,"trial_type":"ticket-choose","trial_index":25,"time_elapsed":710009,"internal_node_id":"0.0-25.0"},{"result":138,"points":1,"place":2,"phase":0,"sequence":6,"prices":[181,138,118,170,190,101,146,169,175,233],"times":[1450,2021],"next_num":2,"trial_type":"ticket-choose","trial_index":26,"time_elapsed":717479,"internal_node_id":"0.0-26.0"},{"result":136,"points":2,"place":1,"phase":0,"sequence":7,"prices":[171,192,136,265,180,194,174,152,239,127],"times":[1040,995,2158],"next_num":3,"trial_type":"ticket-choose","trial_index":27,"time_elapsed":725024,"internal_node_id":"0.0-27.0"},{"result":133,"points":3,"place":0,"phase":0,"sequence":8,"prices":[168,192,154,237,182,196,176,156,235,133],"times":[1053,755,1007,725,781,3844,861,1703,1086,1070],"next_num":10,"trial_type":"ticket-choose","trial_index":28,"time_elapsed":752107,"internal_node_id":"0.0-28.0"},{"result":114,"points":3,"place":0,"phase":0,"sequence":9,"prices":[182,249,159,114,184,205,175,189,172,178],"times":[2581,3410,1662,1580],"next_num":4,"trial_type":"ticket-choose","trial_index":29,"time_elapsed":764788,"internal_node_id":"0.0-29.0"},{"result":136,"points":2,"place":1,"phase":0,"sequence":10,"prices":[172,190,136,270,179,192,174,152,237,129],"times":[2949,1053,2119],"next_num":3,"trial_type":"ticket-choose","trial_index":30,"time_elapsed":774064,"internal_node_id":"0.0-30.0"},{"result":117,"points":3,"place":0,"phase":0,"sequence":11,"prices":[117,161,120,147,153,259,144,191,195,149],"times":[1847],"next_num":1,"trial_type":"ticket-choose","trial_index":31,"time_elapsed":778483,"internal_node_id":"0.0-31.0"},{"result":132,"points":3,"place":0,"phase":0,"sequence":12,"prices":[168,192,176,242,183,197,154,156,237,132],"times":[1528,1279,1039,1103,1083,1021,1773,1277,1138,1271],"next_num":10,"trial_type":"ticket-choose","trial_index":32,"time_elapsed":795370,"internal_node_id":"0.0-32.0"},{"result":146,"points":2,"place":1,"phase":0,"sequence":13,"prices":[171,195,172,242,179,196,146,150,128,235],"times":[1139,1149,869,1036,846,1108,3474],"next_num":7,"trial_type":"ticket-choose","trial_index":33,"time_elapsed":808414,"internal_node_id":"0.0-33.0"},{"result":130,"points":2,"place":1,"phase":0,"sequence":14,"prices":[181,130,116,142,157,193,165,218,173,207],"times":[1686,1880],"next_num":2,"trial_type":"ticket-choose","trial_index":34,"time_elapsed":814680,"internal_node_id":"0.0-34.0"},{"result":105,"points":3,"place":0,"phase":0,"sequence":15,"prices":[263,165,224,214,105,230,215,185,177,193],"times":[1082,1102,908,811,1638],"next_num":5,"trial_type":"ticket-choose","trial_index":35,"time_elapsed":823342,"internal_node_id":"0.0-35.0"},{"result":133,"points":3,"place":0,"phase":0,"sequence":16,"prices":[169,191,154,268,183,197,176,155,236,133],"times":[1304,838,1028,781,809,779,1027,2318,747,2354],"next_num":10,"trial_type":"ticket-choose","trial_index":36,"time_elapsed":840816,"internal_node_id":"0.0-36.0"},{"result":127,"points":3,"place":0,"phase":0,"sequence":17,"prices":[169,194,154,271,178,201,176,158,236,127],"times":[975,936,1014,741,861,1052,770,1134,864,1231],"next_num":10,"trial_type":"ticket-choose","trial_index":37,"time_elapsed":854486,"internal_node_id":"0.0-37.0"},{"result":124,"points":3,"place":0,"phase":0,"sequence":18,"prices":[124,220,136,165,185,234,143,225,228,179],"times":[1857],"next_num":1,"trial_type":"ticket-choose","trial_index":38,"time_elapsed":858827,"internal_node_id":"0.0-38.0"},{"result":135,"points":3,"place":0,"phase":0,"sequence":19,"prices":[221,193,135,188,217,179,196,190,175,159],"times":[1382,806,1917],"next_num":3,"trial_type":"ticket-choose","trial_index":39,"time_elapsed":866005,"internal_node_id":"0.0-39.0"},{"result":136,"points":2,"place":1,"phase":0,"sequence":20,"prices":[173,191,174,270,180,193,136,153,239,129],"times":[719,715,654,652,757,637,1241],"next_num":7,"trial_type":"ticket-choose","trial_index":40,"time_elapsed":875101,"internal_node_id":"0.0-40.0"},{"result":127,"points":3,"place":0,"phase":0,"sequence":21,"prices":[171,191,172,268,179,194,146,150,127,239],"times":[782,716,661,628,670,1127,3428,824,1964],"next_num":9,"trial_type":"ticket-choose","trial_index":41,"time_elapsed":890037,"internal_node_id":"0.0-41.0"},{"result":116,"points":3,"place":0,"phase":0,"sequence":22,"prices":[186,146,191,179,152,116,140,201,172,187],"times":[1054,3233,640,578,837,1225],"next_num":6,"trial_type":"ticket-choose","trial_index":42,"time_elapsed":900876,"internal_node_id":"0.0-42.0"},{"result":124,"points":3,"place":0,"phase":0,"sequence":23,"prices":[219,183,227,124,176,161,140,129,171,201],"times":[1069,989,646,1147],"next_num":4,"trial_type":"ticket-choose","trial_index":43,"time_elapsed":907388,"internal_node_id":"0.0-43.0"},{"result":131,"points":3,"place":0,"phase":0,"sequence":24,"prices":[170,190,176,251,183,192,154,157,236,131],"times":[605,684,628,724,724,636,1877,647,690,1410],"next_num":10,"trial_type":"ticket-choose","trial_index":44,"time_elapsed":927139,"internal_node_id":"0.0-44.0"},{"result":132,"points":3,"place":0,"phase":0,"sequence":25,"prices":[132,222,144,153,190,248,151,224,228,179],"times":[1814],"next_num":1,"trial_type":"ticket-choose","trial_index":45,"time_elapsed":931275,"internal_node_id":"0.0-45.0"},{"result":129,"points":3,"place":0,"phase":0,"sequence":26,"prices":[169,193,146,237,180,196,172,150,129,236],"times":[1135,713,3201,571,690,774,829,1622,1357],"next_num":9,"trial_type":"ticket-choose","trial_index":46,"time_elapsed":946419,"internal_node_id":"0.0-46.0"},{"result":136,"points":2,"place":1,"phase":0,"sequence":27,"prices":[172,194,174,243,182,193,136,150,237,126],"times":[1221,907,777,836,1101,659,2543],"next_num":7,"trial_type":"ticket-choose","trial_index":47,"time_elapsed":957850,"internal_node_id":"0.0-47.0"},{"result":126,"points":3,"place":0,"phase":0,"sequence":28,"prices":[168,191,146,252,183,193,172,153,126,238],"times":[2802,651,1452,637,643,635,966,1133,856],"next_num":9,"trial_type":"ticket-choose","trial_index":48,"time_elapsed":971314,"internal_node_id":"0.0-48.0"},{"result":136,"points":3,"place":0,"phase":0,"sequence":29,"prices":[240,188,273,207,250,136,217,170,171,236],"times":[790,585,638,1034,694,1755],"next_num":6,"trial_type":"ticket-choose","trial_index":49,"time_elapsed":979985,"internal_node_id":"0.0-49.0"},{"result":162,"points":1,"place":3,"phase":0,"sequence":30,"prices":[197,153,181,215,150,155,164,247,177,162],"times":[822,969,563,643,765,869,885,742,1029,1500],"next_num":10,"trial_type":"ticket-choose","trial_index":50,"time_elapsed":993361,"internal_node_id":"0.0-50.0"},{"result":135,"points":3,"place":0,"phase":0,"sequence":31,"prices":[135,202,150,169,183,225,160,211,220,172],"times":[1951],"next_num":1,"trial_type":"ticket-choose","trial_index":51,"time_elapsed":997401,"internal_node_id":"0.0-51.0"},{"result":192,"points":1,"place":4,"phase":0,"sequence":32,"prices":[157,205,161,175,197,254,165,210,214,192],"times":[1172,681,577,716,613,773,1476,823,769,1348],"next_num":10,"trial_type":"ticket-choose","trial_index":52,"time_elapsed":1011913,"internal_node_id":"0.0-52.0"},{"result":128,"points":3,"place":0,"phase":0,"sequence":33,"prices":[196,221,149,164,216,167,175,128,176,181],"times":[1206,1885,1836,725,748,869,892,1125],"next_num":8,"trial_type":"ticket-choose","trial_index":53,"time_elapsed":1028690,"internal_node_id":"0.0-53.0"},{"result":146,"points":2,"place":1,"phase":0,"sequence":34,"prices":[172,191,176,272,179,194,146,152,126,235],"times":[1003,1036,821,821,940,661,1753],"next_num":7,"trial_type":"ticket-choose","trial_index":54,"time_elapsed":1039138,"internal_node_id":"0.0-54.0"},{"result":136,"points":2,"place":1,"phase":0,"sequence":35,"prices":[170,192,174,242,181,196,136,153,236,128],"times":[1467,1471,946,838,896,802,1204],"next_num":7,"trial_type":"ticket-choose","trial_index":55,"time_elapsed":1050258,"internal_node_id":"0.0-55.0"},{"result":136,"points":2,"place":1,"phase":0,"sequence":36,"prices":[171,192,136,243,182,195,174,154,236,128],"times":[4373,908,1673],"next_num":3,"trial_type":"ticket-choose","trial_index":56,"time_elapsed":1059776,"internal_node_id":"0.0-56.0"},{"result":125,"points":3,"place":0,"phase":0,"sequence":37,"prices":[169,192,176,244,178,194,154,159,237,125],"times":[871,858,636,714,848,741,1821,1132,677,1592],"next_num":10,"trial_type":"ticket-choose","trial_index":57,"time_elapsed":1074381,"internal_node_id":"0.0-57.0"},{"result":126,"points":3,"place":0,"phase":0,"sequence":38,"prices":[170,193,146,268,178,195,172,149,126,241],"times":[2112,723,2252,557,556,576,577,1584,1398],"next_num":9,"trial_type":"ticket-choose","trial_index":58,"time_elapsed":1089358,"internal_node_id":"0.0-58.0"},{"result":189,"points":1,"place":4,"phase":0,"sequence":39,"prices":[157,213,159,187,194,242,161,222,225,189],"times":[1784,788,752,851,797,797,840,1194,1013,1185],"next_num":10,"trial_type":"ticket-choose","trial_index":59,"time_elapsed":1103470,"internal_node_id":"0.0-59.0"},{"result":158,"points":1,"place":2,"phase":0,"sequence":40,"prices":[169,193,154,255,178,194,176,158,239,126],"times":[1115,921,2661,787,797,893,1125,1773],"next_num":8,"trial_type":"ticket-choose","trial_index":60,"time_elapsed":1117242,"internal_node_id":"0.0-60.0"},{"result":129,"points":2,"place":1,"phase":0,"sequence":41,"prices":[155,129,164,189,210,108,187,241,174,275],"times":[1146,2011],"next_num":2,"trial_type":"ticket-choose","trial_index":61,"time_elapsed":1122805,"internal_node_id":"0.0-61.0"},{"result":131,"points":2,"place":1,"phase":0,"sequence":42,"prices":[221,234,131,136,132,149,154,90,176,173],"times":[967,885,1755],"next_num":3,"trial_type":"ticket-choose","trial_index":62,"time_elapsed":1129308,"internal_node_id":"0.0-62.0"},{"result":136,"points":2,"place":1,"phase":0,"sequence":43,"prices":[169,192,174,246,180,195,136,152,238,126],"times":[895,706,672,585,613,684,1804],"next_num":7,"trial_type":"ticket-choose","trial_index":63,"time_elapsed":1139063,"internal_node_id":"0.0-63.0"},{"result":145,"points":2,"place":1,"phase":0,"sequence":44,"prices":[216,206,158,145,224,185,124,149,175,162],"times":[987,1045,1477,1951],"next_num":4,"trial_type":"ticket-choose","trial_index":64,"time_elapsed":1147267,"internal_node_id":"0.0-64.0"},{"result":121,"points":3,"place":0,"phase":0,"sequence":45,"prices":[121,191,128,141,166,217,129,196,202,157],"times":[1498],"next_num":1,"trial_type":"ticket-choose","trial_index":65,"time_elapsed":1151252,"internal_node_id":"0.0-65.0"},{"result":136,"points":2,"place":1,"phase":0,"sequence":46,"prices":[173,194,136,239,182,200,174,150,236,127],"times":[599,605,1717],"next_num":3,"trial_type":"ticket-choose","trial_index":66,"time_elapsed":1156972,"internal_node_id":"0.0-66.0"},{"result":137,"points":3,"place":0,"phase":0,"sequence":47,"prices":[137,187,152,156,166,231,155,194,202,160],"times":[1751],"next_num":1,"trial_type":"ticket-choose","trial_index":67,"time_elapsed":1161734,"internal_node_id":"0.0-67.0"},{"result":119,"points":3,"place":0,"phase":0,"sequence":48,"prices":[198,119,169,141,195,233,136,208,177,217],"times":[693,1680],"next_num":2,"trial_type":"ticket-choose","trial_index":68,"time_elapsed":1166684,"internal_node_id":"0.0-68.0"},{"result":146,"points":3,"place":0,"phase":0,"sequence":49,"prices":[156,218,212,216,191,210,275,146,174,152],"times":[1077,686,707,588,775,803,1132,3245],"next_num":8,"trial_type":"ticket-choose","trial_index":69,"time_elapsed":1180948,"internal_node_id":"0.0-69.0"},{"responses":[{"value":1,"offby":0,"category":"$90 - $120","category_index":0},{"value":2,"offby":-1,"category":"$121 - $145","category_index":1},{"value":4,"offby":1,"category":"$146 - $170","category_index":2},{"value":6,"offby":0,"category":"$171 - $195","category_index":3},{"value":4,"offby":0,"category":"$196 - $220","category_index":4},{"value":2,"offby":0,"category":"$221 - $245","category_index":5},{"value":1,"offby":0,"category":"$246 - $270","category_index":6}],"phase":0,"number":1,"trial_type":"bar-choose","trial_index":70,"time_elapsed":1286748,"internal_node_id":"0.0-70.0"},{"rt":17053,"url":"\/tickets\/utils\/start2.html","trial_type":"html","trial_index":71,"time_elapsed":1304952,"internal_node_id":"0.0-71.0"},{"trial_type":"number-animation","trial_index":72,"time_elapsed":1335119,"internal_node_id":"0.0-72.0"},{"phase":1,"sequence":0,"avg":181,"response":180,"trial_type":"training_avg","trial_index":73,"time_elapsed":1348693,"internal_node_id":"0.0-73.0"},{"trial_type":"number-animation","trial_index":74,"time_elapsed":1380965,"internal_node_id":"0.0-74.0"},{"phase":1,"sequence":1,"avg":188,"response":185,"trial_type":"training_avg","trial_index":75,"time_elapsed":1393596,"internal_node_id":"0.0-75.0"},{"trial_type":"number-animation","trial_index":76,"time_elapsed":1423492,"internal_node_id":"0.0-76.0"},{"phase":1,"sequence":2,"avg":188,"response":190,"trial_type":"training_avg","trial_index":77,"time_elapsed":1435732,"internal_node_id":"0.0-77.0"},{"trial_type":"number-animation","trial_index":78,"time_elapsed":1462491,"internal_node_id":"0.0-78.0"},{"phase":1,"sequence":3,"avg":177,"response":180,"trial_type":"training_avg","trial_index":79,"time_elapsed":1472974,"internal_node_id":"0.0-79.0"},{"trial_type":"number-animation","trial_index":80,"time_elapsed":1502435,"internal_node_id":"0.0-80.0"},{"phase":1,"sequence":4,"avg":182,"response":181,"trial_type":"training_avg","trial_index":81,"time_elapsed":1512484,"internal_node_id":"0.0-81.0"},{"responses":[{"value":1,"offby":1,"category":"$106 - $134","category_index":0},{"value":1,"offby":0,"category":"$135 - $150","category_index":1},{"value":3,"offby":0,"category":"$151 - $165","category_index":2},{"value":4,"offby":-2,"category":"$166 - $180","category_index":3},{"value":6,"offby":0,"category":"$181 - $195","category_index":4},{"value":4,"offby":1,"category":"$196 - $210","category_index":5},{"value":1,"offby":0,"category":"$211 - $225","category_index":6}],"phase":1,"number":0,"trial_type":"bar-choose","trial_index":82,"time_elapsed":1588625,"internal_node_id":"0.0-82.0"},{"rt":18024,"url":"\/tickets\/utils\/testing2.html","trial_type":"html","trial_index":83,"time_elapsed":1607775,"internal_node_id":"0.0-83.0"},{"phase":1,"order":[0,45,32,24,6,15,44,16,8,48,19,31,12,5,34,42,9,11,26,43,23,7,49,47,13,25,1,22,2,46,39,30,27,36,4,21,17,14,3,28,10,35,41,20,37,29,18,33,40,38],"trial_type":"store_order","trial_index":84,"time_elapsed":1608777,"internal_node_id":"0.0-84.0"},{"result":154,"points":3,"place":0,"phase":1,"sequence":0,"prices":[176,185,158,217,180,186,177,166,209,154],"times":[2604,2189,2871,8588,1188,892,1156,1311,834,1127],"next_num":10,"trial_type":"ticket-choose","trial_index":85,"time_elapsed":1638099,"internal_node_id":"0.0-85.0"},{"result":153,"points":3,"place":0,"phase":1,"sequence":1,"prices":[175,186,167,225,179,187,178,169,209,153],"times":[3834,1193,1548,1125,1236,1013,955,1587,770,1151],"next_num":10,"trial_type":"ticket-choose","trial_index":86,"time_elapsed":1657418,"internal_node_id":"0.0-86.0"},{"result":150,"points":3,"place":0,"phase":1,"sequence":2,"prices":[189,150,175,160,188,207,158,194,178,199],"times":[939,2187],"next_num":2,"trial_type":"ticket-choose","trial_index":87,"time_elapsed":1663134,"internal_node_id":"0.0-87.0"},{"result":154,"points":3,"place":0,"phase":1,"sequence":3,"prices":[188,200,165,172,198,174,177,154,177,180],"times":[1701,829,893,845,884,948,902,1011],"next_num":8,"trial_type":"ticket-choose","trial_index":88,"time_elapsed":1674764,"internal_node_id":"0.0-88.0"},{"result":152,"points":3,"place":0,"phase":1,"sequence":4,"prices":[198,193,169,163,202,182,152,164,177,171],"times":[801,741,659,843,667,803,1072],"next_num":7,"trial_type":"ticket-choose","trial_index":89,"time_elapsed":1683837,"internal_node_id":"0.0-89.0"},{"result":156,"points":3,"place":0,"phase":1,"sequence":5,"prices":[175,185,178,215,181,186,167,168,208,156],"times":[787,589,630,627,1150,1027,1462,942,797,917],"next_num":10,"trial_type":"ticket-choose","trial_index":90,"time_elapsed":1700675,"internal_node_id":"0.0-90.0"},{"result":157,"points":3,"place":0,"phase":1,"sequence":6,"prices":[157,191,165,175,182,203,170,195,200,176],"times":[1761],"next_num":1,"trial_type":"ticket-choose","trial_index":91,"time_elapsed":1704629,"internal_node_id":"0.0-91.0"},{"result":163,"points":2,"place":1,"phase":1,"sequence":7,"prices":[174,186,176,217,181,187,163,166,153,209],"times":[1458,1069,1284,780,997,844,3217],"next_num":7,"trial_type":"ticket-choose","trial_index":92,"time_elapsed":1717770,"internal_node_id":"0.0-92.0"},{"result":163,"points":3,"place":0,"phase":1,"sequence":8,"prices":[168,199,196,198,185,195,227,163,177,166],"times":[1496,749,817,638,1185,700,879,2339],"next_num":8,"trial_type":"ticket-choose","trial_index":93,"time_elapsed":1730802,"internal_node_id":"0.0-93.0"},{"result":184,"points":1,"place":4,"phase":1,"sequence":9,"prices":[161,193,175,181,185,224,180,199,218,184],"times":[2349,683,1094,784,930,763,854,851,885,1584],"next_num":10,"trial_type":"ticket-choose","trial_index":94,"time_elapsed":1751361,"internal_node_id":"0.0-94.0"},{"result":163,"points":2,"place":1,"phase":1,"sequence":10,"prices":[175,187,163,209,180,188,176,165,154,208],"times":[4663,691,1612],"next_num":3,"trial_type":"ticket-choose","trial_index":95,"time_elapsed":1761065,"internal_node_id":"0.0-95.0"},{"result":185,"points":1,"place":4,"phase":1,"sequence":11,"prices":[169,196,170,184,187,211,171,201,202,185],"times":[950,818,869,684,744,859,916,885,788,843],"next_num":10,"trial_type":"ticket-choose","trial_index":96,"time_elapsed":1773448,"internal_node_id":"0.0-96.0"},{"result":163,"points":2,"place":1,"phase":1,"sequence":12,"prices":[175,187,176,209,180,188,163,165,154,208],"times":[739,1002,817,784,755,731,1158],"next_num":7,"trial_type":"ticket-choose","trial_index":97,"time_elapsed":1782736,"internal_node_id":"0.0-97.0"},{"result":154,"points":2,"place":1,"phase":1,"sequence":13,"prices":[168,154,172,185,195,144,184,211,177,227],"times":[2425,1085],"next_num":2,"trial_type":"ticket-choose","trial_index":98,"time_elapsed":1788594,"internal_node_id":"0.0-98.0"},{"result":159,"points":1,"place":2,"phase":1,"sequence":14,"prices":[180,159,149,175,185,141,163,174,178,207],"times":[900,1142],"next_num":2,"trial_type":"ticket-choose","trial_index":99,"time_elapsed":1793823,"internal_node_id":"0.0-99.0"},{"result":158,"points":2,"place":1,"phase":1,"sequence":15,"prices":[176,185,177,218,180,186,158,166,209,154],"times":[1209,1213,1158,1209,1119,655,1273],"next_num":7,"trial_type":"ticket-choose","trial_index":100,"time_elapsed":1805160,"internal_node_id":"0.0-100.0"},{"result":156,"points":3,"place":0,"phase":1,"sequence":16,"prices":[174,186,178,217,181,188,167,168,208,156],"times":[853,1036,750,729,935,669,1421,1700,742,721],"next_num":10,"trial_type":"ticket-choose","trial_index":101,"time_elapsed":1818853,"internal_node_id":"0.0-101.0"},{"result":156,"points":3,"place":0,"phase":1,"sequence":17,"prices":[175,185,167,224,181,186,178,168,208,156],"times":[757,1098,1561,936,820,942,1011,1285,822,755],"next_num":10,"trial_type":"ticket-choose","trial_index":102,"time_elapsed":1833023,"internal_node_id":"0.0-102.0"},{"result":155,"points":2,"place":1,"phase":1,"sequence":18,"prices":[201,207,155,158,156,165,167,135,178,177],"times":[954,1076,1228],"next_num":3,"trial_type":"ticket-choose","trial_index":103,"time_elapsed":1838885,"internal_node_id":"0.0-103.0"},{"result":171,"points":1,"place":3,"phase":1,"sequence":19,"prices":[189,167,180,197,165,168,172,213,178,171],"times":[572,856,867,829,1446,819,811,756,1063,1182],"next_num":10,"trial_type":"ticket-choose","trial_index":104,"time_elapsed":1852144,"internal_node_id":"0.0-104.0"},{"result":152,"points":3,"place":0,"phase":1,"sequence":20,"prices":[152,200,158,173,182,207,161,202,204,180],"times":[1411],"next_num":1,"trial_type":"ticket-choose","trial_index":105,"time_elapsed":1855948,"internal_node_id":"0.0-105.0"},{"result":158,"points":2,"place":1,"phase":1,"sequence":21,"prices":[175,186,158,211,180,187,177,166,209,153],"times":[1226,1005,1054],"next_num":3,"trial_type":"ticket-choose","trial_index":106,"time_elapsed":1861654,"internal_node_id":"0.0-106.0"},{"result":158,"points":2,"place":1,"phase":1,"sequence":22,"prices":[176,187,158,210,181,187,177,165,208,153],"times":[608,739,1028],"next_num":3,"trial_type":"ticket-choose","trial_index":107,"time_elapsed":1866540,"internal_node_id":"0.0-107.0"},{"result":155,"points":2,"place":1,"phase":1,"sequence":23,"prices":[181,155,148,161,168,187,172,199,176,194],"times":[605,1084],"next_num":2,"trial_type":"ticket-choose","trial_index":108,"time_elapsed":1870438,"internal_node_id":"0.0-108.0"},{"result":156,"points":3,"place":0,"phase":1,"sequence":24,"prices":[174,186,167,211,181,188,178,168,208,156],"times":[746,704,855,710,796,684,656,6906,1198,1311],"next_num":10,"trial_type":"ticket-choose","trial_index":109,"time_elapsed":1890095,"internal_node_id":"0.0-109.0"},{"result":166,"points":1,"place":2,"phase":1,"sequence":25,"prices":[174,186,163,212,181,187,176,166,153,209],"times":[4290,964,1196,1421,878,818,804,2169],"next_num":8,"trial_type":"ticket-choose","trial_index":110,"time_elapsed":1906438,"internal_node_id":"0.0-110.0"},{"result":163,"points":2,"place":1,"phase":1,"sequence":26,"prices":[176,186,176,210,179,187,163,166,153,208],"times":[1073,1519,1146,1115,884,800,1277],"next_num":7,"trial_type":"ticket-choose","trial_index":111,"time_elapsed":1917588,"internal_node_id":"0.0-111.0"},{"result":158,"points":2,"place":1,"phase":1,"sequence":27,"prices":[176,187,177,225,181,187,158,165,208,153],"times":[1470,1677,958,907,1103,811,1908],"next_num":7,"trial_type":"ticket-choose","trial_index":112,"time_elapsed":1929748,"internal_node_id":"0.0-112.0"},{"result":164,"points":3,"place":0,"phase":1,"sequence":28,"prices":[212,192,188,184,167,193,189,164,176,170],"times":[677,681,743,756,1101,868,893,1578],"next_num":8,"trial_type":"ticket-choose","trial_index":113,"time_elapsed":1941515,"internal_node_id":"0.0-113.0"},{"result":152,"points":3,"place":0,"phase":1,"sequence":29,"prices":[200,181,203,152,175,171,160,154,176,191],"times":[1058,1098,962,1173],"next_num":4,"trial_type":"ticket-choose","trial_index":114,"time_elapsed":1948851,"internal_node_id":"0.0-114.0"},{"result":158,"points":2,"place":1,"phase":1,"sequence":30,"prices":[175,186,177,209,181,188,158,167,208,154],"times":[815,804,828,916,822,805,1194],"next_num":7,"trial_type":"ticket-choose","trial_index":115,"time_elapsed":1958465,"internal_node_id":"0.0-115.0"},{"result":148,"points":3,"place":0,"phase":1,"sequence":31,"prices":[148,171,150,163,167,220,162,186,187,165],"times":[3369],"next_num":1,"trial_type":"ticket-choose","trial_index":116,"time_elapsed":1964346,"internal_node_id":"0.0-116.0"},{"result":158,"points":2,"place":1,"phase":1,"sequence":32,"prices":[175,186,158,209,181,188,177,167,208,154],"times":[844,2310,1956],"next_num":3,"trial_type":"ticket-choose","trial_index":117,"time_elapsed":1972026,"internal_node_id":"0.0-117.0"},{"result":157,"points":3,"place":0,"phase":1,"sequence":33,"prices":[201,187,157,184,198,179,188,185,178,170],"times":[3334,819,1879],"next_num":3,"trial_type":"ticket-choose","trial_index":118,"time_elapsed":1981146,"internal_node_id":"0.0-118.0"},{"result":166,"points":1,"place":2,"phase":1,"sequence":34,"prices":[176,186,163,214,179,187,176,166,153,208],"times":[795,893,1780,786,834,899,908,1150],"next_num":8,"trial_type":"ticket-choose","trial_index":119,"time_elapsed":1993258,"internal_node_id":"0.0-119.0"},{"result":153,"points":3,"place":0,"phase":1,"sequence":35,"prices":[175,187,167,212,179,187,178,169,208,153],"times":[837,1253,1879,794,700,908,1149,1206,827,729],"next_num":10,"trial_type":"ticket-choose","trial_index":120,"time_elapsed":2008009,"internal_node_id":"0.0-120.0"},{"result":153,"points":3,"place":0,"phase":1,"sequence":36,"prices":[175,186,176,224,179,187,163,165,153,210],"times":[904,739,804,844,734,733,1186,1119,1070],"next_num":9,"trial_type":"ticket-choose","trial_index":121,"time_elapsed":2020193,"internal_node_id":"0.0-121.0"},{"result":159,"points":3,"place":0,"phase":1,"sequence":37,"prices":[159,183,166,168,173,205,167,187,191,170],"times":[2087],"next_num":1,"trial_type":"ticket-choose","trial_index":122,"time_elapsed":2024729,"internal_node_id":"0.0-122.0"},{"result":186,"points":1,"place":4,"phase":1,"sequence":38,"prices":[168,192,171,178,188,217,172,195,197,186],"times":[3475,837,870,939,823,1025,1013,1020,906,1432],"next_num":10,"trial_type":"ticket-choose","trial_index":123,"time_elapsed":2041386,"internal_node_id":"0.0-123.0"},{"result":143,"points":3,"place":0,"phase":1,"sequence":39,"prices":[222,173,202,197,143,205,198,183,178,186],"times":[825,938,698,1000,1749],"next_num":5,"trial_type":"ticket-choose","trial_index":124,"time_elapsed":2049567,"internal_node_id":"0.0-124.0"},{"result":158,"points":2,"place":1,"phase":1,"sequence":40,"prices":[175,186,177,221,180,187,158,166,209,153],"times":[3418,918,884,845,837,814,1151],"next_num":7,"trial_type":"ticket-choose","trial_index":125,"time_elapsed":2061815,"internal_node_id":"0.0-125.0"},{"result":158,"points":3,"place":0,"phase":1,"sequence":41,"prices":[210,184,226,193,215,158,199,175,176,208],"times":[1558,1444,759,1022,1063,1204],"next_num":6,"trial_type":"ticket-choose","trial_index":126,"time_elapsed":2076703,"internal_node_id":"0.0-126.0"},{"result":156,"points":3,"place":0,"phase":1,"sequence":42,"prices":[156,201,162,166,185,214,165,202,204,179],"times":[2007],"next_num":1,"trial_type":"ticket-choose","trial_index":127,"time_elapsed":2080921,"internal_node_id":"0.0-127.0"},{"result":167,"points":2,"place":1,"phase":1,"sequence":43,"prices":[175,187,178,209,179,187,167,169,208,153],"times":[1123,940,750,851,870,1041,3474],"next_num":7,"trial_type":"ticket-choose","trial_index":128,"time_elapsed":2093581,"internal_node_id":"0.0-128.0"},{"result":163,"points":2,"place":1,"phase":1,"sequence":44,"prices":[175,186,163,211,179,187,176,165,153,210],"times":[980,814,2417],"next_num":3,"trial_type":"ticket-choose","trial_index":129,"time_elapsed":2100462,"internal_node_id":"0.0-129.0"},{"result":188,"points":1,"place":4,"phase":1,"sequence":45,"prices":[161,193,167,187,190,224,174,194,195,188],"times":[1041,923,1078,690,959,772,909,1130,948,834],"next_num":10,"trial_type":"ticket-choose","trial_index":130,"time_elapsed":2113806,"internal_node_id":"0.0-130.0"},{"result":163,"points":1,"place":2,"phase":1,"sequence":46,"prices":[183,163,185,180,166,148,160,186,176,184],"times":[1006,1611],"next_num":2,"trial_type":"ticket-choose","trial_index":131,"time_elapsed":2119034,"internal_node_id":"0.0-131.0"},{"result":150,"points":3,"place":0,"phase":1,"sequence":47,"prices":[150,185,154,161,173,199,155,188,191,168],"times":[1746],"next_num":1,"trial_type":"ticket-choose","trial_index":132,"time_elapsed":2123631,"internal_node_id":"0.0-132.0"},{"result":167,"points":2,"place":1,"phase":1,"sequence":48,"prices":[175,186,178,212,179,187,167,169,209,153],"times":[798,674,902,982,724,798,1670],"next_num":7,"trial_type":"ticket-choose","trial_index":133,"time_elapsed":2133788,"internal_node_id":"0.0-133.0"},{"result":147,"points":3,"place":0,"phase":1,"sequence":49,"prices":[181,215,169,147,182,193,177,184,176,179],"times":[2568,1342,1108,1343],"next_num":4,"trial_type":"ticket-choose","trial_index":134,"time_elapsed":2143242,"internal_node_id":"0.0-134.0"},{"responses":[{"value":0,"offby":0,"category":"$106 - $134","category_index":0},{"value":1,"offby":0,"category":"$135 - $150","category_index":1},{"value":2,"offby":-1,"category":"$151 - $165","category_index":2},{"value":6,"offby":0,"category":"$166 - $180","category_index":3},{"value":5,"offby":-1,"category":"$181 - $195","category_index":4},{"value":4,"offby":1,"category":"$196 - $210","category_index":5},{"value":2,"offby":1,"category":"$211 - $225","category_index":6}],"phase":1,"number":1,"trial_type":"bar-choose","trial_index":135,"time_elapsed":2177754,"internal_node_id":"0.0-135.0"},{"special_comment":"No","trial_type":"special_sequence","trial_index":136,"time_elapsed":2184151,"internal_node_id":"0.0-136.0"},{"during":"Nothing","bonus":320,"trial_type":"final","trial_index":137,"time_elapsed":2212444,"internal_node_id":"0.0-137.0"}],"bonus":320}