{"start_time":"2017-02-27 11:00:23","end_time":"2017-02-27 11:42:56","points_phase0":65,"points_phase1":75,"phase_order":0,"age":32,"gender":"f","tries":1,"during":"Nothing","worker_id":"A20J7F7PKEZZV2","assignment_id":"31Z0PCVWUL88627JL1MAXFSKM7Y7TT","data":[{"rt":18696,"url":"\/tickets\/utils\/consent.html","trial_type":"html","trial_index":0,"time_elapsed":18988,"internal_node_id":"0.0-0.0"},{"age":32,"gender":"f","trial_type":"age","trial_index":1,"time_elapsed":37274,"internal_node_id":"0.0-1.0"},{"worker_id":"A20J7F7PKEZZV2","trial_type":"workerid","trial_index":2,"time_elapsed":47742,"internal_node_id":"0.0-2.0"},{"tries":1,"trial_type":"instructions_check","trial_index":3,"time_elapsed":80415,"internal_node_id":"0.0-3.0"},{"rt":4747,"url":"\/tickets\/utils\/start.html","trial_type":"html","trial_index":4,"time_elapsed":86493,"internal_node_id":"0.0-4.0"},{"trial_type":"number-animation","trial_index":5,"time_elapsed":102219,"internal_node_id":"0.0-5.0"},{"phase":0,"sequence":0,"avg":180,"response":175,"trial_type":"training_avg","trial_index":6,"time_elapsed":109062,"internal_node_id":"0.0-6.0"},{"trial_type":"number-animation","trial_index":7,"time_elapsed":116414,"internal_node_id":"0.0-7.0"},{"phase":0,"sequence":1,"avg":178,"response":185,"trial_type":"training_avg","trial_index":8,"time_elapsed":125493,"internal_node_id":"0.0-8.0"},{"trial_type":"number-animation","trial_index":9,"time_elapsed":136197,"internal_node_id":"0.0-9.0"},{"phase":0,"sequence":2,"avg":176,"response":178,"trial_type":"training_avg","trial_index":10,"time_elapsed":142811,"internal_node_id":"0.0-10.0"},{"trial_type":"number-animation","trial_index":11,"time_elapsed":151133,"internal_node_id":"0.0-11.0"},{"phase":0,"sequence":3,"avg":178,"response":182,"trial_type":"training_avg","trial_index":12,"time_elapsed":157724,"internal_node_id":"0.0-12.0"},{"trial_type":"number-animation","trial_index":13,"time_elapsed":169771,"internal_node_id":"0.0-13.0"},{"phase":0,"sequence":4,"avg":179,"response":180,"trial_type":"training_avg","trial_index":14,"time_elapsed":179428,"internal_node_id":"0.0-14.0"},{"responses":[{"value":0,"offby":0,"category":"$140 - $250","category_index":0},{"value":12,"offby":12,"category":"$151 - $160","category_index":1},{"value":0,"offby":-4,"category":"$161 - $170","category_index":2},{"value":8,"offby":2,"category":"$171 - $180","category_index":3},{"value":0,"offby":-7,"category":"$181 - $190","category_index":4},{"value":0,"offby":-3,"category":"$191 - $200","category_index":5},{"value":0,"offby":0,"category":"$201 - $210","category_index":6}],"phase":0,"number":0,"trial_type":"bar-choose","trial_index":15,"time_elapsed":207289,"internal_node_id":"0.0-15.0"},{"rt":1327,"url":"\/tickets\/\/utils\/testing.html","trial_type":"html","trial_index":16,"time_elapsed":209763,"internal_node_id":"0.0-16.0"},{"phase":0,"order":[2,40,35,29,47,8,21,18,16,34,46,24,10,22,9,13,45,15,19,44,4,42,39,43,27,14,7,38,20,11,33,31,5,6,26,0,12,36,1,17,37,25,23,41,49,48,30,3,32,28],"trial_type":"store_order","trial_index":17,"time_elapsed":210764,"internal_node_id":"0.0-17.0"},{"result":126,"points":3,"place":0,"phase":0,"sequence":-1,"prices":[184,180,224,165,181,199,185,193,218,126],"times":[22026,454,371,348,365,341,356,380,349,406],"next_num":11,"trial_type":"ticket-choose","trial_index":18,"time_elapsed":241315,"internal_node_id":"0.0-18.0"},{"rt":2049,"url":"\/tickets\/utils\/testing_after.html","trial_type":"html","trial_index":19,"time_elapsed":244514,"internal_node_id":"0.0-19.0"},{"result":184,"points":0,"place":8,"phase":0,"sequence":0,"prices":[174,179,169,194,178,183,177,173,165,184],"times":[1672,346,1183,221,386,244,228,318,292,291],"next_num":11,"trial_type":"ticket-choose","trial_index":20,"time_elapsed":253986,"internal_node_id":"0.0-20.0"},{"result":178,"points":1,"place":4,"phase":0,"sequence":1,"prices":[179,174,199,178,196,167,170,184,177,190],"times":[891,227,213,267],"next_num":4,"trial_type":"ticket-choose","trial_index":21,"time_elapsed":258585,"internal_node_id":"0.0-21.0"},{"result":188,"points":0,"place":9,"phase":0,"sequence":2,"prices":[188,179,154,183,173,170,177,160,169,175],"times":[640],"next_num":1,"trial_type":"ticket-choose","trial_index":22,"time_elapsed":261619,"internal_node_id":"0.0-22.0"},{"result":166,"points":3,"place":0,"phase":0,"sequence":3,"prices":[166,190,170,173,178,203,172,192,198,174],"times":[728],"next_num":1,"trial_type":"ticket-choose","trial_index":23,"time_elapsed":264500,"internal_node_id":"0.0-23.0"},{"result":175,"points":1,"place":2,"phase":0,"sequence":4,"prices":[180,175,173,177,191,190,184,196,174,181],"times":[858,533],"next_num":2,"trial_type":"ticket-choose","trial_index":24,"time_elapsed":268337,"internal_node_id":"0.0-24.0"},{"result":180,"points":0,"place":6,"phase":0,"sequence":5,"prices":[176,180,170,194,179,183,178,173,165,184],"times":[792,812],"next_num":2,"trial_type":"ticket-choose","trial_index":25,"time_elapsed":272458,"internal_node_id":"0.0-25.0"},{"result":163,"points":3,"place":0,"phase":0,"sequence":6,"prices":[174,178,176,192,177,181,168,171,163,182],"times":[805,534,543,677,547,636,1038,721,892],"next_num":9,"trial_type":"ticket-choose","trial_index":26,"time_elapsed":283488,"internal_node_id":"0.0-26.0"},{"result":164,"points":3,"place":0,"phase":0,"sequence":7,"prices":[173,178,168,193,177,182,176,172,164,183],"times":[1706,259,246,271,334,407,283,316,373],"next_num":9,"trial_type":"ticket-choose","trial_index":27,"time_elapsed":291648,"internal_node_id":"0.0-27.0"},{"result":177,"points":0,"place":5,"phase":0,"sequence":8,"prices":[174,178,168,192,177,181,176,171,163,182],"times":[210838,226,244,212,217],"next_num":5,"trial_type":"ticket-choose","trial_index":28,"time_elapsed":506343,"internal_node_id":"0.0-28.0"},{"result":186,"points":0,"place":6,"phase":0,"sequence":9,"prices":[181,180,191,186,165,197,159,167,194,185],"times":[720,455,678,749],"next_num":4,"trial_type":"ticket-choose","trial_index":29,"time_elapsed":511634,"internal_node_id":"0.0-29.0"},{"result":166,"points":3,"place":0,"phase":0,"sequence":10,"prices":[179,186,197,201,166,187,188,193,190,177],"times":[8569,385,327,397,1231],"next_num":5,"trial_type":"ticket-choose","trial_index":30,"time_elapsed":526624,"internal_node_id":"0.0-30.0"},{"result":161,"points":3,"place":0,"phase":0,"sequence":11,"prices":[161,180,170,174,178,198,173,182,188,176],"times":[102403],"next_num":1,"trial_type":"ticket-choose","trial_index":31,"time_elapsed":631944,"internal_node_id":"0.0-31.0"},{"result":180,"points":0,"place":6,"phase":0,"sequence":12,"prices":[175,180,170,195,179,184,178,174,166,185],"times":[3333,753],"next_num":2,"trial_type":"ticket-choose","trial_index":32,"time_elapsed":641027,"internal_node_id":"0.0-32.0"},{"result":173,"points":1,"place":3,"phase":0,"sequence":13,"prices":[173,178,176,193,177,182,168,172,164,183],"times":[4712],"next_num":1,"trial_type":"ticket-choose","trial_index":33,"time_elapsed":651439,"internal_node_id":"0.0-33.0"},{"result":176,"points":1,"place":3,"phase":0,"sequence":14,"prices":[176,180,170,194,179,183,178,173,165,184],"times":[1277],"next_num":1,"trial_type":"ticket-choose","trial_index":34,"time_elapsed":656258,"internal_node_id":"0.0-34.0"},{"result":180,"points":0,"place":6,"phase":0,"sequence":15,"prices":[176,180,178,194,179,183,170,173,165,184],"times":[2269,3455],"next_num":2,"trial_type":"ticket-choose","trial_index":35,"time_elapsed":736308,"internal_node_id":"0.0-35.0"},{"result":179,"points":0,"place":5,"phase":0,"sequence":16,"prices":[179,174,172,162,202,184,165,197,185,169],"times":[2369],"next_num":1,"trial_type":"ticket-choose","trial_index":36,"time_elapsed":743394,"internal_node_id":"0.0-36.0"},{"result":178,"points":1,"place":4,"phase":0,"sequence":17,"prices":[175,180,178,195,179,184,170,174,166,185],"times":[4993,3061,1293],"next_num":3,"trial_type":"ticket-choose","trial_index":37,"time_elapsed":758514,"internal_node_id":"0.0-37.0"},{"result":173,"points":1,"place":3,"phase":0,"sequence":18,"prices":[173,178,168,193,177,182,176,172,164,183],"times":[2565],"next_num":1,"trial_type":"ticket-choose","trial_index":38,"time_elapsed":766090,"internal_node_id":"0.0-38.0"},{"result":175,"points":0,"place":5,"phase":0,"sequence":19,"prices":[175,150,164,155,171,199,158,180,184,196],"times":[1157],"next_num":1,"trial_type":"ticket-choose","trial_index":39,"time_elapsed":771427,"internal_node_id":"0.0-39.0"},{"result":175,"points":1,"place":3,"phase":0,"sequence":20,"prices":[175,179,177,193,178,182,169,172,164,183],"times":[12514],"next_num":1,"trial_type":"ticket-choose","trial_index":40,"time_elapsed":787866,"internal_node_id":"0.0-40.0"},{"result":175,"points":1,"place":3,"phase":0,"sequence":21,"prices":[175,193,175,160,180,170,175,205,177,167],"times":[1385],"next_num":1,"trial_type":"ticket-choose","trial_index":41,"time_elapsed":795930,"internal_node_id":"0.0-41.0"},{"result":179,"points":0,"place":6,"phase":0,"sequence":22,"prices":[195,177,197,179,171,173,175,156,163,204],"times":[3759,1635,763,2122],"next_num":4,"trial_type":"ticket-choose","trial_index":42,"time_elapsed":809813,"internal_node_id":"0.0-42.0"},{"result":191,"points":0,"place":9,"phase":0,"sequence":23,"prices":[188,191,179,157,181,164,166,156,175,182],"times":[8422,45016],"next_num":2,"trial_type":"ticket-choose","trial_index":43,"time_elapsed":867148,"internal_node_id":"0.0-43.0"},{"result":168,"points":3,"place":0,"phase":0,"sequence":24,"prices":[168,188,171,181,184,196,180,194,195,183],"times":[140159],"next_num":1,"trial_type":"ticket-choose","trial_index":44,"time_elapsed":1022613,"internal_node_id":"0.0-44.0"},{"result":175,"points":1,"place":3,"phase":0,"sequence":25,"prices":[175,180,178,195,179,184,170,174,166,185],"times":[2081],"next_num":1,"trial_type":"ticket-choose","trial_index":45,"time_elapsed":1029441,"internal_node_id":"0.0-45.0"},{"result":174,"points":1,"place":3,"phase":0,"sequence":26,"prices":[174,179,177,194,178,183,169,173,165,184],"times":[2017],"next_num":1,"trial_type":"ticket-choose","trial_index":46,"time_elapsed":1036888,"internal_node_id":"0.0-46.0"},{"result":170,"points":3,"place":0,"phase":0,"sequence":27,"prices":[181,179,199,188,170,172,178,187,191,177],"times":[14640,741,1488,530,2322],"next_num":5,"trial_type":"ticket-choose","trial_index":47,"time_elapsed":1062293,"internal_node_id":"0.0-47.0"},{"result":174,"points":1,"place":3,"phase":0,"sequence":28,"prices":[174,178,176,192,177,181,168,171,163,182],"times":[2300],"next_num":1,"trial_type":"ticket-choose","trial_index":48,"time_elapsed":1068187,"internal_node_id":"0.0-48.0"},{"result":175,"points":1,"place":3,"phase":0,"sequence":29,"prices":[175,180,170,195,179,184,178,174,166,185],"times":[1099],"next_num":1,"trial_type":"ticket-choose","trial_index":49,"time_elapsed":1073011,"internal_node_id":"0.0-49.0"},{"result":170,"points":3,"place":0,"phase":0,"sequence":30,"prices":[170,183,172,175,180,189,174,187,188,179],"times":[1776],"next_num":1,"trial_type":"ticket-choose","trial_index":50,"time_elapsed":1077472,"internal_node_id":"0.0-50.0"},{"result":157,"points":3,"place":0,"phase":0,"sequence":31,"prices":[157,184,163,174,181,190,168,187,189,177],"times":[1403],"next_num":1,"trial_type":"ticket-choose","trial_index":51,"time_elapsed":1082262,"internal_node_id":"0.0-51.0"},{"result":179,"points":0,"place":6,"phase":0,"sequence":32,"prices":[175,179,177,193,178,182,169,172,164,183],"times":[1655,905],"next_num":2,"trial_type":"ticket-choose","trial_index":52,"time_elapsed":1088546,"internal_node_id":"0.0-52.0"},{"result":174,"points":1,"place":3,"phase":0,"sequence":33,"prices":[174,179,177,194,178,183,169,173,165,184],"times":[8741],"next_num":1,"trial_type":"ticket-choose","trial_index":53,"time_elapsed":1100709,"internal_node_id":"0.0-53.0"},{"result":165,"points":3,"place":0,"phase":0,"sequence":34,"prices":[165,187,173,177,186,196,176,191,192,181],"times":[2090],"next_num":1,"trial_type":"ticket-choose","trial_index":54,"time_elapsed":1106775,"internal_node_id":"0.0-54.0"},{"result":179,"points":0,"place":6,"phase":0,"sequence":35,"prices":[175,179,169,193,178,182,177,172,164,183],"times":[8259,605],"next_num":2,"trial_type":"ticket-choose","trial_index":55,"time_elapsed":1118088,"internal_node_id":"0.0-55.0"},{"result":176,"points":1,"place":3,"phase":0,"sequence":36,"prices":[176,180,178,194,179,183,170,173,165,184],"times":[2007],"next_num":1,"trial_type":"ticket-choose","trial_index":56,"time_elapsed":1122135,"internal_node_id":"0.0-56.0"},{"result":169,"points":1,"place":2,"phase":0,"sequence":37,"prices":[189,185,169,168,167,171,180,173,174,188],"times":[21230,574,2050],"next_num":3,"trial_type":"ticket-choose","trial_index":57,"time_elapsed":1149265,"internal_node_id":"0.0-57.0"},{"result":175,"points":1,"place":3,"phase":0,"sequence":38,"prices":[175,179,169,193,178,182,177,172,164,183],"times":[58141],"next_num":1,"trial_type":"ticket-choose","trial_index":58,"time_elapsed":1210393,"internal_node_id":"0.0-58.0"},{"result":174,"points":1,"place":3,"phase":0,"sequence":39,"prices":[174,178,168,192,177,181,176,171,163,182],"times":[2999],"next_num":1,"trial_type":"ticket-choose","trial_index":59,"time_elapsed":1216536,"internal_node_id":"0.0-59.0"},{"result":182,"points":0,"place":7,"phase":0,"sequence":40,"prices":[181,175,182,168,183,173,153,170,193,179],"times":[1638,2048,375],"next_num":3,"trial_type":"ticket-choose","trial_index":60,"time_elapsed":1223458,"internal_node_id":"0.0-60.0"},{"result":163,"points":3,"place":0,"phase":0,"sequence":41,"prices":[163,185,165,174,181,198,173,186,187,180],"times":[2606],"next_num":1,"trial_type":"ticket-choose","trial_index":61,"time_elapsed":1229647,"internal_node_id":"0.0-61.0"},{"result":173,"points":1,"place":3,"phase":0,"sequence":42,"prices":[173,178,176,193,177,182,168,172,164,183],"times":[1267],"next_num":1,"trial_type":"ticket-choose","trial_index":62,"time_elapsed":1234034,"internal_node_id":"0.0-62.0"},{"result":180,"points":1,"place":4,"phase":0,"sequence":43,"prices":[180,165,177,193,186,196,187,169,171,182],"times":[1752],"next_num":1,"trial_type":"ticket-choose","trial_index":63,"time_elapsed":1238211,"internal_node_id":"0.0-63.0"},{"result":175,"points":1,"place":2,"phase":0,"sequence":44,"prices":[175,189,193,170,179,165,180,186,177,184],"times":[3254],"next_num":1,"trial_type":"ticket-choose","trial_index":64,"time_elapsed":1244505,"internal_node_id":"0.0-64.0"},{"result":173,"points":2,"place":1,"phase":0,"sequence":45,"prices":[193,173,175,182,179,198,181,171,176,187],"times":[6172,1381],"next_num":2,"trial_type":"ticket-choose","trial_index":65,"time_elapsed":1255541,"internal_node_id":"0.0-65.0"},{"result":160,"points":3,"place":0,"phase":0,"sequence":46,"prices":[160,185,170,174,182,196,173,186,194,177],"times":[2189],"next_num":1,"trial_type":"ticket-choose","trial_index":66,"time_elapsed":1260254,"internal_node_id":"0.0-66.0"},{"result":174,"points":1,"place":3,"phase":0,"sequence":47,"prices":[174,179,169,194,178,183,177,173,165,184],"times":[2907],"next_num":1,"trial_type":"ticket-choose","trial_index":67,"time_elapsed":1266450,"internal_node_id":"0.0-67.0"},{"result":171,"points":3,"place":0,"phase":0,"sequence":48,"prices":[171,180,172,174,179,188,173,183,186,175],"times":[2964],"next_num":1,"trial_type":"ticket-choose","trial_index":68,"time_elapsed":1271956,"internal_node_id":"0.0-68.0"},{"result":159,"points":3,"place":0,"phase":0,"sequence":49,"prices":[159,178,170,174,176,194,173,182,185,175],"times":[1287],"next_num":1,"trial_type":"ticket-choose","trial_index":69,"time_elapsed":1277335,"internal_node_id":"0.0-69.0"},{"responses":[{"value":0,"offby":0,"category":"$140 - $250","category_index":0},{"value":3,"offby":3,"category":"$151 - $160","category_index":1},{"value":9,"offby":5,"category":"$161 - $170","category_index":2},{"value":4,"offby":-2,"category":"$171 - $180","category_index":3},{"value":4,"offby":-3,"category":"$181 - $190","category_index":4},{"value":0,"offby":-3,"category":"$191 - $200","category_index":5},{"value":0,"offby":0,"category":"$201 - $210","category_index":6}],"phase":0,"number":1,"trial_type":"bar-choose","trial_index":70,"time_elapsed":1303378,"internal_node_id":"0.0-70.0"},{"rt":7316,"url":"\/tickets\/utils\/start2.html","trial_type":"html","trial_index":71,"time_elapsed":1312462,"internal_node_id":"0.0-71.0"},{"trial_type":"number-animation","trial_index":72,"time_elapsed":1343849,"internal_node_id":"0.0-72.0"},{"phase":1,"sequence":0,"avg":166,"response":135,"trial_type":"training_avg","trial_index":73,"time_elapsed":1352954,"internal_node_id":"0.0-73.0"},{"trial_type":"number-animation","trial_index":74,"time_elapsed":1364324,"internal_node_id":"0.0-74.0"},{"phase":1,"sequence":1,"avg":198,"response":205,"trial_type":"training_avg","trial_index":75,"time_elapsed":1372048,"internal_node_id":"0.0-75.0"},{"trial_type":"number-animation","trial_index":76,"time_elapsed":1387476,"internal_node_id":"0.0-76.0"},{"phase":1,"sequence":2,"avg":177,"response":134,"trial_type":"training_avg","trial_index":77,"time_elapsed":1395564,"internal_node_id":"0.0-77.0"},{"trial_type":"number-animation","trial_index":78,"time_elapsed":1408808,"internal_node_id":"0.0-78.0"},{"phase":1,"sequence":3,"avg":190,"response":220,"trial_type":"training_avg","trial_index":79,"time_elapsed":1435908,"internal_node_id":"0.0-79.0"},{"trial_type":"number-animation","trial_index":80,"time_elapsed":1501805,"internal_node_id":"0.0-80.0"},{"phase":1,"sequence":4,"avg":201,"response":178,"trial_type":"training_avg","trial_index":81,"time_elapsed":1512541,"internal_node_id":"0.0-81.0"},{"responses":[{"value":0,"offby":-1,"category":"$30 - $75","category_index":0},{"value":0,"offby":-2,"category":"$76 - $120","category_index":1},{"value":13,"offby":9,"category":"$121 - $165","category_index":2},{"value":6,"offby":0,"category":"$166 - $210","category_index":3},{"value":1,"offby":-5,"category":"$211 - $255","category_index":4},{"value":0,"offby":-1,"category":"$256 - $300","category_index":5},{"value":0,"offby":0,"category":"$301 - $345","category_index":6}],"phase":1,"number":0,"trial_type":"bar-choose","trial_index":82,"time_elapsed":1532734,"internal_node_id":"0.0-82.0"},{"rt":11657,"url":"\/tickets\/utils\/testing2.html","trial_type":"html","trial_index":83,"time_elapsed":1546601,"internal_node_id":"0.0-83.0"},{"phase":1,"order":[8,4,26,22,21,33,45,12,42,11,34,28,25,0,3,46,40,14,6,9,49,29,16,32,36,39,13,44,48,37,30,43,24,35,41,5,38,27,10,2,20,1,18,31,19,17,47,7,15,23],"trial_type":"store_order","trial_index":84,"time_elapsed":1547624,"internal_node_id":"0.0-84.0"},{"result":161,"points":1,"place":3,"phase":1,"sequence":0,"prices":[161,180,131,251,175,196,171,146,105,201],"times":[3325],"next_num":1,"trial_type":"ticket-choose","trial_index":85,"time_elapsed":1554933,"internal_node_id":"0.0-85.0"},{"result":166,"points":1,"place":4,"phase":1,"sequence":1,"prices":[155,175,166,245,171,190,125,140,101,196],"times":[5749,579,934],"next_num":3,"trial_type":"ticket-choose","trial_index":86,"time_elapsed":1565972,"internal_node_id":"0.0-86.0"},{"result":185,"points":1,"place":4,"phase":1,"sequence":2,"prices":[105,216,146,165,210,260,161,235,241,185],"times":[20367,803,572,540,1341,639,1371,644,1401,952],"next_num":10,"trial_type":"ticket-choose","trial_index":87,"time_elapsed":1602375,"internal_node_id":"0.0-87.0"},{"result":145,"points":1,"place":3,"phase":1,"sequence":3,"prices":[145,171,161,245,165,191,120,140,100,196],"times":[1661],"next_num":1,"trial_type":"ticket-choose","trial_index":88,"time_elapsed":1606896,"internal_node_id":"0.0-88.0"},{"result":120,"points":2,"place":1,"phase":1,"sequence":4,"prices":[150,170,160,241,166,186,120,136,96,191],"times":[1753,1969,493,1841,501,986,1256],"next_num":7,"trial_type":"ticket-choose","trial_index":89,"time_elapsed":1620997,"internal_node_id":"0.0-89.0"},{"result":130,"points":3,"place":0,"phase":1,"sequence":5,"prices":[130,195,141,155,181,226,150,216,221,175],"times":[21284],"next_num":1,"trial_type":"ticket-choose","trial_index":90,"time_elapsed":1644392,"internal_node_id":"0.0-90.0"},{"result":91,"points":3,"place":0,"phase":1,"sequence":6,"prices":[176,150,141,91,290,201,106,266,206,126],"times":[12338,1185,1502,14955],"next_num":4,"trial_type":"ticket-choose","trial_index":91,"time_elapsed":1678173,"internal_node_id":"0.0-91.0"},{"result":161,"points":1,"place":3,"phase":1,"sequence":7,"prices":[161,180,171,250,176,195,131,146,105,201],"times":[1347],"next_num":1,"trial_type":"ticket-choose","trial_index":92,"time_elapsed":1682936,"internal_node_id":"0.0-92.0"},{"result":155,"points":1,"place":3,"phase":1,"sequence":8,"prices":[155,245,155,81,180,130,156,306,166,115],"times":[2214],"next_num":1,"trial_type":"ticket-choose","trial_index":93,"time_elapsed":1687485,"internal_node_id":"0.0-93.0"},{"result":130,"points":2,"place":1,"phase":1,"sequence":9,"prices":[156,181,130,255,175,200,170,150,111,205],"times":[1528,4228,1258],"next_num":3,"trial_type":"ticket-choose","trial_index":94,"time_elapsed":1704511,"internal_node_id":"0.0-94.0"},{"result":106,"points":2,"place":1,"phase":1,"sequence":10,"prices":[185,180,235,210,106,266,76,115,250,205],"times":[1800,487,586,1173,971],"next_num":5,"trial_type":"ticket-choose","trial_index":95,"time_elapsed":1713813,"internal_node_id":"0.0-95.0"},{"result":75,"points":3,"place":0,"phase":1,"sequence":11,"prices":[75,171,131,151,161,250,145,190,206,156],"times":[1698],"next_num":1,"trial_type":"ticket-choose","trial_index":96,"time_elapsed":1717823,"internal_node_id":"0.0-96.0"},{"result":95,"points":3,"place":0,"phase":1,"sequence":12,"prices":[95,205,106,151,186,271,145,210,215,181],"times":[1572],"next_num":1,"trial_type":"ticket-choose","trial_index":97,"time_elapsed":1723300,"internal_node_id":"0.0-97.0"},{"result":156,"points":1,"place":3,"phase":1,"sequence":13,"prices":[156,175,126,246,170,190,165,140,100,196],"times":[1974],"next_num":1,"trial_type":"ticket-choose","trial_index":98,"time_elapsed":1727791,"internal_node_id":"0.0-98.0"},{"result":150,"points":1,"place":3,"phase":1,"sequence":14,"prices":[150,176,126,251,171,195,165,145,105,200],"times":[3772],"next_num":1,"trial_type":"ticket-choose","trial_index":99,"time_elapsed":1733867,"internal_node_id":"0.0-99.0"},{"result":175,"points":1,"place":2,"phase":1,"sequence":15,"prices":[175,211,266,286,111,216,220,245,230,165],"times":[1561],"next_num":1,"trial_type":"ticket-choose","trial_index":100,"time_elapsed":1738727,"internal_node_id":"0.0-100.0"},{"result":116,"points":3,"place":0,"phase":1,"sequence":16,"prices":[176,150,276,171,261,116,130,201,166,231],"times":[91067,532,1704,889,1623,1325],"next_num":6,"trial_type":"ticket-choose","trial_index":101,"time_elapsed":1844139,"internal_node_id":"0.0-101.0"},{"result":155,"points":1,"place":3,"phase":1,"sequence":17,"prices":[155,181,170,255,176,200,130,150,110,205],"times":[1463],"next_num":1,"trial_type":"ticket-choose","trial_index":102,"time_elapsed":1848106,"internal_node_id":"0.0-102.0"},{"result":150,"points":1,"place":3,"phase":1,"sequence":18,"prices":[150,175,166,251,170,196,126,145,105,201],"times":[761],"next_num":1,"trial_type":"ticket-choose","trial_index":103,"time_elapsed":1853170,"internal_node_id":"0.0-103.0"},{"result":160,"points":1,"place":3,"phase":1,"sequence":19,"prices":[160,180,130,251,176,195,170,146,105,200],"times":[1668],"next_num":1,"trial_type":"ticket-choose","trial_index":104,"time_elapsed":1857492,"internal_node_id":"0.0-104.0"},{"result":155,"points":1,"place":2,"phase":1,"sequence":20,"prices":[155,225,245,130,176,106,180,211,165,200],"times":[1832],"next_num":1,"trial_type":"ticket-choose","trial_index":105,"time_elapsed":1863592,"internal_node_id":"0.0-105.0"},{"result":111,"points":3,"place":0,"phase":1,"sequence":21,"prices":[111,231,131,146,171,295,141,241,271,150],"times":[1413],"next_num":1,"trial_type":"ticket-choose","trial_index":106,"time_elapsed":1868730,"internal_node_id":"0.0-106.0"},{"result":150,"points":1,"place":3,"phase":1,"sequence":22,"prices":[150,171,121,241,165,185,160,136,95,191],"times":[1641],"next_num":1,"trial_type":"ticket-choose","trial_index":107,"time_elapsed":1873201,"internal_node_id":"0.0-107.0"},{"result":135,"points":3,"place":0,"phase":1,"sequence":23,"prices":[135,180,141,151,175,220,145,196,211,155],"times":[1536],"next_num":1,"trial_type":"ticket-choose","trial_index":108,"time_elapsed":1878947,"internal_node_id":"0.0-108.0"},{"result":226,"points":0,"place":9,"phase":1,"sequence":24,"prices":[226,205,125,120,115,135,180,145,150,220],"times":[3048],"next_num":1,"trial_type":"ticket-choose","trial_index":109,"time_elapsed":1885167,"internal_node_id":"0.0-109.0"},{"result":136,"points":1,"place":2,"phase":1,"sequence":25,"prices":[255,166,266,175,136,145,155,61,96,301],"times":[3425,423,1660,267,1217],"next_num":5,"trial_type":"ticket-choose","trial_index":110,"time_elapsed":1897578,"internal_node_id":"0.0-110.0"},{"result":131,"points":2,"place":1,"phase":1,"sequence":26,"prices":[160,180,170,251,176,195,131,146,105,200],"times":[1705,1435,928,1436,1175,1505,1148],"next_num":7,"trial_type":"ticket-choose","trial_index":111,"time_elapsed":1911868,"internal_node_id":"0.0-111.0"},{"result":155,"points":0,"place":5,"phase":1,"sequence":27,"prices":[155,30,101,55,136,276,70,181,200,261],"times":[1761],"next_num":1,"trial_type":"ticket-choose","trial_index":112,"time_elapsed":1918021,"internal_node_id":"0.0-112.0"},{"result":155,"points":1,"place":2,"phase":1,"sequence":28,"prices":[246,145,155,191,176,270,185,136,160,215],"times":[1749,501,1089],"next_num":3,"trial_type":"ticket-choose","trial_index":113,"time_elapsed":1925601,"internal_node_id":"0.0-113.0"},{"result":156,"points":1,"place":4,"phase":1,"sequence":29,"prices":[186,156,191,120,195,145,45,130,246,176],"times":[2908,390],"next_num":2,"trial_type":"ticket-choose","trial_index":114,"time_elapsed":1932208,"internal_node_id":"0.0-114.0"},{"result":81,"points":3,"place":0,"phase":1,"sequence":30,"prices":[81,205,130,151,191,261,145,210,250,165],"times":[1193],"next_num":1,"trial_type":"ticket-choose","trial_index":115,"time_elapsed":1936435,"internal_node_id":"0.0-115.0"},{"result":220,"points":0,"place":8,"phase":1,"sequence":31,"prices":[220,236,176,65,185,101,110,61,156,191],"times":[804],"next_num":1,"trial_type":"ticket-choose","trial_index":116,"time_elapsed":1940699,"internal_node_id":"0.0-116.0"},{"result":86,"points":3,"place":0,"phase":1,"sequence":32,"prices":[86,180,130,151,170,271,145,191,220,160],"times":[1480],"next_num":1,"trial_type":"ticket-choose","trial_index":117,"time_elapsed":1944195,"internal_node_id":"0.0-117.0"},{"result":175,"points":0,"place":7,"phase":1,"sequence":33,"prices":[221,175,51,196,146,130,166,80,126,156],"times":[416477,1593],"next_num":2,"trial_type":"ticket-choose","trial_index":118,"time_elapsed":2365209,"internal_node_id":"0.0-118.0"},{"result":180,"points":1,"place":4,"phase":1,"sequence":34,"prices":[180,106,166,245,211,261,215,125,135,190],"times":[2482],"next_num":1,"trial_type":"ticket-choose","trial_index":119,"time_elapsed":2370790,"internal_node_id":"0.0-119.0"},{"result":156,"points":1,"place":3,"phase":1,"sequence":35,"prices":[156,176,165,246,171,190,126,141,101,196],"times":[1659],"next_num":1,"trial_type":"ticket-choose","trial_index":120,"time_elapsed":2375182,"internal_node_id":"0.0-120.0"},{"result":185,"points":0,"place":5,"phase":1,"sequence":36,"prices":[185,175,276,221,130,141,171,216,235,165],"times":[9000],"next_num":1,"trial_type":"ticket-choose","trial_index":121,"time_elapsed":2387029,"internal_node_id":"0.0-121.0"},{"result":120,"points":3,"place":0,"phase":1,"sequence":37,"prices":[120,221,135,185,200,261,181,251,255,196],"times":[1288],"next_num":1,"trial_type":"ticket-choose","trial_index":122,"time_elapsed":2392642,"internal_node_id":"0.0-122.0"},{"result":156,"points":1,"place":3,"phase":1,"sequence":38,"prices":[156,181,131,256,176,200,171,151,111,206],"times":[1786],"next_num":1,"trial_type":"ticket-choose","trial_index":123,"time_elapsed":2397173,"internal_node_id":"0.0-123.0"},{"result":151,"points":1,"place":3,"phase":1,"sequence":39,"prices":[151,176,126,251,170,196,165,145,105,201],"times":[2927],"next_num":1,"trial_type":"ticket-choose","trial_index":124,"time_elapsed":2403151,"internal_node_id":"0.0-124.0"},{"result":150,"points":1,"place":3,"phase":1,"sequence":40,"prices":[150,170,160,240,166,185,121,136,95,191],"times":[1723],"next_num":1,"trial_type":"ticket-choose","trial_index":125,"time_elapsed":2409330,"internal_node_id":"0.0-125.0"},{"result":156,"points":1,"place":3,"phase":1,"sequence":41,"prices":[156,175,125,245,170,190,165,140,101,196],"times":[2751],"next_num":1,"trial_type":"ticket-choose","trial_index":126,"time_elapsed":2414964,"internal_node_id":"0.0-126.0"},{"result":146,"points":1,"place":3,"phase":1,"sequence":42,"prices":[146,171,120,245,165,191,160,140,100,196],"times":[1035],"next_num":1,"trial_type":"ticket-choose","trial_index":127,"time_elapsed":2419555,"internal_node_id":"0.0-127.0"},{"result":66,"points":3,"place":0,"phase":1,"sequence":43,"prices":[66,201,96,150,185,230,121,216,225,165],"times":[7139],"next_num":1,"trial_type":"ticket-choose","trial_index":128,"time_elapsed":2430355,"internal_node_id":"0.0-128.0"},{"result":121,"points":2,"place":1,"phase":1,"sequence":44,"prices":[146,170,121,245,166,190,161,141,100,195],"times":[6236,564,1844],"next_num":3,"trial_type":"ticket-choose","trial_index":129,"time_elapsed":2443193,"internal_node_id":"0.0-129.0"},{"result":150,"points":1,"place":3,"phase":1,"sequence":45,"prices":[150,171,120,241,165,185,160,135,96,190],"times":[1484],"next_num":1,"trial_type":"ticket-choose","trial_index":130,"time_elapsed":2448163,"internal_node_id":"0.0-130.0"},{"result":145,"points":3,"place":0,"phase":1,"sequence":46,"prices":[181,156,145,165,236,231,201,260,150,185],"times":[2880,1703,887],"next_num":3,"trial_type":"ticket-choose","trial_index":131,"time_elapsed":2458302,"internal_node_id":"0.0-131.0"},{"result":126,"points":2,"place":1,"phase":1,"sequence":47,"prices":[151,175,166,251,170,195,126,146,105,201],"times":[13528,717,2009,1644,581,2226,1137],"next_num":7,"trial_type":"ticket-choose","trial_index":132,"time_elapsed":2486059,"internal_node_id":"0.0-132.0"},{"result":156,"points":1,"place":3,"phase":1,"sequence":48,"prices":[156,181,171,256,175,200,131,150,110,206],"times":[2256],"next_num":1,"trial_type":"ticket-choose","trial_index":133,"time_elapsed":2491637,"internal_node_id":"0.0-133.0"},{"result":145,"points":1,"place":3,"phase":1,"sequence":49,"prices":[145,170,160,245,165,190,120,141,100,195],"times":[4465],"next_num":1,"trial_type":"ticket-choose","trial_index":134,"time_elapsed":2498665,"internal_node_id":"0.0-134.0"},{"responses":[{"value":0,"offby":-1,"category":"$30 - $75","category_index":0},{"value":0,"offby":-2,"category":"$76 - $120","category_index":1},{"value":18,"offby":14,"category":"$121 - $165","category_index":2},{"value":2,"offby":-4,"category":"$166 - $210","category_index":3},{"value":0,"offby":-6,"category":"$211 - $255","category_index":4},{"value":0,"offby":-1,"category":"$256 - $300","category_index":5},{"value":0,"offby":0,"category":"$301 - $345","category_index":6}],"phase":1,"number":1,"trial_type":"bar-choose","trial_index":135,"time_elapsed":2523317,"internal_node_id":"0.0-135.0"},{"special_comment":"","trial_type":"special_sequence","trial_index":136,"time_elapsed":2528218,"internal_node_id":"0.0-136.0"},{"during":"Nothing","bonus":188,"trial_type":"final","trial_index":137,"time_elapsed":2548097,"internal_node_id":"0.0-137.0"}],"bonus":188}