{"start_time":"2017-02-16 15:41:02","end_time":"2017-02-16 16:15:07","points_phase0":100,"points_phase1":107,"phase_order":1,"age":24,"gender":"f","tries":1,"during":"Nothing","worker_id":"A2106ZBHRHGX64","assignment_id":"38BQUHLA9XTBED9YTQ20MNJNHH5OMD","data":[{"rt":4279,"url":"\/tickets\/utils\/consent.html","trial_type":"html","trial_index":0,"time_elapsed":4780,"internal_node_id":"0.0-0.0"},{"age":24,"gender":"f","trial_type":"age","trial_index":1,"time_elapsed":25932,"internal_node_id":"0.0-1.0"},{"worker_id":"A2106ZBHRHGX64","trial_type":"workerid","trial_index":2,"time_elapsed":37291,"internal_node_id":"0.0-2.0"},{"tries":1,"trial_type":"instructions_check","trial_index":3,"time_elapsed":113874,"internal_node_id":"0.0-3.0"},{"rt":19187,"url":"\/tickets\/utils\/start.html","trial_type":"html","trial_index":4,"time_elapsed":134178,"internal_node_id":"0.0-4.0"},{"trial_type":"number-animation","trial_index":5,"time_elapsed":252869,"internal_node_id":"0.0-5.0"},{"phase":0,"sequence":0,"avg":182,"response":180,"trial_type":"training_avg","trial_index":6,"time_elapsed":297164,"internal_node_id":"0.0-6.0"},{"trial_type":"number-animation","trial_index":7,"time_elapsed":354307,"internal_node_id":"0.0-7.0"},{"phase":0,"sequence":1,"avg":188,"response":190,"trial_type":"training_avg","trial_index":8,"time_elapsed":392874,"internal_node_id":"0.0-8.0"},{"trial_type":"number-animation","trial_index":9,"time_elapsed":503059,"internal_node_id":"0.0-9.0"},{"phase":0,"sequence":2,"avg":176,"response":180,"trial_type":"training_avg","trial_index":10,"time_elapsed":528126,"internal_node_id":"0.0-10.0"},{"trial_type":"number-animation","trial_index":11,"time_elapsed":576530,"internal_node_id":"0.0-11.0"},{"phase":0,"sequence":3,"avg":180,"response":180,"trial_type":"training_avg","trial_index":12,"time_elapsed":586658,"internal_node_id":"0.0-12.0"},{"trial_type":"number-animation","trial_index":13,"time_elapsed":640314,"internal_node_id":"0.0-13.0"},{"phase":0,"sequence":4,"avg":174,"response":175,"trial_type":"training_avg","trial_index":14,"time_elapsed":648667,"internal_node_id":"0.0-14.0"},{"responses":[{"value":1,"offby":0,"category":"$90 - $120","category_index":0},{"value":2,"offby":-1,"category":"$121 - $145","category_index":1},{"value":10,"offby":7,"category":"$146 - $170","category_index":2},{"value":5,"offby":-1,"category":"$171 - $195","category_index":3},{"value":2,"offby":-2,"category":"$196 - $220","category_index":4},{"value":0,"offby":-2,"category":"$221 - $245","category_index":5},{"value":0,"offby":-1,"category":"$246 - $270","category_index":6}],"phase":0,"number":0,"trial_type":"bar-choose","trial_index":15,"time_elapsed":775245,"internal_node_id":"0.0-15.0"},{"rt":33487,"url":"\/tickets\/\/utils\/testing.html","trial_type":"html","trial_index":16,"time_elapsed":809843,"internal_node_id":"0.0-16.0"},{"phase":0,"order":[27,44,8,47,32,46,16,7,41,29,14,48,35,22,38,19,1,34,26,3,13,33,24,10,36,5,11,20,9,49,18,37,40,39,42,6,17,25,43,21,0,15,2,12,4,30,28,45,23,31],"trial_type":"store_order","trial_index":17,"time_elapsed":810844,"internal_node_id":"0.0-17.0"},{"result":165,"points":2,"place":1,"phase":0,"sequence":-1,"times":[25934,16005,9446,14898],"next_num":4,"trial_type":"ticket-choose","trial_index":18,"time_elapsed":880764,"internal_node_id":"0.0-18.0"},{"rt":27447,"url":"\/tickets\/utils\/testing_after.html","trial_type":"html","trial_index":19,"time_elapsed":909324,"internal_node_id":"0.0-19.0"},{"result":158,"points":1,"place":3,"phase":0,"sequence":0,"times":[1632,523,1655],"next_num":3,"trial_type":"ticket-choose","trial_index":20,"time_elapsed":916269,"internal_node_id":"0.0-20.0"},{"result":189,"points":1,"place":4,"phase":0,"sequence":1,"times":[1339,590,815,607,695,750,1142,895,1198,2046],"next_num":11,"trial_type":"ticket-choose","trial_index":21,"time_elapsed":931315,"internal_node_id":"0.0-21.0"},{"result":130,"points":2,"place":1,"phase":0,"sequence":2,"times":[3278,1094],"next_num":2,"trial_type":"ticket-choose","trial_index":22,"time_elapsed":938020,"internal_node_id":"0.0-22.0"},{"result":131,"points":2,"place":1,"phase":0,"sequence":3,"times":[1136,607,975],"next_num":3,"trial_type":"ticket-choose","trial_index":23,"time_elapsed":943011,"internal_node_id":"0.0-23.0"},{"result":152,"points":1,"place":3,"phase":0,"sequence":4,"times":[2151,3024,630,645,1839],"next_num":5,"trial_type":"ticket-choose","trial_index":24,"time_elapsed":954115,"internal_node_id":"0.0-24.0"},{"result":105,"points":3,"place":0,"phase":0,"sequence":5,"times":[683,758,1119,686,959],"next_num":5,"trial_type":"ticket-choose","trial_index":25,"time_elapsed":961612,"internal_node_id":"0.0-25.0"},{"result":124,"points":3,"place":0,"phase":0,"sequence":6,"times":[1158,1630,615,999],"next_num":4,"trial_type":"ticket-choose","trial_index":26,"time_elapsed":968372,"internal_node_id":"0.0-26.0"},{"result":135,"points":3,"place":0,"phase":0,"sequence":7,"times":[3558,693,1199],"next_num":3,"trial_type":"ticket-choose","trial_index":27,"time_elapsed":976650,"internal_node_id":"0.0-27.0"},{"result":188,"points":1,"place":4,"phase":0,"sequence":8,"times":[3881,575,694,619,695,614,807,654,750,1535],"next_num":11,"trial_type":"ticket-choose","trial_index":28,"time_elapsed":992211,"internal_node_id":"0.0-28.0"},{"result":129,"points":2,"place":1,"phase":0,"sequence":9,"times":[1534,936],"next_num":2,"trial_type":"ticket-choose","trial_index":29,"time_elapsed":996636,"internal_node_id":"0.0-29.0"},{"result":135,"points":3,"place":0,"phase":0,"sequence":10,"times":[1164],"next_num":1,"trial_type":"ticket-choose","trial_index":30,"time_elapsed":999770,"internal_node_id":"0.0-30.0"},{"result":146,"points":2,"place":1,"phase":0,"sequence":11,"times":[13613,615,632,646,631,671,1128],"next_num":7,"trial_type":"ticket-choose","trial_index":31,"time_elapsed":1020850,"internal_node_id":"0.0-31.0"},{"result":165,"points":1,"place":2,"phase":0,"sequence":12,"times":[1428,567,751,735,649,654,1891],"next_num":7,"trial_type":"ticket-choose","trial_index":32,"time_elapsed":1030538,"internal_node_id":"0.0-32.0"},{"result":154,"points":2,"place":1,"phase":0,"sequence":13,"times":[974,710,2862],"next_num":3,"trial_type":"ticket-choose","trial_index":33,"time_elapsed":1037355,"internal_node_id":"0.0-33.0"},{"result":146,"points":2,"place":1,"phase":0,"sequence":14,"times":[937,614,1302],"next_num":3,"trial_type":"ticket-choose","trial_index":34,"time_elapsed":1042482,"internal_node_id":"0.0-34.0"},{"result":146,"points":2,"place":1,"phase":0,"sequence":15,"times":[1670,671,592,583,589,632,1062],"next_num":7,"trial_type":"ticket-choose","trial_index":35,"time_elapsed":1053538,"internal_node_id":"0.0-35.0"},{"result":128,"points":3,"place":0,"phase":0,"sequence":16,"times":[1062,998,551,547,647,2206,645,896],"next_num":8,"trial_type":"ticket-choose","trial_index":36,"time_elapsed":1064291,"internal_node_id":"0.0-36.0"},{"result":146,"points":2,"place":1,"phase":0,"sequence":17,"times":[2046,1262,2416],"next_num":3,"trial_type":"ticket-choose","trial_index":37,"time_elapsed":1072211,"internal_node_id":"0.0-37.0"},{"result":136,"points":2,"place":1,"phase":0,"sequence":18,"times":[1093,1759,1366],"next_num":3,"trial_type":"ticket-choose","trial_index":38,"time_elapsed":1078634,"internal_node_id":"0.0-38.0"},{"result":136,"points":2,"place":1,"phase":0,"sequence":19,"times":[466,567,567,673,668,670,903],"next_num":7,"trial_type":"ticket-choose","trial_index":39,"time_elapsed":1086115,"internal_node_id":"0.0-39.0"},{"result":146,"points":2,"place":1,"phase":0,"sequence":20,"times":[644,607,896],"next_num":3,"trial_type":"ticket-choose","trial_index":40,"time_elapsed":1090435,"internal_node_id":"0.0-40.0"},{"result":154,"points":2,"place":1,"phase":0,"sequence":21,"times":[670,645,655,630,2000],"next_num":5,"trial_type":"ticket-choose","trial_index":41,"time_elapsed":1097539,"internal_node_id":"0.0-41.0"},{"result":156,"points":1,"place":2,"phase":0,"sequence":22,"times":[548,381,591,551,567,592,582,919],"next_num":8,"trial_type":"ticket-choose","trial_index":42,"time_elapsed":1105514,"internal_node_id":"0.0-42.0"},{"result":154,"points":2,"place":1,"phase":0,"sequence":23,"times":[1072,552,749,654,670,591,919],"next_num":7,"trial_type":"ticket-choose","trial_index":43,"time_elapsed":1113635,"internal_node_id":"0.0-43.0"},{"result":119,"points":3,"place":0,"phase":0,"sequence":24,"times":[506,895],"next_num":2,"trial_type":"ticket-choose","trial_index":44,"time_elapsed":1116851,"internal_node_id":"0.0-44.0"},{"result":121,"points":3,"place":0,"phase":0,"sequence":25,"times":[1338],"next_num":1,"trial_type":"ticket-choose","trial_index":45,"time_elapsed":1119891,"internal_node_id":"0.0-45.0"},{"result":136,"points":3,"place":0,"phase":0,"sequence":26,"times":[705,1430,1495,561,654,999],"next_num":6,"trial_type":"ticket-choose","trial_index":46,"time_elapsed":1128443,"internal_node_id":"0.0-46.0"},{"result":158,"points":1,"place":2,"phase":0,"sequence":27,"times":[5104,654,1406,590,623,670,841,1166],"next_num":8,"trial_type":"ticket-choose","trial_index":47,"time_elapsed":1143043,"internal_node_id":"0.0-47.0"},{"result":154,"points":2,"place":1,"phase":0,"sequence":28,"times":[1363,644,983],"next_num":3,"trial_type":"ticket-choose","trial_index":48,"time_elapsed":1148172,"internal_node_id":"0.0-48.0"},{"result":146,"points":2,"place":1,"phase":0,"sequence":29,"times":[646,631,630,815,695,646,920],"next_num":7,"trial_type":"ticket-choose","trial_index":49,"time_elapsed":1156034,"internal_node_id":"0.0-49.0"},{"result":161,"points":0,"place":6,"phase":0,"sequence":30,"times":[446,1574],"next_num":2,"trial_type":"ticket-choose","trial_index":50,"time_elapsed":1160339,"internal_node_id":"0.0-50.0"},{"result":124,"points":3,"place":0,"phase":0,"sequence":31,"times":[1404],"next_num":1,"trial_type":"ticket-choose","trial_index":51,"time_elapsed":1163418,"internal_node_id":"0.0-51.0"},{"result":137,"points":3,"place":0,"phase":0,"sequence":32,"times":[1630],"next_num":1,"trial_type":"ticket-choose","trial_index":52,"time_elapsed":1166971,"internal_node_id":"0.0-52.0"},{"result":154,"points":2,"place":1,"phase":0,"sequence":33,"times":[818,630,8919,733,582,633,1430],"next_num":7,"trial_type":"ticket-choose","trial_index":53,"time_elapsed":1183875,"internal_node_id":"0.0-53.0"},{"result":153,"points":2,"place":1,"phase":0,"sequence":34,"times":[765,934],"next_num":2,"trial_type":"ticket-choose","trial_index":54,"time_elapsed":1187803,"internal_node_id":"0.0-54.0"},{"result":136,"points":2,"place":1,"phase":0,"sequence":35,"times":[669,632,639,583,791,591,942],"next_num":7,"trial_type":"ticket-choose","trial_index":55,"time_elapsed":1195531,"internal_node_id":"0.0-55.0"},{"result":114,"points":3,"place":0,"phase":0,"sequence":36,"times":[710,526,751,919],"next_num":4,"trial_type":"ticket-choose","trial_index":56,"time_elapsed":1200714,"internal_node_id":"0.0-56.0"},{"result":136,"points":2,"place":1,"phase":0,"sequence":37,"times":[2086,645,814],"next_num":3,"trial_type":"ticket-choose","trial_index":57,"time_elapsed":1206347,"internal_node_id":"0.0-57.0"},{"result":136,"points":2,"place":1,"phase":0,"sequence":38,"times":[9137,3029,814],"next_num":3,"trial_type":"ticket-choose","trial_index":58,"time_elapsed":1221403,"internal_node_id":"0.0-58.0"},{"result":136,"points":2,"place":1,"phase":0,"sequence":39,"times":[613,630,1317,630,1697,637,871],"next_num":7,"trial_type":"ticket-choose","trial_index":59,"time_elapsed":1230683,"internal_node_id":"0.0-59.0"},{"result":154,"points":2,"place":1,"phase":0,"sequence":40,"times":[1036,688,878,657,606,872,1207],"next_num":7,"trial_type":"ticket-choose","trial_index":60,"time_elapsed":1239612,"internal_node_id":"0.0-60.0"},{"result":196,"points":1,"place":4,"phase":0,"sequence":41,"times":[500,873,758,607,694,695,623,656,630,918],"next_num":11,"trial_type":"ticket-choose","trial_index":61,"time_elapsed":1250235,"internal_node_id":"0.0-61.0"},{"result":136,"points":2,"place":1,"phase":0,"sequence":42,"times":[4742,590,568,799,6655,737,918],"next_num":7,"trial_type":"ticket-choose","trial_index":62,"time_elapsed":1268124,"internal_node_id":"0.0-62.0"},{"result":132,"points":3,"place":0,"phase":0,"sequence":43,"times":[925],"next_num":1,"trial_type":"ticket-choose","trial_index":63,"time_elapsed":1270700,"internal_node_id":"0.0-63.0"},{"result":154,"points":2,"place":1,"phase":0,"sequence":44,"times":[646,590,598,647,607,630,1039],"next_num":7,"trial_type":"ticket-choose","trial_index":64,"time_elapsed":1278339,"internal_node_id":"0.0-64.0"},{"result":156,"points":1,"place":2,"phase":0,"sequence":45,"times":[1301],"next_num":1,"trial_type":"ticket-choose","trial_index":65,"time_elapsed":1281274,"internal_node_id":"0.0-65.0"},{"result":136,"points":2,"place":1,"phase":0,"sequence":46,"times":[755,694,941],"next_num":3,"trial_type":"ticket-choose","trial_index":66,"time_elapsed":1285698,"internal_node_id":"0.0-66.0"},{"result":138,"points":1,"place":2,"phase":0,"sequence":47,"times":[1156,848],"next_num":2,"trial_type":"ticket-choose","trial_index":67,"time_elapsed":1289530,"internal_node_id":"0.0-67.0"},{"result":146,"points":2,"place":1,"phase":0,"sequence":48,"times":[2230,672,630,621,552,527,856],"next_num":7,"trial_type":"ticket-choose","trial_index":68,"time_elapsed":1298939,"internal_node_id":"0.0-68.0"},{"result":146,"points":2,"place":1,"phase":0,"sequence":49,"times":[741,654,814],"next_num":3,"trial_type":"ticket-choose","trial_index":69,"time_elapsed":1303210,"internal_node_id":"0.0-69.0"},{"responses":[{"value":1,"offby":0,"category":"$90 - $120","category_index":0},{"value":2,"offby":-1,"category":"$121 - $145","category_index":1},{"value":4,"offby":1,"category":"$146 - $170","category_index":2},{"value":7,"offby":1,"category":"$171 - $195","category_index":3},{"value":6,"offby":2,"category":"$196 - $220","category_index":4},{"value":0,"offby":-2,"category":"$221 - $245","category_index":5},{"value":0,"offby":-1,"category":"$246 - $270","category_index":6}],"phase":0,"number":1,"trial_type":"bar-choose","trial_index":70,"time_elapsed":1330764,"internal_node_id":"0.0-70.0"},{"rt":9440,"url":"\/tickets\/utils\/start2.html","trial_type":"html","trial_index":71,"time_elapsed":1342676,"internal_node_id":"0.0-71.0"},{"trial_type":"number-animation","trial_index":72,"time_elapsed":1398644,"internal_node_id":"0.0-72.0"},{"phase":1,"sequence":0,"avg":181,"response":180,"trial_type":"training_avg","trial_index":73,"time_elapsed":1412980,"internal_node_id":"0.0-73.0"},{"trial_type":"number-animation","trial_index":74,"time_elapsed":1444835,"internal_node_id":"0.0-74.0"},{"phase":1,"sequence":1,"avg":188,"response":177,"trial_type":"training_avg","trial_index":75,"time_elapsed":1452069,"internal_node_id":"0.0-75.0"},{"trial_type":"number-animation","trial_index":76,"time_elapsed":1494251,"internal_node_id":"0.0-76.0"},{"phase":1,"sequence":2,"avg":188,"response":190,"trial_type":"training_avg","trial_index":77,"time_elapsed":1501300,"internal_node_id":"0.0-77.0"},{"trial_type":"number-animation","trial_index":78,"time_elapsed":1540220,"internal_node_id":"0.0-78.0"},{"phase":1,"sequence":3,"avg":177,"response":180,"trial_type":"training_avg","trial_index":79,"time_elapsed":1546635,"internal_node_id":"0.0-79.0"},{"trial_type":"number-animation","trial_index":80,"time_elapsed":1598404,"internal_node_id":"0.0-80.0"},{"phase":1,"sequence":4,"avg":182,"response":180,"trial_type":"training_avg","trial_index":81,"time_elapsed":1615468,"internal_node_id":"0.0-81.0"},{"responses":[{"value":0,"offby":0,"category":"$106 - $134","category_index":0},{"value":1,"offby":0,"category":"$135 - $150","category_index":1},{"value":4,"offby":1,"category":"$151 - $165","category_index":2},{"value":6,"offby":0,"category":"$166 - $180","category_index":3},{"value":8,"offby":2,"category":"$181 - $195","category_index":4},{"value":1,"offby":-2,"category":"$196 - $210","category_index":5},{"value":0,"offby":-1,"category":"$211 - $225","category_index":6}],"phase":1,"number":0,"trial_type":"bar-choose","trial_index":82,"time_elapsed":1654213,"internal_node_id":"0.0-82.0"},{"rt":6408,"url":"\/tickets\/utils\/testing2.html","trial_type":"html","trial_index":83,"time_elapsed":1661748,"internal_node_id":"0.0-83.0"},{"phase":1,"order":[37,28,34,41,49,42,47,43,24,35,30,6,27,9,0,4,36,3,16,22,1,45,8,13,40,29,46,10,11,7,31,26,33,12,39,20,48,19,17,21,14,32,23,25,15,38,18,44,5,2],"trial_type":"store_order","trial_index":84,"time_elapsed":1662750,"internal_node_id":"0.0-84.0"},{"result":186,"points":1,"place":4,"phase":1,"sequence":0,"times":[3368,639,581,615,647,695,630,662,615,879],"next_num":11,"trial_type":"ticket-choose","trial_index":85,"time_elapsed":1676005,"internal_node_id":"0.0-85.0"},{"result":159,"points":1,"place":2,"phase":1,"sequence":1,"times":[1169,839],"next_num":2,"trial_type":"ticket-choose","trial_index":86,"time_elapsed":1680060,"internal_node_id":"0.0-86.0"},{"result":167,"points":2,"place":1,"phase":1,"sequence":2,"times":[1142,551,775],"next_num":3,"trial_type":"ticket-choose","trial_index":87,"time_elapsed":1684667,"internal_node_id":"0.0-87.0"},{"result":152,"points":3,"place":0,"phase":1,"sequence":3,"times":[481,566,647,855],"next_num":4,"trial_type":"ticket-choose","trial_index":88,"time_elapsed":1689628,"internal_node_id":"0.0-88.0"},{"result":161,"points":3,"place":0,"phase":1,"sequence":4,"times":[1916],"next_num":1,"trial_type":"ticket-choose","trial_index":89,"time_elapsed":1693420,"internal_node_id":"0.0-89.0"},{"result":158,"points":3,"place":0,"phase":1,"sequence":5,"times":[645,693,592,608,630,815],"next_num":6,"trial_type":"ticket-choose","trial_index":90,"time_elapsed":1700195,"internal_node_id":"0.0-90.0"},{"result":158,"points":2,"place":1,"phase":1,"sequence":6,"times":[484,840,854],"next_num":3,"trial_type":"ticket-choose","trial_index":91,"time_elapsed":1704404,"internal_node_id":"0.0-91.0"},{"result":163,"points":2,"place":1,"phase":1,"sequence":7,"times":[908,615,871,654,711,737,749],"next_num":7,"trial_type":"ticket-choose","trial_index":92,"time_elapsed":1712636,"internal_node_id":"0.0-92.0"},{"result":155,"points":2,"place":1,"phase":1,"sequence":8,"times":[438,503,879],"next_num":3,"trial_type":"ticket-choose","trial_index":93,"time_elapsed":1716572,"internal_node_id":"0.0-93.0"},{"result":154,"points":2,"place":1,"phase":1,"sequence":9,"times":[446,982,813],"next_num":3,"trial_type":"ticket-choose","trial_index":94,"time_elapsed":1721268,"internal_node_id":"0.0-94.0"},{"result":167,"points":2,"place":1,"phase":1,"sequence":10,"times":[722,656,646,614,709,583,823],"next_num":7,"trial_type":"ticket-choose","trial_index":95,"time_elapsed":1728964,"internal_node_id":"0.0-95.0"},{"result":147,"points":3,"place":0,"phase":1,"sequence":11,"times":[740,564,1079,897],"next_num":4,"trial_type":"ticket-choose","trial_index":96,"time_elapsed":1734468,"internal_node_id":"0.0-96.0"},{"result":154,"points":2,"place":1,"phase":1,"sequence":12,"times":[1472,836],"next_num":2,"trial_type":"ticket-choose","trial_index":97,"time_elapsed":1738612,"internal_node_id":"0.0-97.0"},{"result":158,"points":2,"place":1,"phase":1,"sequence":13,"times":[732,790,592,591,591,608,894],"next_num":7,"trial_type":"ticket-choose","trial_index":98,"time_elapsed":1746532,"internal_node_id":"0.0-98.0"},{"result":163,"points":3,"place":0,"phase":1,"sequence":14,"times":[469,661,657,565,839,752,613,934],"next_num":8,"trial_type":"ticket-choose","trial_index":99,"time_elapsed":1755156,"internal_node_id":"0.0-99.0"},{"result":158,"points":2,"place":1,"phase":1,"sequence":15,"times":[936,864,813],"next_num":3,"trial_type":"ticket-choose","trial_index":100,"time_elapsed":1759844,"internal_node_id":"0.0-100.0"},{"result":163,"points":2,"place":1,"phase":1,"sequence":16,"times":[6355,670,776],"next_num":3,"trial_type":"ticket-choose","trial_index":101,"time_elapsed":1769676,"internal_node_id":"0.0-101.0"},{"result":155,"points":2,"place":1,"phase":1,"sequence":17,"times":[755,1103],"next_num":2,"trial_type":"ticket-choose","trial_index":102,"time_elapsed":1773332,"internal_node_id":"0.0-102.0"},{"result":152,"points":3,"place":0,"phase":1,"sequence":18,"times":[1125],"next_num":1,"trial_type":"ticket-choose","trial_index":103,"time_elapsed":1776403,"internal_node_id":"0.0-103.0"},{"result":163,"points":2,"place":1,"phase":1,"sequence":19,"times":[870,671,742],"next_num":3,"trial_type":"ticket-choose","trial_index":104,"time_elapsed":1780763,"internal_node_id":"0.0-104.0"},{"result":168,"points":1,"place":2,"phase":1,"sequence":20,"times":[732,710,607,694,551,664,573,999],"next_num":8,"trial_type":"ticket-choose","trial_index":105,"time_elapsed":1789347,"internal_node_id":"0.0-105.0"},{"result":166,"points":2,"place":1,"phase":1,"sequence":21,"times":[407,696,956],"next_num":3,"trial_type":"ticket-choose","trial_index":106,"time_elapsed":1793403,"internal_node_id":"0.0-106.0"},{"result":161,"points":3,"place":0,"phase":1,"sequence":22,"times":[773],"next_num":1,"trial_type":"ticket-choose","trial_index":107,"time_elapsed":1795779,"internal_node_id":"0.0-107.0"},{"result":167,"points":2,"place":1,"phase":1,"sequence":23,"times":[892,590,943],"next_num":3,"trial_type":"ticket-choose","trial_index":108,"time_elapsed":1800491,"internal_node_id":"0.0-108.0"},{"result":165,"points":2,"place":1,"phase":1,"sequence":24,"times":[710,592,775],"next_num":3,"trial_type":"ticket-choose","trial_index":109,"time_elapsed":1804572,"internal_node_id":"0.0-109.0"},{"result":163,"points":2,"place":1,"phase":1,"sequence":25,"times":[3659,535,543,567,718,831,838],"next_num":7,"trial_type":"ticket-choose","trial_index":110,"time_elapsed":1815332,"internal_node_id":"0.0-110.0"},{"result":167,"points":2,"place":1,"phase":1,"sequence":26,"times":[1141,565,959],"next_num":3,"trial_type":"ticket-choose","trial_index":111,"time_elapsed":1820147,"internal_node_id":"0.0-111.0"},{"result":158,"points":2,"place":1,"phase":1,"sequence":27,"times":[1040,750,631,631,591,687,983],"next_num":7,"trial_type":"ticket-choose","trial_index":112,"time_elapsed":1828539,"internal_node_id":"0.0-112.0"},{"result":167,"points":2,"place":1,"phase":1,"sequence":28,"times":[756,623,879],"next_num":3,"trial_type":"ticket-choose","trial_index":113,"time_elapsed":1833051,"internal_node_id":"0.0-113.0"},{"result":163,"points":1,"place":2,"phase":1,"sequence":29,"times":[686,807],"next_num":2,"trial_type":"ticket-choose","trial_index":114,"time_elapsed":1836371,"internal_node_id":"0.0-114.0"},{"result":158,"points":2,"place":1,"phase":1,"sequence":30,"times":[1876,775,1013],"next_num":3,"trial_type":"ticket-choose","trial_index":115,"time_elapsed":1842923,"internal_node_id":"0.0-115.0"},{"result":163,"points":2,"place":1,"phase":1,"sequence":31,"times":[2693,631,848,895],"next_num":4,"trial_type":"ticket-choose","trial_index":116,"time_elapsed":1850235,"internal_node_id":"0.0-116.0"},{"result":150,"points":3,"place":0,"phase":1,"sequence":32,"times":[669,1079],"next_num":2,"trial_type":"ticket-choose","trial_index":117,"time_elapsed":1853779,"internal_node_id":"0.0-117.0"},{"result":165,"points":3,"place":0,"phase":1,"sequence":33,"times":[1065,1006,1013,591,895],"next_num":5,"trial_type":"ticket-choose","trial_index":118,"time_elapsed":1861196,"internal_node_id":"0.0-118.0"},{"result":186,"points":1,"place":4,"phase":1,"sequence":34,"times":[668,632,590,528,552,726,590,592,919,751],"next_num":11,"trial_type":"ticket-choose","trial_index":119,"time_elapsed":1871492,"internal_node_id":"0.0-119.0"},{"result":163,"points":2,"place":1,"phase":1,"sequence":35,"times":[769,511,566,671,736,645,839],"next_num":7,"trial_type":"ticket-choose","trial_index":120,"time_elapsed":1879116,"internal_node_id":"0.0-120.0"},{"result":158,"points":2,"place":1,"phase":1,"sequence":36,"times":[1089,616,1300],"next_num":3,"trial_type":"ticket-choose","trial_index":121,"time_elapsed":1884218,"internal_node_id":"0.0-121.0"},{"result":156,"points":3,"place":0,"phase":1,"sequence":37,"times":[1323],"next_num":1,"trial_type":"ticket-choose","trial_index":122,"time_elapsed":1887468,"internal_node_id":"0.0-122.0"},{"result":157,"points":3,"place":0,"phase":1,"sequence":38,"times":[684,1487,750],"next_num":3,"trial_type":"ticket-choose","trial_index":123,"time_elapsed":1892447,"internal_node_id":"0.0-123.0"},{"result":158,"points":2,"place":1,"phase":1,"sequence":39,"times":[676,551,670,1121,645,736,1023],"next_num":7,"trial_type":"ticket-choose","trial_index":124,"time_elapsed":1900915,"internal_node_id":"0.0-124.0"},{"result":163,"points":2,"place":1,"phase":1,"sequence":40,"times":[747,702,776],"next_num":3,"trial_type":"ticket-choose","trial_index":125,"time_elapsed":1905300,"internal_node_id":"0.0-125.0"},{"result":167,"points":2,"place":1,"phase":1,"sequence":41,"times":[731,607,615,647,606,568,944],"next_num":7,"trial_type":"ticket-choose","trial_index":126,"time_elapsed":1913019,"internal_node_id":"0.0-126.0"},{"result":163,"points":2,"place":1,"phase":1,"sequence":42,"times":[773,839,791],"next_num":3,"trial_type":"ticket-choose","trial_index":127,"time_elapsed":1917491,"internal_node_id":"0.0-127.0"},{"result":167,"points":2,"place":1,"phase":1,"sequence":43,"times":[915,735,838,681,593,628,886],"next_num":7,"trial_type":"ticket-choose","trial_index":128,"time_elapsed":1925811,"internal_node_id":"0.0-128.0"},{"result":163,"points":2,"place":1,"phase":1,"sequence":44,"times":[739,656,1429,648,1488,629,798],"next_num":7,"trial_type":"ticket-choose","trial_index":129,"time_elapsed":1934997,"internal_node_id":"0.0-129.0"},{"result":157,"points":3,"place":0,"phase":1,"sequence":45,"times":[941],"next_num":1,"trial_type":"ticket-choose","trial_index":130,"time_elapsed":1937653,"internal_node_id":"0.0-130.0"},{"result":185,"points":1,"place":4,"phase":1,"sequence":46,"times":[8668,695,541,656,856,869,591,839,582,697],"next_num":11,"trial_type":"ticket-choose","trial_index":131,"time_elapsed":1957085,"internal_node_id":"0.0-131.0"},{"result":167,"points":2,"place":1,"phase":1,"sequence":47,"times":[1091,718,607,704,807],"next_num":5,"trial_type":"ticket-choose","trial_index":132,"time_elapsed":1963580,"internal_node_id":"0.0-132.0"},{"result":158,"points":2,"place":1,"phase":1,"sequence":48,"times":[707,623,719,630,855,710,791],"next_num":7,"trial_type":"ticket-choose","trial_index":133,"time_elapsed":1971484,"internal_node_id":"0.0-133.0"},{"result":148,"points":3,"place":0,"phase":1,"sequence":49,"times":[869],"next_num":1,"trial_type":"ticket-choose","trial_index":134,"time_elapsed":1973940,"internal_node_id":"0.0-134.0"},{"responses":[{"value":0,"offby":0,"category":"$106 - $134","category_index":0},{"value":2,"offby":1,"category":"$135 - $150","category_index":1},{"value":4,"offby":1,"category":"$151 - $165","category_index":2},{"value":7,"offby":1,"category":"$166 - $180","category_index":3},{"value":4,"offby":-2,"category":"$181 - $195","category_index":4},{"value":3,"offby":0,"category":"$196 - $210","category_index":5},{"value":0,"offby":-1,"category":"$211 - $225","category_index":6}],"phase":1,"number":1,"trial_type":"bar-choose","trial_index":135,"time_elapsed":2009869,"internal_node_id":"0.0-135.0"},{"special_comment":"No","trial_type":"special_sequence","trial_index":136,"time_elapsed":2015711,"internal_node_id":"0.0-136.0"},{"during":"Nothing","bonus":276,"trial_type":"final","trial_index":137,"time_elapsed":2041864,"internal_node_id":"0.0-137.0"}],"bonus":276}