{"start_time":"2017-02-22 09:59:40","end_time":"2017-02-22 10:19:24","points_phase0":117,"points_phase1":107,"phase_order":1,"age":21,"gender":"m","tries":1,"during":"Nothing","worker_id":"A216CHBAPARGRZ","assignment_id":"3U0SRXB7CEYKT8MEXJY4TXDSYGZRNY","data":[{"rt":12814,"url":"\/tickets\/utils\/consent.html","trial_type":"html","trial_index":0,"time_elapsed":12980,"internal_node_id":"0.0-0.0"},{"age":21,"gender":"m","trial_type":"age","trial_index":1,"time_elapsed":16845,"internal_node_id":"0.0-1.0"},{"worker_id":"A216CHBAPARGRZ","trial_type":"workerid","trial_index":2,"time_elapsed":65461,"internal_node_id":"0.0-2.0"},{"tries":1,"trial_type":"instructions_check","trial_index":3,"time_elapsed":77380,"internal_node_id":"0.0-3.0"},{"rt":6938,"url":"\/tickets\/utils\/start.html","trial_type":"html","trial_index":4,"time_elapsed":85443,"internal_node_id":"0.0-4.0"},{"trial_type":"number-animation","trial_index":5,"time_elapsed":102656,"internal_node_id":"0.0-5.0"},{"phase":0,"sequence":0,"avg":182,"response":165,"trial_type":"training_avg","trial_index":6,"time_elapsed":111274,"internal_node_id":"0.0-6.0"},{"trial_type":"number-animation","trial_index":7,"time_elapsed":128505,"internal_node_id":"0.0-7.0"},{"phase":0,"sequence":1,"avg":188,"response":198,"trial_type":"training_avg","trial_index":8,"time_elapsed":136872,"internal_node_id":"0.0-8.0"},{"trial_type":"number-animation","trial_index":9,"time_elapsed":150689,"internal_node_id":"0.0-9.0"},{"phase":0,"sequence":2,"avg":176,"response":175,"trial_type":"training_avg","trial_index":10,"time_elapsed":156944,"internal_node_id":"0.0-10.0"},{"trial_type":"number-animation","trial_index":11,"time_elapsed":171084,"internal_node_id":"0.0-11.0"},{"phase":0,"sequence":3,"avg":180,"response":185,"trial_type":"training_avg","trial_index":12,"time_elapsed":179446,"internal_node_id":"0.0-12.0"},{"trial_type":"number-animation","trial_index":13,"time_elapsed":191516,"internal_node_id":"0.0-13.0"},{"phase":0,"sequence":4,"avg":174,"response":170,"trial_type":"training_avg","trial_index":14,"time_elapsed":199965,"internal_node_id":"0.0-14.0"},{"responses":[{"value":1,"offby":0,"category":"$90 - $120","category_index":0},{"value":3,"offby":0,"category":"$121 - $145","category_index":1},{"value":3,"offby":0,"category":"$146 - $170","category_index":2},{"value":4,"offby":-2,"category":"$171 - $195","category_index":3},{"value":4,"offby":0,"category":"$196 - $220","category_index":4},{"value":4,"offby":2,"category":"$221 - $245","category_index":5},{"value":1,"offby":0,"category":"$246 - $270","category_index":6}],"phase":0,"number":0,"trial_type":"bar-choose","trial_index":15,"time_elapsed":266888,"internal_node_id":"0.0-15.0"},{"rt":7720,"url":"\/tickets\/\/utils\/testing.html","trial_type":"html","trial_index":16,"time_elapsed":275754,"internal_node_id":"0.0-16.0"},{"phase":0,"order":[38,46,33,10,11,47,48,32,9,31,42,34,43,26,17,27,39,49,29,14,0,23,28,25,35,37,20,12,15,19,5,44,21,16,4,30,3,41,40,8,18,22,6,13,24,1,45,36,7,2],"trial_type":"store_order","trial_index":17,"time_elapsed":276756,"internal_node_id":"0.0-17.0"},{"result":126,"points":3,"place":0,"phase":0,"sequence":-1,"prices":[184,180,224,165,181,199,185,193,218,126],"times":[1465,860,493,3167,509,535,606,535,541,1164],"next_num":10,"trial_type":"ticket-choose","trial_index":18,"time_elapsed":291395,"internal_node_id":"0.0-18.0"},{"rt":13125,"url":"\/tickets\/utils\/testing_after.html","trial_type":"html","trial_index":19,"time_elapsed":305639,"internal_node_id":"0.0-19.0"},{"result":135,"points":3,"place":0,"phase":0,"sequence":0,"prices":[135,202,150,169,183,225,160,211,220,172],"times":[2113],"next_num":1,"trial_type":"ticket-choose","trial_index":20,"time_elapsed":310254,"internal_node_id":"0.0-20.0"},{"result":145,"points":2,"place":1,"phase":0,"sequence":1,"prices":[216,206,158,145,224,185,124,149,175,162],"times":[721,366,362,1563],"next_num":4,"trial_type":"ticket-choose","trial_index":21,"time_elapsed":315991,"internal_node_id":"0.0-21.0"},{"result":136,"points":2,"place":1,"phase":0,"sequence":2,"prices":[169,192,174,246,180,195,136,152,238,126],"times":[966,376,366,629,503,486,1284],"next_num":7,"trial_type":"ticket-choose","trial_index":22,"time_elapsed":324182,"internal_node_id":"0.0-22.0"},{"result":131,"points":3,"place":0,"phase":0,"sequence":3,"prices":[170,190,176,251,183,192,154,157,236,131],"times":[657,600,572,439,535,510,732,607,519,859],"next_num":10,"trial_type":"ticket-choose","trial_index":23,"time_elapsed":334300,"internal_node_id":"0.0-23.0"},{"result":114,"points":3,"place":0,"phase":0,"sequence":4,"prices":[182,249,159,114,184,205,175,189,172,178],"times":[988,494,1046,1234],"next_num":4,"trial_type":"ticket-choose","trial_index":24,"time_elapsed":340552,"internal_node_id":"0.0-24.0"},{"result":136,"points":2,"place":1,"phase":0,"sequence":5,"prices":[171,192,136,265,180,194,174,152,239,127],"times":[761,496,1124],"next_num":3,"trial_type":"ticket-choose","trial_index":25,"time_elapsed":345139,"internal_node_id":"0.0-25.0"},{"result":196,"points":1,"place":4,"phase":0,"sequence":6,"prices":[143,206,153,194,201,267,168,208,210,196],"times":[1653,444,684,413,495,445,630,572,471,879],"next_num":10,"trial_type":"ticket-choose","trial_index":26,"time_elapsed":355757,"internal_node_id":"0.0-26.0"},{"result":117,"points":3,"place":0,"phase":0,"sequence":7,"prices":[117,161,120,147,153,259,144,191,195,149],"times":[1262],"next_num":1,"trial_type":"ticket-choose","trial_index":27,"time_elapsed":358905,"internal_node_id":"0.0-27.0"},{"result":146,"points":2,"place":1,"phase":0,"sequence":8,"prices":[168,191,172,240,183,193,146,151,125,238],"times":[712,437,438,453,670,446,1659],"next_num":7,"trial_type":"ticket-choose","trial_index":28,"time_elapsed":366746,"internal_node_id":"0.0-28.0"},{"result":154,"points":2,"place":1,"phase":0,"sequence":9,"prices":[168,192,176,242,183,197,154,156,237,132],"times":[578,485,421,502,518,478,1853],"next_num":7,"trial_type":"ticket-choose","trial_index":29,"time_elapsed":374651,"internal_node_id":"0.0-29.0"},{"result":149,"points":3,"place":0,"phase":0,"sequence":10,"prices":[244,203,196,189,154,206,197,149,171,159],"times":[903,502,486,486,758,462,477,1473],"next_num":8,"trial_type":"ticket-choose","trial_index":30,"time_elapsed":383587,"internal_node_id":"0.0-30.0"},{"result":154,"points":2,"place":1,"phase":0,"sequence":11,"prices":[169,192,176,244,178,194,154,159,237,125],"times":[639,486,422,583,760,543,1809],"next_num":7,"trial_type":"ticket-choose","trial_index":31,"time_elapsed":391965,"internal_node_id":"0.0-31.0"},{"result":150,"points":1,"place":2,"phase":0,"sequence":12,"prices":[169,193,146,237,180,196,172,150,129,236],"times":[3079,485,932,464,368,573,669,1573],"next_num":8,"trial_type":"ticket-choose","trial_index":32,"time_elapsed":403771,"internal_node_id":"0.0-32.0"},{"result":136,"points":3,"place":0,"phase":0,"sequence":13,"prices":[240,188,273,207,250,136,217,170,171,236],"times":[647,957,542,582,590,1277],"next_num":6,"trial_type":"ticket-choose","trial_index":33,"time_elapsed":411257,"internal_node_id":"0.0-33.0"},{"result":105,"points":3,"place":0,"phase":0,"sequence":14,"prices":[263,165,224,214,105,230,215,185,177,193],"times":[569,767,420,453,1330],"next_num":5,"trial_type":"ticket-choose","trial_index":34,"time_elapsed":417306,"internal_node_id":"0.0-34.0"},{"result":127,"points":3,"place":0,"phase":0,"sequence":15,"prices":[169,194,154,271,178,201,176,158,236,127],"times":[646,469,565,558,510,549,928,1229,405,885],"next_num":10,"trial_type":"ticket-choose","trial_index":35,"time_elapsed":428081,"internal_node_id":"0.0-35.0"},{"result":124,"points":3,"place":0,"phase":0,"sequence":16,"prices":[219,183,227,124,176,161,140,129,171,201],"times":[564,436,447,1378],"next_num":4,"trial_type":"ticket-choose","trial_index":36,"time_elapsed":433288,"internal_node_id":"0.0-36.0"},{"result":124,"points":3,"place":0,"phase":0,"sequence":17,"prices":[124,220,136,165,185,234,143,225,228,179],"times":[1354],"next_num":1,"trial_type":"ticket-choose","trial_index":37,"time_elapsed":436404,"internal_node_id":"0.0-37.0"},{"result":136,"points":2,"place":1,"phase":0,"sequence":18,"prices":[170,192,174,242,181,196,136,153,236,128],"times":[766,456,631,519,591,453,1248],"next_num":7,"trial_type":"ticket-choose","trial_index":38,"time_elapsed":444269,"internal_node_id":"0.0-38.0"},{"result":146,"points":2,"place":1,"phase":0,"sequence":19,"prices":[171,195,172,242,179,196,146,150,128,235],"times":[733,422,414,595,657,551,1171],"next_num":7,"trial_type":"ticket-choose","trial_index":39,"time_elapsed":451855,"internal_node_id":"0.0-39.0"},{"result":189,"points":1,"place":4,"phase":0,"sequence":20,"prices":[157,213,159,187,194,242,161,222,225,189],"times":[526,631,534,486,566,775,638,518,474,832],"next_num":10,"trial_type":"ticket-choose","trial_index":40,"time_elapsed":461616,"internal_node_id":"0.0-40.0"},{"result":126,"points":3,"place":0,"phase":0,"sequence":21,"prices":[170,193,146,268,178,195,172,149,126,241],"times":[641,386,414,492,478,542,614,558,1678],"next_num":9,"trial_type":"ticket-choose","trial_index":41,"time_elapsed":471474,"internal_node_id":"0.0-41.0"},{"result":135,"points":3,"place":0,"phase":0,"sequence":22,"prices":[221,193,135,188,217,179,196,190,175,159],"times":[706,524,1239],"next_num":3,"trial_type":"ticket-choose","trial_index":42,"time_elapsed":476174,"internal_node_id":"0.0-42.0"},{"result":136,"points":2,"place":1,"phase":0,"sequence":23,"prices":[172,190,136,270,179,192,174,152,237,129],"times":[594,500,1210],"next_num":3,"trial_type":"ticket-choose","trial_index":43,"time_elapsed":480661,"internal_node_id":"0.0-43.0"},{"result":192,"points":1,"place":4,"phase":0,"sequence":24,"prices":[157,205,161,175,197,254,165,210,214,192],"times":[719,727,605,500,527,726,598,586,566,782],"next_num":10,"trial_type":"ticket-choose","trial_index":44,"time_elapsed":490770,"internal_node_id":"0.0-44.0"},{"result":136,"points":2,"place":1,"phase":0,"sequence":25,"prices":[172,194,174,243,182,193,136,150,237,126],"times":[1330,646,463,549,541,550,1149],"next_num":7,"trial_type":"ticket-choose","trial_index":45,"time_elapsed":499053,"internal_node_id":"0.0-45.0"},{"result":146,"points":2,"place":1,"phase":0,"sequence":26,"prices":[172,191,176,272,179,194,146,152,126,235],"times":[546,510,628,632,603,517,1271],"next_num":7,"trial_type":"ticket-choose","trial_index":46,"time_elapsed":506847,"internal_node_id":"0.0-46.0"},{"result":136,"points":2,"place":1,"phase":0,"sequence":27,"prices":[173,191,174,270,180,193,136,153,239,129],"times":[833,1061,1868,737,804,494,1168],"next_num":7,"trial_type":"ticket-choose","trial_index":47,"time_elapsed":516849,"internal_node_id":"0.0-47.0"},{"result":188,"points":1,"place":4,"phase":0,"sequence":28,"prices":[142,207,171,182,190,269,180,218,256,188],"times":[1893,358,230,445,486,375,542,533,439,777],"next_num":10,"trial_type":"ticket-choose","trial_index":48,"time_elapsed":526564,"internal_node_id":"0.0-48.0"},{"result":138,"points":1,"place":2,"phase":0,"sequence":29,"prices":[181,138,118,170,190,101,146,169,175,233],"times":[731,940],"next_num":2,"trial_type":"ticket-choose","trial_index":49,"time_elapsed":530090,"internal_node_id":"0.0-49.0"},{"result":126,"points":3,"place":0,"phase":0,"sequence":30,"prices":[169,193,154,255,178,194,176,158,239,126],"times":[503,566,983,563,463,533,478,759,420,888],"next_num":10,"trial_type":"ticket-choose","trial_index":50,"time_elapsed":539794,"internal_node_id":"0.0-50.0"},{"result":133,"points":3,"place":0,"phase":0,"sequence":31,"prices":[169,191,154,268,183,197,176,155,236,133],"times":[525,526,406,418,645,470,838,1623,541,771],"next_num":10,"trial_type":"ticket-choose","trial_index":51,"time_elapsed":550248,"internal_node_id":"0.0-51.0"},{"result":137,"points":3,"place":0,"phase":0,"sequence":32,"prices":[137,187,152,156,166,231,155,194,202,160],"times":[1284],"next_num":1,"trial_type":"ticket-choose","trial_index":52,"time_elapsed":553255,"internal_node_id":"0.0-52.0"},{"result":146,"points":3,"place":0,"phase":0,"sequence":33,"prices":[156,218,212,216,191,210,275,146,174,152],"times":[1001,414,373,414,540,494,510,1240],"next_num":8,"trial_type":"ticket-choose","trial_index":53,"time_elapsed":561357,"internal_node_id":"0.0-53.0"},{"result":133,"points":3,"place":0,"phase":0,"sequence":34,"prices":[168,192,154,237,182,196,176,156,235,133],"times":[780,486,414,493,446,407,431,1302,573,802],"next_num":10,"trial_type":"ticket-choose","trial_index":54,"time_elapsed":571348,"internal_node_id":"0.0-54.0"},{"result":119,"points":3,"place":0,"phase":0,"sequence":35,"prices":[198,119,169,141,195,233,136,208,177,217],"times":[697,1308],"next_num":2,"trial_type":"ticket-choose","trial_index":55,"time_elapsed":575260,"internal_node_id":"0.0-55.0"},{"result":136,"points":2,"place":1,"phase":0,"sequence":36,"prices":[173,194,136,239,182,200,174,150,236,127],"times":[533,463,1124],"next_num":3,"trial_type":"ticket-choose","trial_index":56,"time_elapsed":579408,"internal_node_id":"0.0-56.0"},{"result":150,"points":3,"place":0,"phase":0,"sequence":37,"prices":[197,153,181,215,150,155,164,247,177,162],"times":[512,863,397,615,1171],"next_num":5,"trial_type":"ticket-choose","trial_index":57,"time_elapsed":585598,"internal_node_id":"0.0-57.0"},{"result":116,"points":3,"place":0,"phase":0,"sequence":38,"prices":[181,130,116,142,157,193,165,218,173,207],"times":[587,470,1159],"next_num":3,"trial_type":"ticket-choose","trial_index":58,"time_elapsed":589981,"internal_node_id":"0.0-58.0"},{"result":121,"points":3,"place":0,"phase":0,"sequence":39,"prices":[121,191,128,141,166,217,129,196,202,157],"times":[1052],"next_num":1,"trial_type":"ticket-choose","trial_index":59,"time_elapsed":592702,"internal_node_id":"0.0-59.0"},{"result":153,"points":1,"place":2,"phase":0,"sequence":40,"prices":[168,191,146,252,183,193,172,153,126,238],"times":[572,502,870,446,526,490,521,1728],"next_num":8,"trial_type":"ticket-choose","trial_index":60,"time_elapsed":601604,"internal_node_id":"0.0-60.0"},{"result":128,"points":3,"place":0,"phase":0,"sequence":41,"prices":[196,221,149,164,216,167,175,128,176,181],"times":[672,518,934,479,583,557,549,1267],"next_num":8,"trial_type":"ticket-choose","trial_index":61,"time_elapsed":610309,"internal_node_id":"0.0-61.0"},{"result":116,"points":3,"place":0,"phase":0,"sequence":42,"prices":[186,146,191,179,152,116,140,201,172,187],"times":[989,1838,509,525,516,1341],"next_num":6,"trial_type":"ticket-choose","trial_index":62,"time_elapsed":618876,"internal_node_id":"0.0-62.0"},{"result":136,"points":2,"place":1,"phase":0,"sequence":43,"prices":[171,192,136,243,182,195,174,154,236,128],"times":[2085,479,1361],"next_num":3,"trial_type":"ticket-choose","trial_index":63,"time_elapsed":624889,"internal_node_id":"0.0-63.0"},{"result":131,"points":2,"place":1,"phase":0,"sequence":44,"prices":[221,234,131,136,132,149,154,90,176,173],"times":[513,404,1073],"next_num":3,"trial_type":"ticket-choose","trial_index":64,"time_elapsed":628874,"internal_node_id":"0.0-64.0"},{"result":129,"points":2,"place":1,"phase":0,"sequence":45,"prices":[155,129,164,189,210,108,187,241,174,275],"times":[720,1171],"next_num":2,"trial_type":"ticket-choose","trial_index":65,"time_elapsed":632643,"internal_node_id":"0.0-65.0"},{"result":132,"points":3,"place":0,"phase":0,"sequence":46,"prices":[132,222,144,153,190,248,151,224,228,179],"times":[1293],"next_num":1,"trial_type":"ticket-choose","trial_index":66,"time_elapsed":635691,"internal_node_id":"0.0-66.0"},{"result":150,"points":1,"place":2,"phase":0,"sequence":47,"prices":[171,191,172,268,179,194,146,150,127,239],"times":[1128,534,510,614,638,565,1011,1632],"next_num":8,"trial_type":"ticket-choose","trial_index":67,"time_elapsed":645816,"internal_node_id":"0.0-67.0"},{"result":126,"points":3,"place":0,"phase":0,"sequence":48,"prices":[170,193,176,245,178,194,154,159,236,126],"times":[555,559,582,564,478,854,862,694,604,850],"next_num":10,"trial_type":"ticket-choose","trial_index":68,"time_elapsed":655999,"internal_node_id":"0.0-68.0"},{"result":146,"points":2,"place":1,"phase":0,"sequence":49,"prices":[173,191,146,242,178,194,172,152,126,235],"times":[668,630,1176],"next_num":3,"trial_type":"ticket-choose","trial_index":69,"time_elapsed":660595,"internal_node_id":"0.0-69.0"},{"responses":[{"value":1,"offby":0,"category":"$90 - $120","category_index":0},{"value":3,"offby":0,"category":"$121 - $145","category_index":1},{"value":3,"offby":0,"category":"$146 - $170","category_index":2},{"value":5,"offby":-1,"category":"$171 - $195","category_index":3},{"value":4,"offby":0,"category":"$196 - $220","category_index":4},{"value":3,"offby":1,"category":"$221 - $245","category_index":5},{"value":1,"offby":0,"category":"$246 - $270","category_index":6}],"phase":0,"number":1,"trial_type":"bar-choose","trial_index":70,"time_elapsed":681460,"internal_node_id":"0.0-70.0"},{"rt":5985,"url":"\/tickets\/utils\/start2.html","trial_type":"html","trial_index":71,"time_elapsed":688563,"internal_node_id":"0.0-71.0"},{"trial_type":"number-animation","trial_index":72,"time_elapsed":698842,"internal_node_id":"0.0-72.0"},{"phase":1,"sequence":0,"avg":181,"response":180,"trial_type":"training_avg","trial_index":73,"time_elapsed":704411,"internal_node_id":"0.0-73.0"},{"trial_type":"number-animation","trial_index":74,"time_elapsed":711009,"internal_node_id":"0.0-74.0"},{"phase":1,"sequence":1,"avg":188,"response":185,"trial_type":"training_avg","trial_index":75,"time_elapsed":715700,"internal_node_id":"0.0-75.0"},{"trial_type":"number-animation","trial_index":76,"time_elapsed":723817,"internal_node_id":"0.0-76.0"},{"phase":1,"sequence":2,"avg":188,"response":180,"trial_type":"training_avg","trial_index":77,"time_elapsed":729644,"internal_node_id":"0.0-77.0"},{"trial_type":"number-animation","trial_index":78,"time_elapsed":737562,"internal_node_id":"0.0-78.0"},{"phase":1,"sequence":3,"avg":177,"response":175,"trial_type":"training_avg","trial_index":79,"time_elapsed":742520,"internal_node_id":"0.0-79.0"},{"trial_type":"number-animation","trial_index":80,"time_elapsed":749690,"internal_node_id":"0.0-80.0"},{"phase":1,"sequence":4,"avg":182,"response":180,"trial_type":"training_avg","trial_index":81,"time_elapsed":755183,"internal_node_id":"0.0-81.0"},{"responses":[{"value":1,"offby":1,"category":"$106 - $134","category_index":0},{"value":3,"offby":2,"category":"$135 - $150","category_index":1},{"value":3,"offby":0,"category":"$151 - $165","category_index":2},{"value":5,"offby":-1,"category":"$166 - $180","category_index":3},{"value":5,"offby":-1,"category":"$181 - $195","category_index":4},{"value":3,"offby":0,"category":"$196 - $210","category_index":5},{"value":0,"offby":-1,"category":"$211 - $225","category_index":6}],"phase":1,"number":0,"trial_type":"bar-choose","trial_index":82,"time_elapsed":797759,"internal_node_id":"0.0-82.0"},{"rt":2037,"url":"\/tickets\/utils\/testing2.html","trial_type":"html","trial_index":83,"time_elapsed":800915,"internal_node_id":"0.0-83.0"},{"phase":1,"order":[30,37,20,13,48,16,32,31,6,12,45,14,1,46,42,11,47,26,21,5,28,3,43,19,27,22,4,23,24,44,10,9,33,38,8,40,18,39,34,29,2,36,49,17,41,35,25,7,15,0],"trial_type":"store_order","trial_index":84,"time_elapsed":802020,"internal_node_id":"0.0-84.0"},{"result":163,"points":3,"place":0,"phase":1,"sequence":0,"prices":[168,199,196,198,185,195,227,163,177,166],"times":[851,1438,912,893,612,910,652,1251],"next_num":8,"trial_type":"ticket-choose","trial_index":85,"time_elapsed":812931,"internal_node_id":"0.0-85.0"},{"result":158,"points":3,"place":0,"phase":1,"sequence":1,"prices":[210,184,226,193,215,158,199,175,176,208],"times":[837,1310,510,518,719,1340],"next_num":6,"trial_type":"ticket-choose","trial_index":86,"time_elapsed":821290,"internal_node_id":"0.0-86.0"},{"result":159,"points":3,"place":0,"phase":1,"sequence":2,"prices":[159,183,166,168,173,205,167,187,191,170],"times":[1222],"next_num":1,"trial_type":"ticket-choose","trial_index":87,"time_elapsed":824265,"internal_node_id":"0.0-87.0"},{"result":175,"points":1,"place":3,"phase":1,"sequence":3,"prices":[175,186,167,225,179,187,178,169,209,153],"times":[1871],"next_num":1,"trial_type":"ticket-choose","trial_index":88,"time_elapsed":827938,"internal_node_id":"0.0-88.0"},{"result":167,"points":2,"place":1,"phase":1,"sequence":4,"prices":[175,187,167,212,179,187,178,169,208,153],"times":[830,493,1534],"next_num":3,"trial_type":"ticket-choose","trial_index":89,"time_elapsed":833066,"internal_node_id":"0.0-89.0"},{"result":152,"points":3,"place":0,"phase":1,"sequence":5,"prices":[200,181,203,152,175,171,160,154,176,191],"times":[586,462,479,1247],"next_num":4,"trial_type":"ticket-choose","trial_index":90,"time_elapsed":838138,"internal_node_id":"0.0-90.0"},{"result":169,"points":2,"place":1,"phase":1,"sequence":6,"prices":[181,215,169,147,182,193,177,184,176,179],"times":[725,469,1582],"next_num":3,"trial_type":"ticket-choose","trial_index":91,"time_elapsed":843062,"internal_node_id":"0.0-91.0"},{"result":161,"points":3,"place":0,"phase":1,"sequence":7,"prices":[161,193,167,187,190,224,174,194,195,188],"times":[958],"next_num":1,"trial_type":"ticket-choose","trial_index":92,"time_elapsed":845672,"internal_node_id":"0.0-92.0"},{"result":167,"points":2,"place":1,"phase":1,"sequence":8,"prices":[175,185,167,224,181,186,178,168,208,156],"times":[974,509,1402],"next_num":3,"trial_type":"ticket-choose","trial_index":93,"time_elapsed":850614,"internal_node_id":"0.0-93.0"},{"result":148,"points":3,"place":0,"phase":1,"sequence":9,"prices":[148,171,150,163,167,220,162,186,187,165],"times":[1267],"next_num":1,"trial_type":"ticket-choose","trial_index":94,"time_elapsed":853524,"internal_node_id":"0.0-94.0"},{"result":143,"points":3,"place":0,"phase":1,"sequence":10,"prices":[222,173,202,197,143,205,198,183,178,186],"times":[682,485,503,902,1140],"next_num":5,"trial_type":"ticket-choose","trial_index":95,"time_elapsed":860248,"internal_node_id":"0.0-95.0"},{"result":148,"points":3,"place":0,"phase":1,"sequence":11,"prices":[181,155,148,161,168,187,172,199,176,194],"times":[776,374,1126],"next_num":3,"trial_type":"ticket-choose","trial_index":96,"time_elapsed":864552,"internal_node_id":"0.0-96.0"},{"result":157,"points":3,"place":0,"phase":1,"sequence":12,"prices":[201,187,157,184,198,179,188,185,178,170],"times":[592,641,1117],"next_num":3,"trial_type":"ticket-choose","trial_index":97,"time_elapsed":868933,"internal_node_id":"0.0-97.0"},{"result":152,"points":3,"place":0,"phase":1,"sequence":13,"prices":[152,200,158,173,182,207,161,202,204,180],"times":[1061],"next_num":1,"trial_type":"ticket-choose","trial_index":98,"time_elapsed":871519,"internal_node_id":"0.0-98.0"},{"result":158,"points":2,"place":1,"phase":1,"sequence":14,"prices":[175,186,158,209,181,188,177,167,208,154],"times":[829,518,1085],"next_num":3,"trial_type":"ticket-choose","trial_index":99,"time_elapsed":876207,"internal_node_id":"0.0-99.0"},{"result":168,"points":3,"place":0,"phase":1,"sequence":15,"prices":[168,192,171,178,188,217,172,195,197,186],"times":[1183],"next_num":1,"trial_type":"ticket-choose","trial_index":100,"time_elapsed":879003,"internal_node_id":"0.0-100.0"},{"result":167,"points":2,"place":1,"phase":1,"sequence":16,"prices":[189,167,180,197,165,168,172,213,178,171],"times":[647,1205],"next_num":2,"trial_type":"ticket-choose","trial_index":101,"time_elapsed":882721,"internal_node_id":"0.0-101.0"},{"result":163,"points":1,"place":2,"phase":1,"sequence":17,"prices":[183,163,185,180,166,148,160,186,176,184],"times":[671,1156],"next_num":2,"trial_type":"ticket-choose","trial_index":102,"time_elapsed":886357,"internal_node_id":"0.0-102.0"},{"result":150,"points":3,"place":0,"phase":1,"sequence":18,"prices":[150,185,154,161,173,199,155,188,191,168],"times":[1114],"next_num":1,"trial_type":"ticket-choose","trial_index":103,"time_elapsed":889088,"internal_node_id":"0.0-103.0"},{"result":169,"points":1,"place":2,"phase":1,"sequence":19,"prices":[175,186,178,212,179,187,167,169,209,153],"times":[576,863,436,424,446,622,485,1112],"next_num":8,"trial_type":"ticket-choose","trial_index":104,"time_elapsed":897522,"internal_node_id":"0.0-104.0"},{"result":163,"points":2,"place":1,"phase":1,"sequence":20,"prices":[176,186,163,214,179,187,176,166,153,208],"times":[1038,638,1020],"next_num":3,"trial_type":"ticket-choose","trial_index":105,"time_elapsed":902184,"internal_node_id":"0.0-105.0"},{"result":158,"points":2,"place":1,"phase":1,"sequence":21,"prices":[176,185,177,218,180,186,158,166,209,154],"times":[714,509,453,495,814,580,1265],"next_num":7,"trial_type":"ticket-choose","trial_index":106,"time_elapsed":910702,"internal_node_id":"0.0-106.0"},{"result":169,"points":3,"place":0,"phase":1,"sequence":22,"prices":[169,196,170,184,187,211,171,201,202,185],"times":[1564],"next_num":1,"trial_type":"ticket-choose","trial_index":107,"time_elapsed":914021,"internal_node_id":"0.0-107.0"},{"result":156,"points":3,"place":0,"phase":1,"sequence":23,"prices":[156,201,162,166,185,214,165,202,204,179],"times":[5188],"next_num":1,"trial_type":"ticket-choose","trial_index":108,"time_elapsed":921017,"internal_node_id":"0.0-108.0"},{"result":168,"points":1,"place":2,"phase":1,"sequence":24,"prices":[168,154,172,185,195,144,184,211,177,227],"times":[940],"next_num":1,"trial_type":"ticket-choose","trial_index":109,"time_elapsed":923613,"internal_node_id":"0.0-109.0"},{"result":169,"points":1,"place":3,"phase":1,"sequence":25,"prices":[198,193,169,163,202,182,152,164,177,171],"times":[28269,478,1166],"next_num":3,"trial_type":"ticket-choose","trial_index":110,"time_elapsed":956056,"internal_node_id":"0.0-110.0"},{"result":158,"points":2,"place":1,"phase":1,"sequence":26,"prices":[175,186,177,221,180,187,158,166,209,153],"times":[668,493,798,807,1062,694,1308],"next_num":7,"trial_type":"ticket-choose","trial_index":111,"time_elapsed":964892,"internal_node_id":"0.0-111.0"},{"result":167,"points":2,"place":1,"phase":1,"sequence":27,"prices":[174,186,178,217,181,188,167,168,208,156],"times":[624,484,438,486,518,533,1183],"next_num":7,"trial_type":"ticket-choose","trial_index":112,"time_elapsed":972228,"internal_node_id":"0.0-112.0"},{"result":167,"points":2,"place":1,"phase":1,"sequence":28,"prices":[175,187,178,209,179,187,167,169,208,153],"times":[457,446,502,446,638,588,1265],"next_num":7,"trial_type":"ticket-choose","trial_index":113,"time_elapsed":979593,"internal_node_id":"0.0-113.0"},{"result":166,"points":1,"place":2,"phase":1,"sequence":29,"prices":[176,185,158,217,180,186,177,166,209,154],"times":[587,430,459,583,629,535,829,1094],"next_num":8,"trial_type":"ticket-choose","trial_index":114,"time_elapsed":987925,"internal_node_id":"0.0-114.0"},{"result":163,"points":2,"place":1,"phase":1,"sequence":30,"prices":[175,187,176,209,180,188,163,165,154,208],"times":[856,549,540,710,557,454,1116],"next_num":7,"trial_type":"ticket-choose","trial_index":115,"time_elapsed":995616,"internal_node_id":"0.0-115.0"},{"result":159,"points":1,"place":2,"phase":1,"sequence":31,"prices":[180,159,149,175,185,141,163,174,178,207],"times":[5411,1523],"next_num":2,"trial_type":"ticket-choose","trial_index":116,"time_elapsed":1004899,"internal_node_id":"0.0-116.0"},{"result":158,"points":2,"place":1,"phase":1,"sequence":32,"prices":[175,186,177,209,181,188,158,167,208,154],"times":[494,470,478,1029,598,485,1164],"next_num":7,"trial_type":"ticket-choose","trial_index":117,"time_elapsed":1012624,"internal_node_id":"0.0-117.0"},{"result":158,"points":2,"place":1,"phase":1,"sequence":33,"prices":[175,186,158,211,180,187,177,166,209,153],"times":[857,509,1124],"next_num":3,"trial_type":"ticket-choose","trial_index":118,"time_elapsed":1017350,"internal_node_id":"0.0-118.0"},{"result":163,"points":2,"place":1,"phase":1,"sequence":34,"prices":[176,186,176,210,179,187,163,166,153,208],"times":[570,639,1517,517,807,725,1300],"next_num":7,"trial_type":"ticket-choose","trial_index":119,"time_elapsed":1026481,"internal_node_id":"0.0-119.0"},{"result":157,"points":3,"place":0,"phase":1,"sequence":35,"prices":[157,191,165,175,182,203,170,195,200,176],"times":[1254],"next_num":1,"trial_type":"ticket-choose","trial_index":120,"time_elapsed":1029396,"internal_node_id":"0.0-120.0"},{"result":163,"points":2,"place":1,"phase":1,"sequence":36,"prices":[175,186,163,211,179,187,176,165,153,210],"times":[871,536,1041],"next_num":3,"trial_type":"ticket-choose","trial_index":121,"time_elapsed":1034112,"internal_node_id":"0.0-121.0"},{"result":155,"points":2,"place":1,"phase":1,"sequence":37,"prices":[201,207,155,158,156,165,167,135,178,177],"times":[586,622,1056],"next_num":3,"trial_type":"ticket-choose","trial_index":122,"time_elapsed":1038541,"internal_node_id":"0.0-122.0"},{"result":150,"points":3,"place":0,"phase":1,"sequence":38,"prices":[189,150,175,160,188,207,158,194,178,199],"times":[533,1022],"next_num":2,"trial_type":"ticket-choose","trial_index":123,"time_elapsed":1042193,"internal_node_id":"0.0-123.0"},{"result":168,"points":1,"place":2,"phase":1,"sequence":39,"prices":[174,186,167,211,181,188,178,168,208,156],"times":[538,479,846,459,455,456,534,1489],"next_num":8,"trial_type":"ticket-choose","trial_index":124,"time_elapsed":1050707,"internal_node_id":"0.0-124.0"},{"result":158,"points":2,"place":1,"phase":1,"sequence":40,"prices":[176,187,158,210,181,187,177,165,208,153],"times":[655,493,1187],"next_num":3,"trial_type":"ticket-choose","trial_index":125,"time_elapsed":1055258,"internal_node_id":"0.0-125.0"},{"result":158,"points":2,"place":1,"phase":1,"sequence":41,"prices":[176,187,177,225,181,187,158,165,208,153],"times":[593,517,605,662,1030,719,1606],"next_num":7,"trial_type":"ticket-choose","trial_index":126,"time_elapsed":1063896,"internal_node_id":"0.0-126.0"},{"result":163,"points":2,"place":1,"phase":1,"sequence":42,"prices":[174,186,176,217,181,187,163,166,153,209],"times":[2891,477,581,574,622,526,1103],"next_num":7,"trial_type":"ticket-choose","trial_index":127,"time_elapsed":1073673,"internal_node_id":"0.0-127.0"},{"result":167,"points":2,"place":1,"phase":1,"sequence":43,"prices":[175,185,178,215,181,186,167,168,208,156],"times":[506,541,494,589,496,468,1324],"next_num":7,"trial_type":"ticket-choose","trial_index":128,"time_elapsed":1081033,"internal_node_id":"0.0-128.0"},{"result":184,"points":1,"place":4,"phase":1,"sequence":44,"prices":[161,193,175,181,185,224,180,199,218,184],"times":[956,462,357,405,428,357,504,494,687,1125],"next_num":10,"trial_type":"ticket-choose","trial_index":129,"time_elapsed":1091321,"internal_node_id":"0.0-129.0"},{"result":163,"points":2,"place":1,"phase":1,"sequence":45,"prices":[175,187,163,209,180,188,176,165,154,208],"times":[539,525,1083],"next_num":3,"trial_type":"ticket-choose","trial_index":130,"time_elapsed":1095638,"internal_node_id":"0.0-130.0"},{"result":167,"points":2,"place":1,"phase":1,"sequence":46,"prices":[212,192,188,184,167,193,189,164,176,170],"times":[615,469,492,438,1347],"next_num":5,"trial_type":"ticket-choose","trial_index":131,"time_elapsed":1101529,"internal_node_id":"0.0-131.0"},{"result":165,"points":2,"place":1,"phase":1,"sequence":47,"prices":[188,200,165,172,198,174,177,154,177,180],"times":[523,548,1869],"next_num":3,"trial_type":"ticket-choose","trial_index":132,"time_elapsed":1106716,"internal_node_id":"0.0-132.0"},{"result":163,"points":2,"place":1,"phase":1,"sequence":48,"prices":[175,186,176,224,179,187,163,165,153,210],"times":[625,575,477,470,486,691,1160],"next_num":7,"trial_type":"ticket-choose","trial_index":133,"time_elapsed":1114190,"internal_node_id":"0.0-133.0"},{"result":163,"points":2,"place":1,"phase":1,"sequence":49,"prices":[174,186,163,212,181,187,176,166,153,209],"times":[551,893,1155],"next_num":3,"trial_type":"ticket-choose","trial_index":134,"time_elapsed":1118940,"internal_node_id":"0.0-134.0"},{"responses":[{"value":1,"offby":1,"category":"$106 - $134","category_index":0},{"value":3,"offby":2,"category":"$135 - $150","category_index":1},{"value":3,"offby":0,"category":"$151 - $165","category_index":2},{"value":5,"offby":-1,"category":"$166 - $180","category_index":3},{"value":4,"offby":-2,"category":"$181 - $195","category_index":4},{"value":3,"offby":0,"category":"$196 - $210","category_index":5},{"value":1,"offby":0,"category":"$211 - $225","category_index":6}],"phase":1,"number":1,"trial_type":"bar-choose","trial_index":135,"time_elapsed":1159601,"internal_node_id":"0.0-135.0"},{"special_comment":"N\/A","trial_type":"special_sequence","trial_index":136,"time_elapsed":1165059,"internal_node_id":"0.0-136.0"},{"during":"Nothing","bonus":300,"trial_type":"final","trial_index":137,"time_elapsed":1181800,"internal_node_id":"0.0-137.0"}],"bonus":300}