{"start_time":"2017-02-22 09:58:32","end_time":"2017-02-22 10:46:27","points_phase0":111,"points_phase1":84,"phase_order":1,"age":28,"gender":"m","tries":1,"during":"Nothing","worker_id":"A2541C8MY0BYV3","assignment_id":"3BGYGHDBBYD702G0WALJ012MBTT224","data":[{"rt":983492,"url":"\/tickets\/utils\/consent.html","trial_type":"html","trial_index":0,"time_elapsed":983603,"internal_node_id":"0.0-0.0"},{"age":28,"gender":"m","trial_type":"age","trial_index":1,"time_elapsed":987600,"internal_node_id":"0.0-1.0"},{"worker_id":"A2541C8MY0BYV3","trial_type":"workerid","trial_index":2,"time_elapsed":997906,"internal_node_id":"0.0-2.0"},{"tries":1,"trial_type":"instructions_check","trial_index":3,"time_elapsed":1014709,"internal_node_id":"0.0-3.0"},{"rt":4216,"url":"\/tickets\/utils\/start.html","trial_type":"html","trial_index":4,"time_elapsed":1020070,"internal_node_id":"0.0-4.0"},{"trial_type":"number-animation","trial_index":5,"time_elapsed":1030253,"internal_node_id":"0.0-5.0"},{"phase":0,"sequence":0,"avg":182,"response":157,"trial_type":"training_avg","trial_index":6,"time_elapsed":1043030,"internal_node_id":"0.0-6.0"},{"trial_type":"number-animation","trial_index":7,"time_elapsed":1050176,"internal_node_id":"0.0-7.0"},{"phase":0,"sequence":1,"avg":188,"response":185,"trial_type":"training_avg","trial_index":8,"time_elapsed":1056689,"internal_node_id":"0.0-8.0"},{"trial_type":"number-animation","trial_index":9,"time_elapsed":1065004,"internal_node_id":"0.0-9.0"},{"phase":0,"sequence":2,"avg":176,"response":192,"trial_type":"training_avg","trial_index":10,"time_elapsed":1072480,"internal_node_id":"0.0-10.0"},{"trial_type":"number-animation","trial_index":11,"time_elapsed":1079008,"internal_node_id":"0.0-11.0"},{"phase":0,"sequence":3,"avg":180,"response":174,"trial_type":"training_avg","trial_index":12,"time_elapsed":1085827,"internal_node_id":"0.0-12.0"},{"trial_type":"number-animation","trial_index":13,"time_elapsed":1092313,"internal_node_id":"0.0-13.0"},{"phase":0,"sequence":4,"avg":174,"response":168,"trial_type":"training_avg","trial_index":14,"time_elapsed":1097683,"internal_node_id":"0.0-14.0"},{"responses":[{"value":0,"offby":-1,"category":"$90 - $120","category_index":0},{"value":0,"offby":-3,"category":"$121 - $145","category_index":1},{"value":0,"offby":-3,"category":"$146 - $170","category_index":2},{"value":20,"offby":14,"category":"$171 - $195","category_index":3},{"value":0,"offby":-4,"category":"$196 - $220","category_index":4},{"value":0,"offby":-2,"category":"$221 - $245","category_index":5},{"value":0,"offby":-1,"category":"$246 - $270","category_index":6}],"phase":0,"number":0,"trial_type":"bar-choose","trial_index":15,"time_elapsed":1147916,"internal_node_id":"0.0-15.0"},{"rt":1548,"url":"\/tickets\/\/utils\/testing.html","trial_type":"html","trial_index":16,"time_elapsed":1150620,"internal_node_id":"0.0-16.0"},{"phase":0,"order":[47,41,20,8,4,23,18,1,5,13,30,3,21,36,48,35,7,0,38,14,25,17,40,39,15,37,29,10,44,27,11,6,2,42,31,28,19,45,33,12,9,22,24,26,16,46,32,34,43,49],"trial_type":"store_order","trial_index":17,"time_elapsed":1151621,"internal_node_id":"0.0-17.0"},{"result":165,"points":2,"place":1,"phase":0,"sequence":-1,"prices":[184,180,224,165,181,199,185,193,218,126],"times":[4522,1342,557,1043],"next_num":4,"trial_type":"ticket-choose","trial_index":18,"time_elapsed":1162381,"internal_node_id":"0.0-18.0"},{"rt":5648,"url":"\/tickets\/utils\/testing_after.html","trial_type":"html","trial_index":19,"time_elapsed":1169188,"internal_node_id":"0.0-19.0"},{"result":146,"points":1,"place":2,"phase":0,"sequence":0,"prices":[186,146,191,179,152,116,140,201,172,187],"times":[4833,977],"next_num":2,"trial_type":"ticket-choose","trial_index":20,"time_elapsed":1178315,"internal_node_id":"0.0-20.0"},{"result":126,"points":3,"place":0,"phase":0,"sequence":1,"prices":[173,191,146,242,178,194,172,152,126,235],"times":[938,559,1282,569,514,650,522,979,990],"next_num":9,"trial_type":"ticket-choose","trial_index":21,"time_elapsed":1190656,"internal_node_id":"0.0-21.0"},{"result":127,"points":3,"place":0,"phase":0,"sequence":2,"prices":[171,191,172,268,179,194,146,150,127,239],"times":[929,523,498,502,839,483,935,446,758],"next_num":9,"trial_type":"ticket-choose","trial_index":22,"time_elapsed":1200238,"internal_node_id":"0.0-22.0"},{"result":126,"points":3,"place":0,"phase":0,"sequence":3,"prices":[172,191,176,272,179,194,146,152,126,235],"times":[1747,316,279,455,458,523,468,496,794],"next_num":9,"trial_type":"ticket-choose","trial_index":23,"time_elapsed":1209566,"internal_node_id":"0.0-23.0"},{"result":126,"points":3,"place":0,"phase":0,"sequence":4,"prices":[170,193,146,268,178,195,172,149,126,241],"times":[526,441,242,215,284,485,496,493,849],"next_num":9,"trial_type":"ticket-choose","trial_index":24,"time_elapsed":1217178,"internal_node_id":"0.0-24.0"},{"result":133,"points":3,"place":0,"phase":0,"sequence":5,"prices":[169,191,154,268,183,197,176,155,236,133],"times":[448,223,225,623,259,281,293,472,541,1209],"next_num":10,"trial_type":"ticket-choose","trial_index":25,"time_elapsed":1225842,"internal_node_id":"0.0-25.0"},{"result":124,"points":3,"place":0,"phase":0,"sequence":6,"prices":[216,206,158,145,224,185,124,149,175,162],"times":[584,223,463,442,474,464,828],"next_num":7,"trial_type":"ticket-choose","trial_index":26,"time_elapsed":1232247,"internal_node_id":"0.0-26.0"},{"result":188,"points":1,"place":4,"phase":0,"sequence":7,"prices":[142,207,171,182,190,269,180,218,256,188],"times":[240932,537,646,506,497,1100,533,557,523,1123],"next_num":10,"trial_type":"ticket-choose","trial_index":27,"time_elapsed":1483472,"internal_node_id":"0.0-27.0"},{"result":196,"points":1,"place":4,"phase":0,"sequence":8,"prices":[143,206,153,194,201,267,168,208,210,196],"times":[1076,12663,249981,5240,513,523,752,531,477,693],"next_num":10,"trial_type":"ticket-choose","trial_index":28,"time_elapsed":1759657,"internal_node_id":"0.0-28.0"},{"result":121,"points":3,"place":0,"phase":0,"sequence":9,"prices":[121,191,128,141,166,217,129,196,202,157],"times":[1013],"next_num":1,"trial_type":"ticket-choose","trial_index":29,"time_elapsed":1762525,"internal_node_id":"0.0-29.0"},{"result":117,"points":3,"place":0,"phase":0,"sequence":10,"prices":[117,161,120,147,153,259,144,191,195,149],"times":[826],"next_num":1,"trial_type":"ticket-choose","trial_index":30,"time_elapsed":1765004,"internal_node_id":"0.0-30.0"},{"result":146,"points":2,"place":1,"phase":0,"sequence":11,"prices":[168,191,172,240,183,193,146,151,125,238],"times":[624,475,552,613,515,538,793],"next_num":7,"trial_type":"ticket-choose","trial_index":31,"time_elapsed":1772208,"internal_node_id":"0.0-31.0"},{"result":189,"points":1,"place":4,"phase":0,"sequence":12,"prices":[157,213,159,187,194,242,161,222,225,189],"times":[644,460,500,545,611,529,643,515,427,560],"next_num":10,"trial_type":"ticket-choose","trial_index":32,"time_elapsed":1781358,"internal_node_id":"0.0-32.0"},{"result":136,"points":2,"place":1,"phase":0,"sequence":13,"prices":[171,192,136,243,182,195,174,154,236,128],"times":[840,512,687],"next_num":3,"trial_type":"ticket-choose","trial_index":33,"time_elapsed":1785442,"internal_node_id":"0.0-33.0"},{"result":146,"points":2,"place":1,"phase":0,"sequence":14,"prices":[171,195,172,242,179,196,146,150,128,235],"times":[720,462,559,506,521,462,856],"next_num":7,"trial_type":"ticket-choose","trial_index":34,"time_elapsed":1792427,"internal_node_id":"0.0-34.0"},{"result":136,"points":2,"place":1,"phase":0,"sequence":15,"prices":[172,194,174,243,182,193,136,150,237,126],"times":[568,359,426,527,463,525,778],"next_num":7,"trial_type":"ticket-choose","trial_index":35,"time_elapsed":1799205,"internal_node_id":"0.0-35.0"},{"result":136,"points":3,"place":0,"phase":0,"sequence":16,"prices":[240,188,273,207,250,136,217,170,171,236],"times":[25358,2964,1550,1431,1426,1173],"next_num":6,"trial_type":"ticket-choose","trial_index":36,"time_elapsed":1837826,"internal_node_id":"0.0-36.0"},{"result":154,"points":2,"place":1,"phase":0,"sequence":17,"prices":[170,190,176,251,183,192,154,157,236,131],"times":[1621,1340,1229,1400,1249,1273,1106],"next_num":7,"trial_type":"ticket-choose","trial_index":37,"time_elapsed":1850789,"internal_node_id":"0.0-37.0"},{"result":146,"points":2,"place":1,"phase":0,"sequence":18,"prices":[168,191,146,252,183,193,172,153,126,238],"times":[903,1198,8442],"next_num":3,"trial_type":"ticket-choose","trial_index":38,"time_elapsed":1863954,"internal_node_id":"0.0-38.0"},{"result":124,"points":3,"place":0,"phase":0,"sequence":19,"prices":[124,220,136,165,185,234,143,225,228,179],"times":[1532],"next_num":1,"trial_type":"ticket-choose","trial_index":39,"time_elapsed":1867616,"internal_node_id":"0.0-39.0"},{"result":155,"points":1,"place":2,"phase":0,"sequence":20,"prices":[155,129,164,189,210,108,187,241,174,275],"times":[932],"next_num":1,"trial_type":"ticket-choose","trial_index":40,"time_elapsed":1871004,"internal_node_id":"0.0-40.0"},{"result":132,"points":3,"place":0,"phase":0,"sequence":21,"prices":[132,222,144,153,190,248,151,224,228,179],"times":[1223],"next_num":1,"trial_type":"ticket-choose","trial_index":41,"time_elapsed":1873912,"internal_node_id":"0.0-41.0"},{"result":136,"points":2,"place":1,"phase":0,"sequence":22,"prices":[173,191,174,270,180,193,136,153,239,129],"times":[1186,1355,1071,1231,1078,1333,1323],"next_num":7,"trial_type":"ticket-choose","trial_index":42,"time_elapsed":1886242,"internal_node_id":"0.0-42.0"},{"result":154,"points":2,"place":1,"phase":0,"sequence":23,"prices":[170,193,176,245,178,194,154,159,236,126],"times":[1361,1161,1436,5517,1546,1326,969],"next_num":7,"trial_type":"ticket-choose","trial_index":43,"time_elapsed":1902887,"internal_node_id":"0.0-43.0"},{"result":136,"points":2,"place":1,"phase":0,"sequence":24,"prices":[169,192,174,246,180,195,136,152,238,126],"times":[1053,1169,1236,1277,10997,79849,1051],"next_num":7,"trial_type":"ticket-choose","trial_index":44,"time_elapsed":2002468,"internal_node_id":"0.0-44.0"},{"result":136,"points":2,"place":1,"phase":0,"sequence":25,"prices":[172,190,136,270,179,192,174,152,237,129],"times":[503,449,748],"next_num":3,"trial_type":"ticket-choose","trial_index":45,"time_elapsed":2006306,"internal_node_id":"0.0-45.0"},{"result":159,"points":2,"place":1,"phase":0,"sequence":26,"prices":[221,193,135,188,217,179,196,190,175,159],"times":[695,426,567,546,640,519,466,470,527,548],"next_num":10,"trial_type":"ticket-choose","trial_index":46,"time_elapsed":2015670,"internal_node_id":"0.0-46.0"},{"result":136,"points":2,"place":1,"phase":0,"sequence":27,"prices":[173,194,136,239,182,200,174,150,236,127],"times":[620,433,730],"next_num":3,"trial_type":"ticket-choose","trial_index":47,"time_elapsed":2019639,"internal_node_id":"0.0-47.0"},{"result":131,"points":2,"place":1,"phase":0,"sequence":28,"prices":[221,234,131,136,132,149,154,90,176,173],"times":[521,371,639],"next_num":3,"trial_type":"ticket-choose","trial_index":48,"time_elapsed":2023163,"internal_node_id":"0.0-48.0"},{"result":149,"points":3,"place":0,"phase":0,"sequence":29,"prices":[244,203,196,189,154,206,197,149,171,159],"times":[421,466,526,469,573,691,476,710],"next_num":8,"trial_type":"ticket-choose","trial_index":49,"time_elapsed":2030729,"internal_node_id":"0.0-49.0"},{"result":114,"points":3,"place":0,"phase":0,"sequence":30,"prices":[182,249,159,114,184,205,175,189,172,178],"times":[545,433,481,1041],"next_num":4,"trial_type":"ticket-choose","trial_index":50,"time_elapsed":2035467,"internal_node_id":"0.0-50.0"},{"result":133,"points":3,"place":0,"phase":0,"sequence":31,"prices":[168,192,154,237,182,196,176,156,235,133],"times":[428,451,910,475,478,497,470,1138,508,430],"next_num":10,"trial_type":"ticket-choose","trial_index":51,"time_elapsed":2044802,"internal_node_id":"0.0-51.0"},{"result":136,"points":2,"place":1,"phase":0,"sequence":32,"prices":[170,192,174,242,181,196,136,153,236,128],"times":[462,326,260,445,472,514,768],"next_num":7,"trial_type":"ticket-choose","trial_index":52,"time_elapsed":2050927,"internal_node_id":"0.0-52.0"},{"result":193,"points":1,"place":4,"phase":0,"sequence":33,"prices":[263,165,224,214,105,230,215,185,177,193],"times":[440,846,806,276,335,513,570,623,520,396],"next_num":10,"trial_type":"ticket-choose","trial_index":53,"time_elapsed":2059825,"internal_node_id":"0.0-53.0"},{"result":136,"points":2,"place":1,"phase":0,"sequence":34,"prices":[171,192,136,265,180,194,174,152,239,127],"times":[476,496,1004],"next_num":3,"trial_type":"ticket-choose","trial_index":54,"time_elapsed":2063890,"internal_node_id":"0.0-54.0"},{"result":160,"points":1,"place":4,"phase":0,"sequence":35,"prices":[137,187,152,156,166,231,155,194,202,160],"times":[629,352,499,499,474,562,506,589,603,641],"next_num":10,"trial_type":"ticket-choose","trial_index":55,"time_elapsed":2093566,"internal_node_id":"0.0-55.0"},{"result":135,"points":3,"place":0,"phase":0,"sequence":36,"prices":[135,202,150,169,183,225,160,211,220,172],"times":[1210],"next_num":1,"trial_type":"ticket-choose","trial_index":56,"time_elapsed":2096386,"internal_node_id":"0.0-56.0"},{"result":150,"points":3,"place":0,"phase":0,"sequence":37,"prices":[197,153,181,215,150,155,164,247,177,162],"times":[658,434,397,456,806],"next_num":5,"trial_type":"ticket-choose","trial_index":57,"time_elapsed":2101891,"internal_node_id":"0.0-57.0"},{"result":128,"points":3,"place":0,"phase":0,"sequence":38,"prices":[196,221,149,164,216,167,175,128,176,181],"times":[510,354,397,386,540,724,513,764],"next_num":8,"trial_type":"ticket-choose","trial_index":58,"time_elapsed":2109177,"internal_node_id":"0.0-58.0"},{"result":150,"points":1,"place":2,"phase":0,"sequence":39,"prices":[169,193,146,237,180,196,172,150,129,236],"times":[466,320,376,437,458,580,687,876],"next_num":8,"trial_type":"ticket-choose","trial_index":59,"time_elapsed":2116633,"internal_node_id":"0.0-59.0"},{"result":124,"points":3,"place":0,"phase":0,"sequence":40,"prices":[219,183,227,124,176,161,140,129,171,201],"times":[617,650,455,791],"next_num":4,"trial_type":"ticket-choose","trial_index":60,"time_elapsed":2121442,"internal_node_id":"0.0-60.0"},{"result":116,"points":3,"place":0,"phase":0,"sequence":41,"prices":[181,130,116,142,157,193,165,218,173,207],"times":[403,461,774],"next_num":3,"trial_type":"ticket-choose","trial_index":61,"time_elapsed":2125123,"internal_node_id":"0.0-61.0"},{"result":176,"points":1,"place":4,"phase":0,"sequence":42,"prices":[169,193,154,255,178,194,176,158,239,126],"times":[603,519,489,528,640,513,825],"next_num":7,"trial_type":"ticket-choose","trial_index":62,"time_elapsed":2132196,"internal_node_id":"0.0-62.0"},{"result":141,"points":1,"place":2,"phase":0,"sequence":43,"prices":[198,119,169,141,195,233,136,208,177,217],"times":[431,335,465,899],"next_num":4,"trial_type":"ticket-choose","trial_index":63,"time_elapsed":2136537,"internal_node_id":"0.0-63.0"},{"result":125,"points":3,"place":0,"phase":0,"sequence":44,"prices":[169,192,176,244,178,194,154,159,237,125],"times":[603,514,624,552,699,690,577,715,537,484],"next_num":10,"trial_type":"ticket-choose","trial_index":64,"time_elapsed":2146052,"internal_node_id":"0.0-64.0"},{"result":192,"points":1,"place":4,"phase":0,"sequence":45,"prices":[157,205,161,175,197,254,165,210,214,192],"times":[625,477,654,550,531,519,691,533,508,464],"next_num":10,"trial_type":"ticket-choose","trial_index":65,"time_elapsed":2155099,"internal_node_id":"0.0-65.0"},{"result":152,"points":2,"place":1,"phase":0,"sequence":46,"prices":[156,218,212,216,191,210,275,146,174,152],"times":[596,458,437,469,499,519,468,421,542,436],"next_num":10,"trial_type":"ticket-choose","trial_index":66,"time_elapsed":2163648,"internal_node_id":"0.0-66.0"},{"result":101,"points":3,"place":0,"phase":0,"sequence":47,"prices":[181,138,118,170,190,101,146,169,175,233],"times":[732,354,286,369,690,642],"next_num":6,"trial_type":"ticket-choose","trial_index":67,"time_elapsed":2169359,"internal_node_id":"0.0-67.0"},{"result":127,"points":3,"place":0,"phase":0,"sequence":48,"prices":[169,194,154,271,178,201,176,158,236,127],"times":[521,468,563,545,632,529,533,1043,535,558],"next_num":10,"trial_type":"ticket-choose","trial_index":68,"time_elapsed":2179333,"internal_node_id":"0.0-68.0"},{"result":154,"points":2,"place":1,"phase":0,"sequence":49,"prices":[168,192,176,242,183,197,154,156,237,132],"times":[411,502,527,485,531,480,706],"next_num":7,"trial_type":"ticket-choose","trial_index":69,"time_elapsed":2186108,"internal_node_id":"0.0-69.0"},{"responses":[{"value":0,"offby":-1,"category":"$90 - $120","category_index":0},{"value":1,"offby":-2,"category":"$121 - $145","category_index":1},{"value":5,"offby":2,"category":"$146 - $170","category_index":2},{"value":8,"offby":2,"category":"$171 - $195","category_index":3},{"value":5,"offby":1,"category":"$196 - $220","category_index":4},{"value":1,"offby":-1,"category":"$221 - $245","category_index":5},{"value":0,"offby":-1,"category":"$246 - $270","category_index":6}],"phase":0,"number":1,"trial_type":"bar-choose","trial_index":70,"time_elapsed":2207851,"internal_node_id":"0.0-70.0"},{"rt":8123,"url":"\/tickets\/utils\/start2.html","trial_type":"html","trial_index":71,"time_elapsed":2217105,"internal_node_id":"0.0-71.0"},{"trial_type":"number-animation","trial_index":72,"time_elapsed":2224053,"internal_node_id":"0.0-72.0"},{"phase":1,"sequence":0,"avg":181,"response":165,"trial_type":"training_avg","trial_index":73,"time_elapsed":2228355,"internal_node_id":"0.0-73.0"},{"trial_type":"number-animation","trial_index":74,"time_elapsed":2234117,"internal_node_id":"0.0-74.0"},{"phase":1,"sequence":1,"avg":188,"response":194,"trial_type":"training_avg","trial_index":75,"time_elapsed":2238565,"internal_node_id":"0.0-75.0"},{"trial_type":"number-animation","trial_index":76,"time_elapsed":2245585,"internal_node_id":"0.0-76.0"},{"phase":1,"sequence":2,"avg":188,"response":197,"trial_type":"training_avg","trial_index":77,"time_elapsed":2254827,"internal_node_id":"0.0-77.0"},{"trial_type":"number-animation","trial_index":78,"time_elapsed":2262320,"internal_node_id":"0.0-78.0"},{"phase":1,"sequence":3,"avg":177,"response":172,"trial_type":"training_avg","trial_index":79,"time_elapsed":2266732,"internal_node_id":"0.0-79.0"},{"trial_type":"number-animation","trial_index":80,"time_elapsed":2273168,"internal_node_id":"0.0-80.0"},{"phase":1,"sequence":4,"avg":182,"response":182,"trial_type":"training_avg","trial_index":81,"time_elapsed":2278475,"internal_node_id":"0.0-81.0"},{"responses":[{"value":0,"offby":0,"category":"$106 - $134","category_index":0},{"value":4,"offby":3,"category":"$135 - $150","category_index":1},{"value":5,"offby":2,"category":"$151 - $165","category_index":2},{"value":5,"offby":-1,"category":"$166 - $180","category_index":3},{"value":6,"offby":0,"category":"$181 - $195","category_index":4},{"value":0,"offby":-3,"category":"$196 - $210","category_index":5},{"value":0,"offby":-1,"category":"$211 - $225","category_index":6}],"phase":1,"number":0,"trial_type":"bar-choose","trial_index":82,"time_elapsed":2295986,"internal_node_id":"0.0-82.0"},{"rt":2108,"url":"\/tickets\/utils\/testing2.html","trial_type":"html","trial_index":83,"time_elapsed":2299249,"internal_node_id":"0.0-83.0"},{"phase":1,"order":[49,0,7,4,3,9,37,24,32,29,31,6,28,17,5,22,46,13,2,26,35,25,23,15,20,19,43,18,41,45,48,8,21,42,16,33,30,39,36,1,47,34,10,40,14,27,38,44,11,12],"trial_type":"store_order","trial_index":84,"time_elapsed":2300251,"internal_node_id":"0.0-84.0"},{"result":175,"points":1,"place":4,"phase":1,"sequence":0,"prices":[200,181,203,152,175,171,160,154,176,191],"times":[2327,299,256,212,282],"next_num":5,"trial_type":"ticket-choose","trial_index":85,"time_elapsed":2306304,"internal_node_id":"0.0-85.0"},{"result":155,"points":2,"place":1,"phase":1,"sequence":1,"prices":[201,207,155,158,156,165,167,135,178,177],"times":[179743,341,722],"next_num":3,"trial_type":"ticket-choose","trial_index":86,"time_elapsed":2489236,"internal_node_id":"0.0-86.0"},{"result":158,"points":2,"place":1,"phase":1,"sequence":2,"prices":[175,186,177,221,180,187,158,166,209,153],"times":[497,449,607,492,546,426,730],"next_num":7,"trial_type":"ticket-choose","trial_index":87,"time_elapsed":2496035,"internal_node_id":"0.0-87.0"},{"result":186,"points":0,"place":6,"phase":1,"sequence":3,"prices":[174,186,167,211,181,188,178,168,208,156],"times":[912,275],"next_num":2,"trial_type":"ticket-choose","trial_index":88,"time_elapsed":2499059,"internal_node_id":"0.0-88.0"},{"result":176,"points":1,"place":3,"phase":1,"sequence":4,"prices":[176,186,176,210,179,187,163,166,153,208],"times":[585],"next_num":1,"trial_type":"ticket-choose","trial_index":89,"time_elapsed":2501332,"internal_node_id":"0.0-89.0"},{"result":158,"points":2,"place":1,"phase":1,"sequence":5,"prices":[176,185,177,218,180,186,158,166,209,154],"times":[517,292,265,698,279,272,671],"next_num":7,"trial_type":"ticket-choose","trial_index":90,"time_elapsed":2507260,"internal_node_id":"0.0-90.0"},{"result":176,"points":1,"place":3,"phase":1,"sequence":6,"prices":[176,187,158,210,181,187,177,165,208,153],"times":[126681],"next_num":1,"trial_type":"ticket-choose","trial_index":91,"time_elapsed":2636053,"internal_node_id":"0.0-91.0"},{"result":163,"points":2,"place":1,"phase":1,"sequence":7,"prices":[175,187,163,209,180,188,176,165,154,208],"times":[610,410,685],"next_num":3,"trial_type":"ticket-choose","trial_index":92,"time_elapsed":2639942,"internal_node_id":"0.0-92.0"},{"result":176,"points":1,"place":4,"phase":1,"sequence":8,"prices":[175,187,176,209,180,188,163,165,154,208],"times":[606,525,474],"next_num":3,"trial_type":"ticket-choose","trial_index":93,"time_elapsed":2643697,"internal_node_id":"0.0-93.0"},{"result":175,"points":1,"place":3,"phase":1,"sequence":9,"prices":[175,185,178,215,181,186,167,168,208,156],"times":[750],"next_num":1,"trial_type":"ticket-choose","trial_index":94,"time_elapsed":2646135,"internal_node_id":"0.0-94.0"},{"result":157,"points":3,"place":0,"phase":1,"sequence":10,"prices":[157,191,165,175,182,203,170,195,200,176],"times":[855],"next_num":1,"trial_type":"ticket-choose","trial_index":95,"time_elapsed":2648703,"internal_node_id":"0.0-95.0"},{"result":165,"points":1,"place":2,"phase":1,"sequence":11,"prices":[175,186,163,211,179,187,176,165,153,210],"times":[407,231,534,535,476,531,628,637],"next_num":8,"trial_type":"ticket-choose","trial_index":96,"time_elapsed":2657883,"internal_node_id":"0.0-96.0"},{"result":175,"points":1,"place":3,"phase":1,"sequence":12,"prices":[175,186,177,209,181,188,158,167,208,154],"times":[702],"next_num":1,"trial_type":"ticket-choose","trial_index":97,"time_elapsed":2660183,"internal_node_id":"0.0-97.0"},{"result":165,"points":2,"place":1,"phase":1,"sequence":13,"prices":[188,200,165,172,198,174,177,154,177,180],"times":[835,491,650],"next_num":3,"trial_type":"ticket-choose","trial_index":98,"time_elapsed":2664172,"internal_node_id":"0.0-98.0"},{"result":169,"points":2,"place":1,"phase":1,"sequence":14,"prices":[181,215,169,147,182,193,177,184,176,179],"times":[520,498,661],"next_num":3,"trial_type":"ticket-choose","trial_index":99,"time_elapsed":2667886,"internal_node_id":"0.0-99.0"},{"result":154,"points":2,"place":1,"phase":1,"sequence":15,"prices":[168,154,172,185,195,144,184,211,177,227],"times":[1288,629],"next_num":2,"trial_type":"ticket-choose","trial_index":100,"time_elapsed":2671537,"internal_node_id":"0.0-100.0"},{"result":163,"points":2,"place":1,"phase":1,"sequence":16,"prices":[175,186,176,224,179,187,163,165,153,210],"times":[477,472,601,459,555,511,1117],"next_num":7,"trial_type":"ticket-choose","trial_index":101,"time_elapsed":2678784,"internal_node_id":"0.0-101.0"},{"result":163,"points":2,"place":1,"phase":1,"sequence":17,"prices":[176,186,163,214,179,187,176,166,153,208],"times":[498,404,603],"next_num":3,"trial_type":"ticket-choose","trial_index":102,"time_elapsed":2682250,"internal_node_id":"0.0-102.0"},{"result":163,"points":3,"place":0,"phase":1,"sequence":18,"prices":[168,199,196,198,185,195,227,163,177,166],"times":[503,470,515,429,577,473,441,768],"next_num":8,"trial_type":"ticket-choose","trial_index":103,"time_elapsed":2689576,"internal_node_id":"0.0-103.0"},{"result":167,"points":2,"place":1,"phase":1,"sequence":19,"prices":[175,186,178,212,179,187,167,169,209,153],"times":[7658,424,476,472,572,512,728],"next_num":7,"trial_type":"ticket-choose","trial_index":104,"time_elapsed":2703281,"internal_node_id":"0.0-104.0"},{"result":156,"points":3,"place":0,"phase":1,"sequence":20,"prices":[156,201,162,166,185,214,165,202,204,179],"times":[9908],"next_num":1,"trial_type":"ticket-choose","trial_index":105,"time_elapsed":2714963,"internal_node_id":"0.0-105.0"},{"result":175,"points":1,"place":3,"phase":1,"sequence":21,"prices":[175,186,158,209,181,188,177,167,208,154],"times":[637],"next_num":1,"trial_type":"ticket-choose","trial_index":106,"time_elapsed":2717170,"internal_node_id":"0.0-106.0"},{"result":150,"points":3,"place":0,"phase":1,"sequence":22,"prices":[189,150,175,160,188,207,158,194,178,199],"times":[630,627],"next_num":2,"trial_type":"ticket-choose","trial_index":107,"time_elapsed":2720171,"internal_node_id":"0.0-107.0"},{"result":167,"points":2,"place":1,"phase":1,"sequence":23,"prices":[189,167,180,197,165,168,172,213,178,171],"times":[526,902],"next_num":2,"trial_type":"ticket-choose","trial_index":108,"time_elapsed":2723999,"internal_node_id":"0.0-108.0"},{"result":167,"points":2,"place":1,"phase":1,"sequence":24,"prices":[175,187,178,209,179,187,167,169,208,153],"times":[580,465,472,459,414,461,846],"next_num":7,"trial_type":"ticket-choose","trial_index":109,"time_elapsed":2730579,"internal_node_id":"0.0-109.0"},{"result":169,"points":1,"place":3,"phase":1,"sequence":25,"prices":[198,193,169,163,202,182,152,164,177,171],"times":[573,461,819],"next_num":3,"trial_type":"ticket-choose","trial_index":110,"time_elapsed":2734446,"internal_node_id":"0.0-110.0"},{"result":154,"points":2,"place":1,"phase":1,"sequence":26,"prices":[150,185,154,161,173,199,155,188,191,168],"times":[534,726,709],"next_num":3,"trial_type":"ticket-choose","trial_index":111,"time_elapsed":2738438,"internal_node_id":"0.0-111.0"},{"result":167,"points":2,"place":1,"phase":1,"sequence":27,"prices":[175,186,167,225,179,187,178,169,209,153],"times":[576,454,806],"next_num":3,"trial_type":"ticket-choose","trial_index":112,"time_elapsed":2742403,"internal_node_id":"0.0-112.0"},{"result":159,"points":1,"place":2,"phase":1,"sequence":28,"prices":[180,159,149,175,185,141,163,174,178,207],"times":[960,772],"next_num":2,"trial_type":"ticket-choose","trial_index":113,"time_elapsed":2746042,"internal_node_id":"0.0-113.0"},{"result":186,"points":1,"place":4,"phase":1,"sequence":29,"prices":[168,192,171,178,188,217,172,195,197,186],"times":[806,485,444,479,513,552,827,694,593,623],"next_num":10,"trial_type":"ticket-choose","trial_index":114,"time_elapsed":2755856,"internal_node_id":"0.0-114.0"},{"result":175,"points":1,"place":3,"phase":1,"sequence":30,"prices":[175,187,167,212,179,187,178,169,208,153],"times":[605],"next_num":1,"trial_type":"ticket-choose","trial_index":115,"time_elapsed":2761601,"internal_node_id":"0.0-115.0"},{"result":174,"points":1,"place":3,"phase":1,"sequence":31,"prices":[174,186,176,217,181,187,163,166,153,209],"times":[9034],"next_num":1,"trial_type":"ticket-choose","trial_index":116,"time_elapsed":2772317,"internal_node_id":"0.0-116.0"},{"result":174,"points":1,"place":3,"phase":1,"sequence":32,"prices":[174,186,163,212,181,187,176,166,153,209],"times":[606],"next_num":1,"trial_type":"ticket-choose","trial_index":117,"time_elapsed":2774484,"internal_node_id":"0.0-117.0"},{"result":173,"points":2,"place":1,"phase":1,"sequence":33,"prices":[222,173,202,197,143,205,198,183,178,186],"times":[515,710],"next_num":2,"trial_type":"ticket-choose","trial_index":118,"time_elapsed":2777709,"internal_node_id":"0.0-118.0"},{"result":148,"points":3,"place":0,"phase":1,"sequence":34,"prices":[148,171,150,163,167,220,162,186,187,165],"times":[630],"next_num":1,"trial_type":"ticket-choose","trial_index":119,"time_elapsed":2779887,"internal_node_id":"0.0-119.0"},{"result":185,"points":1,"place":4,"phase":1,"sequence":35,"prices":[169,196,170,184,187,211,171,201,202,185],"times":[1080,448,701,487,458,520,584,522,488,678],"next_num":10,"trial_type":"ticket-choose","trial_index":120,"time_elapsed":2790110,"internal_node_id":"0.0-120.0"},{"result":158,"points":2,"place":1,"phase":1,"sequence":36,"prices":[176,185,158,217,180,186,177,166,209,154],"times":[596,394,719],"next_num":3,"trial_type":"ticket-choose","trial_index":121,"time_elapsed":2793839,"internal_node_id":"0.0-121.0"},{"result":184,"points":1,"place":4,"phase":1,"sequence":37,"prices":[212,192,188,184,167,193,189,164,176,170],"times":[553,480,456,738],"next_num":4,"trial_type":"ticket-choose","trial_index":122,"time_elapsed":2798262,"internal_node_id":"0.0-122.0"},{"result":159,"points":3,"place":0,"phase":1,"sequence":38,"prices":[159,183,166,168,173,205,167,187,191,170],"times":[718],"next_num":1,"trial_type":"ticket-choose","trial_index":123,"time_elapsed":2800538,"internal_node_id":"0.0-123.0"},{"result":181,"points":0,"place":5,"phase":1,"sequence":39,"prices":[174,186,178,217,181,188,167,168,208,156],"times":[606,425,597,1042,597],"next_num":5,"trial_type":"ticket-choose","trial_index":124,"time_elapsed":2806202,"internal_node_id":"0.0-124.0"},{"result":167,"points":2,"place":1,"phase":1,"sequence":40,"prices":[175,185,167,224,181,186,178,168,208,156],"times":[583,532,686],"next_num":3,"trial_type":"ticket-choose","trial_index":125,"time_elapsed":2809994,"internal_node_id":"0.0-125.0"},{"result":158,"points":2,"place":1,"phase":1,"sequence":41,"prices":[176,187,177,225,181,187,158,165,208,153],"times":[530,437,474,487,551,458,772],"next_num":7,"trial_type":"ticket-choose","trial_index":126,"time_elapsed":2816543,"internal_node_id":"0.0-126.0"},{"result":161,"points":3,"place":0,"phase":1,"sequence":42,"prices":[161,193,175,181,185,224,180,199,218,184],"times":[1167],"next_num":1,"trial_type":"ticket-choose","trial_index":127,"time_elapsed":2819367,"internal_node_id":"0.0-127.0"},{"result":152,"points":3,"place":0,"phase":1,"sequence":43,"prices":[152,200,158,173,182,207,161,202,204,180],"times":[715],"next_num":1,"trial_type":"ticket-choose","trial_index":128,"time_elapsed":2821672,"internal_node_id":"0.0-128.0"},{"result":175,"points":1,"place":3,"phase":1,"sequence":44,"prices":[175,186,158,211,180,187,177,166,209,153],"times":[584],"next_num":1,"trial_type":"ticket-choose","trial_index":129,"time_elapsed":2823810,"internal_node_id":"0.0-129.0"},{"result":184,"points":1,"place":3,"phase":1,"sequence":45,"prices":[210,184,226,193,215,158,199,175,176,208],"times":[621,592],"next_num":2,"trial_type":"ticket-choose","trial_index":130,"time_elapsed":2827048,"internal_node_id":"0.0-130.0"},{"result":161,"points":3,"place":0,"phase":1,"sequence":46,"prices":[161,193,167,187,190,224,174,194,195,188],"times":[665],"next_num":1,"trial_type":"ticket-choose","trial_index":131,"time_elapsed":2829339,"internal_node_id":"0.0-131.0"},{"result":181,"points":0,"place":6,"phase":1,"sequence":47,"prices":[181,155,148,161,168,187,172,199,176,194],"times":[624],"next_num":1,"trial_type":"ticket-choose","trial_index":132,"time_elapsed":2831493,"internal_node_id":"0.0-132.0"},{"result":157,"points":3,"place":0,"phase":1,"sequence":48,"prices":[201,187,157,184,198,179,188,185,178,170],"times":[529,541,760],"next_num":3,"trial_type":"ticket-choose","trial_index":133,"time_elapsed":2835341,"internal_node_id":"0.0-133.0"},{"result":183,"points":0,"place":6,"phase":1,"sequence":49,"prices":[183,163,185,180,166,148,160,186,176,184],"times":[1162],"next_num":1,"trial_type":"ticket-choose","trial_index":134,"time_elapsed":2839194,"internal_node_id":"0.0-134.0"},{"responses":[{"value":0,"offby":0,"category":"$106 - $134","category_index":0},{"value":3,"offby":2,"category":"$135 - $150","category_index":1},{"value":5,"offby":2,"category":"$151 - $165","category_index":2},{"value":5,"offby":-1,"category":"$166 - $180","category_index":3},{"value":5,"offby":-1,"category":"$181 - $195","category_index":4},{"value":2,"offby":-1,"category":"$196 - $210","category_index":5},{"value":0,"offby":-1,"category":"$211 - $225","category_index":6}],"phase":1,"number":1,"trial_type":"bar-choose","trial_index":135,"time_elapsed":2850727,"internal_node_id":"0.0-135.0"},{"special_comment":"No","trial_type":"special_sequence","trial_index":136,"time_elapsed":2855630,"internal_node_id":"0.0-136.0"},{"during":"Nothing","bonus":260,"trial_type":"final","trial_index":137,"time_elapsed":2873224,"internal_node_id":"0.0-137.0"}],"bonus":260}