{"start_time":"2017-02-27 12:35:45","end_time":"2017-02-27 12:54:37","points_phase0":114,"points_phase1":105,"phase_order":0,"age":38,"gender":"m","tries":1,"during":"Nothing","worker_id":"A26M2EYRTI3QPP","assignment_id":"3HRMW88U17JQBWHFR50PWMN5KLW0ML","data":[{"rt":5320,"url":"\/tickets\/utils\/consent.html","trial_type":"html","trial_index":0,"time_elapsed":5425,"internal_node_id":"0.0-0.0"},{"age":38,"gender":"m","trial_type":"age","trial_index":1,"time_elapsed":10696,"internal_node_id":"0.0-1.0"},{"worker_id":"A26M2EYRTI3QPP","trial_type":"workerid","trial_index":2,"time_elapsed":21366,"internal_node_id":"0.0-2.0"},{"tries":1,"trial_type":"instructions_check","trial_index":3,"time_elapsed":32265,"internal_node_id":"0.0-3.0"},{"rt":8158,"url":"\/tickets\/utils\/start.html","trial_type":"html","trial_index":4,"time_elapsed":41592,"internal_node_id":"0.0-4.0"},{"trial_type":"number-animation","trial_index":5,"time_elapsed":58276,"internal_node_id":"0.0-5.0"},{"phase":0,"sequence":0,"avg":180,"response":180,"trial_type":"training_avg","trial_index":6,"time_elapsed":75425,"internal_node_id":"0.0-6.0"},{"trial_type":"number-animation","trial_index":7,"time_elapsed":138789,"internal_node_id":"0.0-7.0"},{"phase":0,"sequence":1,"avg":178,"response":178,"trial_type":"training_avg","trial_index":8,"time_elapsed":156048,"internal_node_id":"0.0-8.0"},{"trial_type":"number-animation","trial_index":9,"time_elapsed":179772,"internal_node_id":"0.0-9.0"},{"phase":0,"sequence":2,"avg":176,"response":182,"trial_type":"training_avg","trial_index":10,"time_elapsed":188889,"internal_node_id":"0.0-10.0"},{"trial_type":"number-animation","trial_index":11,"time_elapsed":201504,"internal_node_id":"0.0-11.0"},{"phase":0,"sequence":3,"avg":178,"response":175,"trial_type":"training_avg","trial_index":12,"time_elapsed":206865,"internal_node_id":"0.0-12.0"},{"trial_type":"number-animation","trial_index":13,"time_elapsed":216521,"internal_node_id":"0.0-13.0"},{"phase":0,"sequence":4,"avg":179,"response":179,"trial_type":"training_avg","trial_index":14,"time_elapsed":223608,"internal_node_id":"0.0-14.0"},{"responses":[{"value":0,"offby":0,"category":"$140 - $250","category_index":0},{"value":0,"offby":0,"category":"$151 - $160","category_index":1},{"value":2,"offby":-2,"category":"$161 - $170","category_index":2},{"value":15,"offby":9,"category":"$171 - $180","category_index":3},{"value":3,"offby":-4,"category":"$181 - $190","category_index":4},{"value":0,"offby":-3,"category":"$191 - $200","category_index":5},{"value":0,"offby":0,"category":"$201 - $210","category_index":6}],"phase":0,"number":0,"trial_type":"bar-choose","trial_index":15,"time_elapsed":274061,"internal_node_id":"0.0-15.0"},{"rt":14028,"url":"\/tickets\/\/utils\/testing.html","trial_type":"html","trial_index":16,"time_elapsed":289230,"internal_node_id":"0.0-16.0"},{"phase":0,"order":[16,12,3,32,11,44,45,49,13,0,27,17,31,6,23,48,19,30,21,41,40,7,4,42,1,14,8,38,35,46,24,39,47,37,5,33,9,36,15,22,29,18,26,34,43,20,10,25,28,2],"trial_type":"store_order","trial_index":17,"time_elapsed":290231,"internal_node_id":"0.0-17.0"},{"result":165,"points":2,"place":1,"phase":0,"sequence":-1,"prices":[184,180,224,165,181,199,185,193,218,126],"times":[2702,1180,1855,1448],"next_num":4,"trial_type":"ticket-choose","trial_index":18,"time_elapsed":300950,"internal_node_id":"0.0-18.0"},{"rt":7075,"url":"\/tickets\/utils\/testing_after.html","trial_type":"html","trial_index":19,"time_elapsed":309165,"internal_node_id":"0.0-19.0"},{"result":163,"points":3,"place":0,"phase":0,"sequence":0,"prices":[174,178,168,192,177,181,176,171,163,182],"times":[2427,1229,1993,1054,1396,534,1144,1044,1096],"next_num":9,"trial_type":"ticket-choose","trial_index":20,"time_elapsed":326127,"internal_node_id":"0.0-20.0"},{"result":170,"points":2,"place":1,"phase":0,"sequence":1,"prices":[176,180,178,194,179,183,170,173,165,184],"times":[1775,663,991,773,606,597,1295],"next_num":7,"trial_type":"ticket-choose","trial_index":21,"time_elapsed":336486,"internal_node_id":"0.0-21.0"},{"result":165,"points":3,"place":0,"phase":0,"sequence":2,"prices":[174,179,169,194,178,183,177,173,165,184],"times":[1123,622,4119,524,548,628,541,832,1168],"next_num":9,"trial_type":"ticket-choose","trial_index":22,"time_elapsed":350424,"internal_node_id":"0.0-22.0"},{"result":175,"points":1,"place":4,"phase":0,"sequence":3,"prices":[171,180,172,174,179,188,173,183,186,175],"times":[1506,621,934,1444,597,589,1468,621,932,1046],"next_num":10,"trial_type":"ticket-choose","trial_index":23,"time_elapsed":364465,"internal_node_id":"0.0-23.0"},{"result":166,"points":3,"place":0,"phase":0,"sequence":4,"prices":[175,180,170,195,179,184,178,174,166,185],"times":[1865,613,4174,573,672,588,750,596,1112],"next_num":9,"trial_type":"ticket-choose","trial_index":24,"time_elapsed":379335,"internal_node_id":"0.0-24.0"},{"result":150,"points":3,"place":0,"phase":0,"sequence":5,"prices":[175,150,164,155,171,199,158,180,184,196],"times":[1033,1154],"next_num":2,"trial_type":"ticket-choose","trial_index":25,"time_elapsed":384066,"internal_node_id":"0.0-25.0"},{"result":162,"points":3,"place":0,"phase":0,"sequence":6,"prices":[179,174,172,162,202,184,165,197,185,169],"times":[1346,670,607,948],"next_num":4,"trial_type":"ticket-choose","trial_index":26,"time_elapsed":390264,"internal_node_id":"0.0-26.0"},{"result":170,"points":2,"place":1,"phase":0,"sequence":7,"prices":[175,189,193,170,179,165,180,186,177,184],"times":[1352,621,662,1573],"next_num":4,"trial_type":"ticket-choose","trial_index":27,"time_elapsed":397162,"internal_node_id":"0.0-27.0"},{"result":165,"points":3,"place":0,"phase":0,"sequence":8,"prices":[176,180,178,194,179,183,170,173,165,184],"times":[1703,590,592,606,957,583,1638,844,894],"next_num":9,"trial_type":"ticket-choose","trial_index":28,"time_elapsed":409233,"internal_node_id":"0.0-28.0"},{"result":169,"points":2,"place":1,"phase":0,"sequence":9,"prices":[175,179,169,193,178,182,177,172,164,183],"times":[1131,589,1471],"next_num":3,"trial_type":"ticket-choose","trial_index":29,"time_elapsed":414835,"internal_node_id":"0.0-29.0"},{"result":168,"points":3,"place":0,"phase":0,"sequence":10,"prices":[168,188,171,181,184,196,180,194,195,183],"times":[1712],"next_num":1,"trial_type":"ticket-choose","trial_index":30,"time_elapsed":418888,"internal_node_id":"0.0-30.0"},{"result":168,"points":2,"place":1,"phase":0,"sequence":11,"prices":[174,178,168,192,177,181,176,171,163,182],"times":[1091,574,1200],"next_num":3,"trial_type":"ticket-choose","trial_index":31,"time_elapsed":424097,"internal_node_id":"0.0-31.0"},{"result":157,"points":3,"place":0,"phase":0,"sequence":12,"prices":[157,184,163,174,181,190,168,187,189,177],"times":[1175],"next_num":1,"trial_type":"ticket-choose","trial_index":32,"time_elapsed":427297,"internal_node_id":"0.0-32.0"},{"result":169,"points":2,"place":1,"phase":0,"sequence":13,"prices":[174,179,177,194,178,183,169,173,165,184],"times":[815,558,588,636,561,675,860],"next_num":7,"trial_type":"ticket-choose","trial_index":33,"time_elapsed":435208,"internal_node_id":"0.0-33.0"},{"result":168,"points":2,"place":1,"phase":0,"sequence":14,"prices":[173,178,176,193,177,182,168,172,164,183],"times":[1259,543,522,675,613,629,928],"next_num":7,"trial_type":"ticket-choose","trial_index":34,"time_elapsed":443593,"internal_node_id":"0.0-34.0"},{"result":171,"points":3,"place":0,"phase":0,"sequence":15,"prices":[193,173,175,182,179,198,181,171,176,187],"times":[506,548,1078,1038,940,740,615,917],"next_num":8,"trial_type":"ticket-choose","trial_index":35,"time_elapsed":453464,"internal_node_id":"0.0-35.0"},{"result":168,"points":2,"place":1,"phase":0,"sequence":16,"prices":[173,178,168,193,177,182,176,172,164,183],"times":[1094,670,1086],"next_num":3,"trial_type":"ticket-choose","trial_index":36,"time_elapsed":458654,"internal_node_id":"0.0-36.0"},{"result":160,"points":3,"place":0,"phase":0,"sequence":17,"prices":[160,185,170,174,182,196,173,186,194,177],"times":[1127],"next_num":1,"trial_type":"ticket-choose","trial_index":37,"time_elapsed":461794,"internal_node_id":"0.0-37.0"},{"result":168,"points":2,"place":1,"phase":0,"sequence":18,"prices":[174,178,176,192,177,181,168,171,163,182],"times":[1234,540,615,622,630,604,885],"next_num":7,"trial_type":"ticket-choose","trial_index":38,"time_elapsed":470036,"internal_node_id":"0.0-38.0"},{"result":165,"points":3,"place":0,"phase":0,"sequence":19,"prices":[180,165,177,193,186,196,187,169,171,182],"times":[810,1091],"next_num":2,"trial_type":"ticket-choose","trial_index":39,"time_elapsed":474004,"internal_node_id":"0.0-39.0"},{"result":167,"points":3,"place":0,"phase":0,"sequence":20,"prices":[179,174,199,178,196,167,170,184,177,190],"times":[1029,476,566,885,605,842],"next_num":6,"trial_type":"ticket-choose","trial_index":40,"time_elapsed":481269,"internal_node_id":"0.0-40.0"},{"result":169,"points":2,"place":1,"phase":0,"sequence":21,"prices":[174,179,177,194,178,183,169,173,165,184],"times":[837,512,573,494,555,628,1390],"next_num":7,"trial_type":"ticket-choose","trial_index":41,"time_elapsed":489732,"internal_node_id":"0.0-41.0"},{"result":169,"points":2,"place":1,"phase":0,"sequence":22,"prices":[175,179,177,193,178,182,169,172,164,183],"times":[842,546,498,597,581,605,893],"next_num":7,"trial_type":"ticket-choose","trial_index":42,"time_elapsed":497337,"internal_node_id":"0.0-42.0"},{"result":160,"points":3,"place":0,"phase":0,"sequence":23,"prices":[175,193,175,160,180,170,175,205,177,167],"times":[702,807,645,969],"next_num":4,"trial_type":"ticket-choose","trial_index":43,"time_elapsed":502990,"internal_node_id":"0.0-43.0"},{"result":164,"points":3,"place":0,"phase":0,"sequence":24,"prices":[175,179,169,193,178,182,177,172,164,183],"times":[978,557,2132,631,548,547,687,549,1134],"next_num":9,"trial_type":"ticket-choose","trial_index":44,"time_elapsed":514372,"internal_node_id":"0.0-44.0"},{"result":170,"points":2,"place":1,"phase":0,"sequence":25,"prices":[175,180,178,195,179,184,170,174,166,185],"times":[5512,589,566,628,562,572,1007],"next_num":7,"trial_type":"ticket-choose","trial_index":45,"time_elapsed":527133,"internal_node_id":"0.0-45.0"},{"result":184,"points":0,"place":8,"phase":0,"sequence":26,"prices":[176,180,170,194,179,183,178,173,165,184],"times":[838,407,549,507,655,554,553,1468,630,1539],"next_num":10,"trial_type":"ticket-choose","trial_index":46,"time_elapsed":539282,"internal_node_id":"0.0-46.0"},{"result":170,"points":3,"place":0,"phase":0,"sequence":27,"prices":[181,179,199,188,170,172,178,187,191,177],"times":[1288,740,686,597,928],"next_num":5,"trial_type":"ticket-choose","trial_index":47,"time_elapsed":546137,"internal_node_id":"0.0-47.0"},{"result":154,"points":3,"place":0,"phase":0,"sequence":28,"prices":[188,179,154,183,173,170,177,160,169,175],"times":[829,646,974],"next_num":3,"trial_type":"ticket-choose","trial_index":48,"time_elapsed":550688,"internal_node_id":"0.0-48.0"},{"result":166,"points":3,"place":0,"phase":0,"sequence":29,"prices":[179,186,197,201,166,187,188,193,190,177],"times":[1207,594,578,630,975],"next_num":5,"trial_type":"ticket-choose","trial_index":49,"time_elapsed":557273,"internal_node_id":"0.0-49.0"},{"result":161,"points":3,"place":0,"phase":0,"sequence":30,"prices":[161,180,170,174,178,198,173,182,188,176],"times":[1035],"next_num":1,"trial_type":"ticket-choose","trial_index":50,"time_elapsed":560135,"internal_node_id":"0.0-50.0"},{"result":171,"points":1,"place":2,"phase":0,"sequence":31,"prices":[195,177,197,179,171,173,175,156,163,204],"times":[793,535,589,605,858],"next_num":5,"trial_type":"ticket-choose","trial_index":51,"time_elapsed":566144,"internal_node_id":"0.0-51.0"},{"result":181,"points":0,"place":5,"phase":0,"sequence":32,"prices":[180,175,173,177,191,190,184,196,174,181],"times":[714,618,764,583,596,778,700,678,845,717],"next_num":10,"trial_type":"ticket-choose","trial_index":52,"time_elapsed":577559,"internal_node_id":"0.0-52.0"},{"result":168,"points":2,"place":1,"phase":0,"sequence":33,"prices":[181,175,182,168,183,173,153,170,193,179],"times":[1114,638,598,910],"next_num":4,"trial_type":"ticket-choose","trial_index":53,"time_elapsed":583111,"internal_node_id":"0.0-53.0"},{"result":169,"points":2,"place":1,"phase":0,"sequence":34,"prices":[175,179,177,193,178,182,169,172,164,183],"times":[958,598,553,650,560,601,1075],"next_num":7,"trial_type":"ticket-choose","trial_index":54,"time_elapsed":591266,"internal_node_id":"0.0-54.0"},{"result":170,"points":3,"place":0,"phase":0,"sequence":35,"prices":[170,183,172,175,180,189,174,187,188,179],"times":[1044],"next_num":1,"trial_type":"ticket-choose","trial_index":55,"time_elapsed":594292,"internal_node_id":"0.0-55.0"},{"result":170,"points":2,"place":1,"phase":0,"sequence":36,"prices":[176,180,170,194,179,183,178,173,165,184],"times":[800,661,1197],"next_num":3,"trial_type":"ticket-choose","trial_index":56,"time_elapsed":599250,"internal_node_id":"0.0-56.0"},{"result":169,"points":1,"place":2,"phase":0,"sequence":37,"prices":[189,185,169,168,167,171,180,173,174,188],"times":[826,805,846],"next_num":3,"trial_type":"ticket-choose","trial_index":57,"time_elapsed":604026,"internal_node_id":"0.0-57.0"},{"result":174,"points":1,"place":2,"phase":0,"sequence":38,"prices":[175,180,178,195,179,184,170,174,166,185],"times":[562,545,682,644,796,550,534,1640],"next_num":8,"trial_type":"ticket-choose","trial_index":58,"time_elapsed":613330,"internal_node_id":"0.0-58.0"},{"result":173,"points":1,"place":3,"phase":0,"sequence":39,"prices":[173,178,176,193,177,182,168,172,164,183],"times":[1346],"next_num":1,"trial_type":"ticket-choose","trial_index":59,"time_elapsed":616563,"internal_node_id":"0.0-59.0"},{"result":166,"points":3,"place":0,"phase":0,"sequence":40,"prices":[166,190,170,173,178,203,172,192,198,174],"times":[943],"next_num":1,"trial_type":"ticket-choose","trial_index":60,"time_elapsed":619250,"internal_node_id":"0.0-60.0"},{"result":168,"points":2,"place":1,"phase":0,"sequence":41,"prices":[173,178,168,193,177,182,176,172,164,183],"times":[875,626,835],"next_num":3,"trial_type":"ticket-choose","trial_index":61,"time_elapsed":623659,"internal_node_id":"0.0-61.0"},{"result":165,"points":3,"place":0,"phase":0,"sequence":42,"prices":[165,187,173,177,186,196,176,191,192,181],"times":[1013],"next_num":1,"trial_type":"ticket-choose","trial_index":62,"time_elapsed":626339,"internal_node_id":"0.0-62.0"},{"result":165,"points":2,"place":1,"phase":0,"sequence":43,"prices":[181,180,191,186,165,197,159,167,194,185],"times":[742,544,573,894,1133],"next_num":5,"trial_type":"ticket-choose","trial_index":63,"time_elapsed":632908,"internal_node_id":"0.0-63.0"},{"result":157,"points":2,"place":1,"phase":0,"sequence":44,"prices":[188,191,179,157,181,164,166,156,175,182],"times":[1724,585,1047,982],"next_num":4,"trial_type":"ticket-choose","trial_index":64,"time_elapsed":642082,"internal_node_id":"0.0-64.0"},{"result":168,"points":2,"place":1,"phase":0,"sequence":45,"prices":[174,178,176,192,177,181,168,171,163,182],"times":[801,546,612,585,663,574,1015],"next_num":7,"trial_type":"ticket-choose","trial_index":65,"time_elapsed":649995,"internal_node_id":"0.0-65.0"},{"result":170,"points":2,"place":1,"phase":0,"sequence":46,"prices":[175,180,170,195,179,184,178,174,166,185],"times":[1307,558,1030],"next_num":3,"trial_type":"ticket-choose","trial_index":66,"time_elapsed":655166,"internal_node_id":"0.0-66.0"},{"result":163,"points":3,"place":0,"phase":0,"sequence":47,"prices":[163,185,165,174,181,198,173,186,187,180],"times":[1103],"next_num":1,"trial_type":"ticket-choose","trial_index":67,"time_elapsed":658316,"internal_node_id":"0.0-67.0"},{"result":159,"points":3,"place":0,"phase":0,"sequence":48,"prices":[159,178,170,174,176,194,173,182,185,175],"times":[1500],"next_num":1,"trial_type":"ticket-choose","trial_index":68,"time_elapsed":661819,"internal_node_id":"0.0-68.0"},{"result":169,"points":2,"place":1,"phase":0,"sequence":49,"prices":[174,179,169,194,178,183,177,173,165,184],"times":[965,539,854],"next_num":3,"trial_type":"ticket-choose","trial_index":69,"time_elapsed":666415,"internal_node_id":"0.0-69.0"},{"responses":[{"value":0,"offby":0,"category":"$140 - $250","category_index":0},{"value":1,"offby":1,"category":"$151 - $160","category_index":1},{"value":1,"offby":-3,"category":"$161 - $170","category_index":2},{"value":8,"offby":2,"category":"$171 - $180","category_index":3},{"value":5,"offby":-2,"category":"$181 - $190","category_index":4},{"value":3,"offby":0,"category":"$191 - $200","category_index":5},{"value":0,"offby":0,"category":"$201 - $210","category_index":6}],"phase":0,"number":1,"trial_type":"bar-choose","trial_index":70,"time_elapsed":704189,"internal_node_id":"0.0-70.0"},{"rt":3600,"url":"\/tickets\/utils\/start2.html","trial_type":"html","trial_index":71,"time_elapsed":708923,"internal_node_id":"0.0-71.0"},{"trial_type":"number-animation","trial_index":72,"time_elapsed":722111,"internal_node_id":"0.0-72.0"},{"phase":1,"sequence":0,"avg":166,"response":143,"trial_type":"training_avg","trial_index":73,"time_elapsed":730782,"internal_node_id":"0.0-73.0"},{"trial_type":"number-animation","trial_index":74,"time_elapsed":740398,"internal_node_id":"0.0-74.0"},{"phase":1,"sequence":1,"avg":198,"response":198,"trial_type":"training_avg","trial_index":75,"time_elapsed":749558,"internal_node_id":"0.0-75.0"},{"trial_type":"number-animation","trial_index":76,"time_elapsed":757910,"internal_node_id":"0.0-76.0"},{"phase":1,"sequence":2,"avg":177,"response":171,"trial_type":"training_avg","trial_index":77,"time_elapsed":764879,"internal_node_id":"0.0-77.0"},{"trial_type":"number-animation","trial_index":78,"time_elapsed":772641,"internal_node_id":"0.0-78.0"},{"phase":1,"sequence":3,"avg":190,"response":163,"trial_type":"training_avg","trial_index":79,"time_elapsed":778649,"internal_node_id":"0.0-79.0"},{"trial_type":"number-animation","trial_index":80,"time_elapsed":786016,"internal_node_id":"0.0-80.0"},{"phase":1,"sequence":4,"avg":201,"response":200,"trial_type":"training_avg","trial_index":81,"time_elapsed":792905,"internal_node_id":"0.0-81.0"},{"responses":[{"value":0,"offby":-1,"category":"$30 - $75","category_index":0},{"value":1,"offby":-1,"category":"$76 - $120","category_index":1},{"value":3,"offby":-1,"category":"$121 - $165","category_index":2},{"value":7,"offby":1,"category":"$166 - $210","category_index":3},{"value":7,"offby":1,"category":"$211 - $255","category_index":4},{"value":2,"offby":1,"category":"$256 - $300","category_index":5},{"value":0,"offby":0,"category":"$301 - $345","category_index":6}],"phase":1,"number":0,"trial_type":"bar-choose","trial_index":82,"time_elapsed":816882,"internal_node_id":"0.0-82.0"},{"rt":13940,"url":"\/tickets\/utils\/testing2.html","trial_type":"html","trial_index":83,"time_elapsed":831954,"internal_node_id":"0.0-83.0"},{"phase":1,"order":[37,6,30,23,31,24,19,8,17,18,48,7,16,3,21,34,44,42,45,4,43,47,33,25,49,0,40,11,38,9,10,26,5,32,14,22,13,36,20,39,1,41,28,35,29,27,12,15,2,46],"trial_type":"store_order","trial_index":84,"time_elapsed":832956,"internal_node_id":"0.0-84.0"},{"result":120,"points":2,"place":1,"phase":1,"sequence":0,"prices":[186,156,191,120,195,145,45,130,246,176],"times":[1049,583,631,1051],"next_num":4,"trial_type":"ticket-choose","trial_index":85,"time_elapsed":838922,"internal_node_id":"0.0-85.0"},{"result":150,"points":1,"place":3,"phase":1,"sequence":1,"prices":[150,175,166,251,170,196,126,145,105,201],"times":[2206],"next_num":1,"trial_type":"ticket-choose","trial_index":86,"time_elapsed":843146,"internal_node_id":"0.0-86.0"},{"result":81,"points":3,"place":0,"phase":1,"sequence":2,"prices":[81,205,130,151,191,261,145,210,250,165],"times":[989],"next_num":1,"trial_type":"ticket-choose","trial_index":87,"time_elapsed":845954,"internal_node_id":"0.0-87.0"},{"result":145,"points":1,"place":3,"phase":1,"sequence":3,"prices":[145,170,160,245,165,190,120,141,100,195],"times":[1229],"next_num":1,"trial_type":"ticket-choose","trial_index":88,"time_elapsed":848963,"internal_node_id":"0.0-88.0"},{"result":66,"points":3,"place":0,"phase":1,"sequence":4,"prices":[66,201,96,150,185,230,121,216,225,165],"times":[1136],"next_num":1,"trial_type":"ticket-choose","trial_index":89,"time_elapsed":851946,"internal_node_id":"0.0-89.0"},{"result":86,"points":3,"place":0,"phase":1,"sequence":5,"prices":[86,180,130,151,170,271,145,191,220,160],"times":[1096],"next_num":1,"trial_type":"ticket-choose","trial_index":90,"time_elapsed":854835,"internal_node_id":"0.0-90.0"},{"result":121,"points":2,"place":1,"phase":1,"sequence":6,"prices":[146,170,121,245,166,190,161,141,100,195],"times":[999,509,967],"next_num":3,"trial_type":"ticket-choose","trial_index":91,"time_elapsed":859668,"internal_node_id":"0.0-91.0"},{"result":131,"points":2,"place":1,"phase":1,"sequence":7,"prices":[161,180,131,251,175,196,171,146,105,201],"times":[1135,542,1006],"next_num":3,"trial_type":"ticket-choose","trial_index":92,"time_elapsed":864658,"internal_node_id":"0.0-92.0"},{"result":135,"points":1,"place":2,"phase":1,"sequence":8,"prices":[150,171,120,241,165,185,160,135,96,190],"times":[1123,466,531,607,630,588,1140,919],"next_num":8,"trial_type":"ticket-choose","trial_index":93,"time_elapsed":874082,"internal_node_id":"0.0-93.0"},{"result":120,"points":2,"place":1,"phase":1,"sequence":9,"prices":[146,171,120,245,165,191,160,140,100,196],"times":[1180,548,1039],"next_num":3,"trial_type":"ticket-choose","trial_index":94,"time_elapsed":879130,"internal_node_id":"0.0-94.0"},{"result":136,"points":3,"place":0,"phase":1,"sequence":10,"prices":[246,145,155,191,176,270,185,136,160,215],"times":[907,826,899,572,515,582,1501,1095],"next_num":8,"trial_type":"ticket-choose","trial_index":95,"time_elapsed":889371,"internal_node_id":"0.0-95.0"},{"result":126,"points":2,"place":1,"phase":1,"sequence":11,"prices":[151,175,166,251,170,195,126,146,105,201],"times":[1479,613,565,765,805,748,1062],"next_num":7,"trial_type":"ticket-choose","trial_index":96,"time_elapsed":898517,"internal_node_id":"0.0-96.0"},{"result":150,"points":1,"place":3,"phase":1,"sequence":12,"prices":[150,171,121,241,165,185,160,136,95,191],"times":[1030],"next_num":1,"trial_type":"ticket-choose","trial_index":97,"time_elapsed":901414,"internal_node_id":"0.0-97.0"},{"result":126,"points":2,"place":1,"phase":1,"sequence":13,"prices":[150,176,126,251,171,195,165,145,105,200],"times":[976,541,954],"next_num":3,"trial_type":"ticket-choose","trial_index":98,"time_elapsed":906133,"internal_node_id":"0.0-98.0"},{"result":120,"points":2,"place":1,"phase":1,"sequence":14,"prices":[150,170,160,241,166,186,120,136,96,191],"times":[1056,533,606,598,628,552,862],"next_num":7,"trial_type":"ticket-choose","trial_index":99,"time_elapsed":914149,"internal_node_id":"0.0-99.0"},{"result":106,"points":2,"place":1,"phase":1,"sequence":15,"prices":[185,180,235,210,106,266,76,115,250,205],"times":[812,560,624,588,866],"next_num":5,"trial_type":"ticket-choose","trial_index":100,"time_elapsed":920117,"internal_node_id":"0.0-100.0"},{"result":30,"points":3,"place":0,"phase":1,"sequence":16,"prices":[155,30,101,55,136,276,70,181,200,261],"times":[895,846],"next_num":2,"trial_type":"ticket-choose","trial_index":101,"time_elapsed":923916,"internal_node_id":"0.0-101.0"},{"result":81,"points":3,"place":0,"phase":1,"sequence":17,"prices":[155,245,155,81,180,130,156,306,166,115],"times":[1090,543,549,955],"next_num":4,"trial_type":"ticket-choose","trial_index":102,"time_elapsed":929678,"internal_node_id":"0.0-102.0"},{"result":141,"points":1,"place":3,"phase":1,"sequence":18,"prices":[176,150,141,91,290,201,106,266,206,126],"times":[718,544,1233],"next_num":3,"trial_type":"ticket-choose","trial_index":103,"time_elapsed":934309,"internal_node_id":"0.0-103.0"},{"result":125,"points":2,"place":1,"phase":1,"sequence":19,"prices":[155,175,166,245,171,190,125,140,101,196],"times":[734,510,597,602,613,645,903],"next_num":7,"trial_type":"ticket-choose","trial_index":104,"time_elapsed":941894,"internal_node_id":"0.0-104.0"},{"result":65,"points":2,"place":1,"phase":1,"sequence":20,"prices":[220,236,176,65,185,101,110,61,156,191],"times":[777,485,574,875],"next_num":4,"trial_type":"ticket-choose","trial_index":105,"time_elapsed":947007,"internal_node_id":"0.0-105.0"},{"result":150,"points":2,"place":1,"phase":1,"sequence":21,"prices":[181,156,145,165,236,231,201,260,150,185],"times":[687,516,533,552,539,578,626,590,901],"next_num":9,"trial_type":"ticket-choose","trial_index":106,"time_elapsed":955935,"internal_node_id":"0.0-106.0"},{"result":130,"points":3,"place":0,"phase":1,"sequence":22,"prices":[130,195,141,155,181,226,150,216,221,175],"times":[1015],"next_num":1,"trial_type":"ticket-choose","trial_index":107,"time_elapsed":958943,"internal_node_id":"0.0-107.0"},{"result":95,"points":3,"place":0,"phase":1,"sequence":23,"prices":[95,205,106,151,186,271,145,210,215,181],"times":[893],"next_num":1,"trial_type":"ticket-choose","trial_index":108,"time_elapsed":961564,"internal_node_id":"0.0-108.0"},{"result":130,"points":2,"place":1,"phase":1,"sequence":24,"prices":[155,225,245,130,176,106,180,211,165,200],"times":[1226,574,533,855],"next_num":4,"trial_type":"ticket-choose","trial_index":109,"time_elapsed":967071,"internal_node_id":"0.0-109.0"},{"result":156,"points":1,"place":3,"phase":1,"sequence":25,"prices":[156,175,126,246,170,190,165,140,100,196],"times":[1222],"next_num":1,"trial_type":"ticket-choose","trial_index":110,"time_elapsed":970234,"internal_node_id":"0.0-110.0"},{"result":116,"points":3,"place":0,"phase":1,"sequence":26,"prices":[176,150,276,171,261,116,130,201,166,231],"times":[944,417,655,839,581,902],"next_num":6,"trial_type":"ticket-choose","trial_index":111,"time_elapsed":977334,"internal_node_id":"0.0-111.0"},{"result":156,"points":1,"place":3,"phase":1,"sequence":27,"prices":[156,181,130,255,175,200,170,150,111,205],"times":[1135],"next_num":1,"trial_type":"ticket-choose","trial_index":112,"time_elapsed":980310,"internal_node_id":"0.0-112.0"},{"result":130,"points":3,"place":0,"phase":1,"sequence":28,"prices":[185,175,276,221,130,141,171,216,235,165],"times":[812,526,790,581,819],"next_num":5,"trial_type":"ticket-choose","trial_index":113,"time_elapsed":986384,"internal_node_id":"0.0-113.0"},{"result":130,"points":2,"place":1,"phase":1,"sequence":29,"prices":[160,180,130,251,176,195,170,146,105,200],"times":[807,552,1168],"next_num":3,"trial_type":"ticket-choose","trial_index":114,"time_elapsed":991016,"internal_node_id":"0.0-114.0"},{"result":131,"points":2,"place":1,"phase":1,"sequence":30,"prices":[156,181,131,256,176,200,171,151,111,206],"times":[788,663,807],"next_num":3,"trial_type":"ticket-choose","trial_index":115,"time_elapsed":995366,"internal_node_id":"0.0-115.0"},{"result":105,"points":3,"place":0,"phase":1,"sequence":31,"prices":[105,216,146,165,210,260,161,235,241,185],"times":[890],"next_num":1,"trial_type":"ticket-choose","trial_index":116,"time_elapsed":997917,"internal_node_id":"0.0-116.0"},{"result":101,"points":3,"place":0,"phase":1,"sequence":32,"prices":[156,176,165,246,171,190,126,141,101,196],"times":[685,525,587,676,597,549,566,2147,854],"next_num":9,"trial_type":"ticket-choose","trial_index":117,"time_elapsed":1008680,"internal_node_id":"0.0-117.0"},{"result":135,"points":3,"place":0,"phase":1,"sequence":33,"prices":[135,180,141,151,175,220,145,196,211,155],"times":[1097],"next_num":1,"trial_type":"ticket-choose","trial_index":118,"time_elapsed":1011615,"internal_node_id":"0.0-118.0"},{"result":130,"points":2,"place":1,"phase":1,"sequence":34,"prices":[155,181,170,255,176,200,130,150,110,205],"times":[991,716,578,577,658,565,885],"next_num":7,"trial_type":"ticket-choose","trial_index":119,"time_elapsed":1019905,"internal_node_id":"0.0-119.0"},{"result":145,"points":1,"place":3,"phase":1,"sequence":35,"prices":[145,171,161,245,165,191,120,140,100,196],"times":[1025],"next_num":1,"trial_type":"ticket-choose","trial_index":120,"time_elapsed":1022825,"internal_node_id":"0.0-120.0"},{"result":131,"points":2,"place":1,"phase":1,"sequence":36,"prices":[160,180,170,251,176,195,131,146,105,200],"times":[1454,486,639,733,724,599,1021],"next_num":7,"trial_type":"ticket-choose","trial_index":121,"time_elapsed":1031641,"internal_node_id":"0.0-121.0"},{"result":125,"points":1,"place":2,"phase":1,"sequence":37,"prices":[226,205,125,120,115,135,180,145,150,220],"times":[732,642,946],"next_num":3,"trial_type":"ticket-choose","trial_index":122,"time_elapsed":1036096,"internal_node_id":"0.0-122.0"},{"result":136,"points":1,"place":2,"phase":1,"sequence":38,"prices":[150,170,160,240,166,185,121,136,95,191],"times":[1611,479,732,555,618,573,590,1533],"next_num":8,"trial_type":"ticket-choose","trial_index":123,"time_elapsed":1046024,"internal_node_id":"0.0-123.0"},{"result":136,"points":1,"place":2,"phase":1,"sequence":39,"prices":[255,166,266,175,136,145,155,61,96,301],"times":[839,1389,670,678,975],"next_num":5,"trial_type":"ticket-choose","trial_index":124,"time_elapsed":1053169,"internal_node_id":"0.0-124.0"},{"result":156,"points":1,"place":3,"phase":1,"sequence":40,"prices":[156,175,125,245,170,190,165,140,101,196],"times":[952],"next_num":1,"trial_type":"ticket-choose","trial_index":125,"time_elapsed":1056154,"internal_node_id":"0.0-125.0"},{"result":106,"points":3,"place":0,"phase":1,"sequence":41,"prices":[180,106,166,245,211,261,215,125,135,190],"times":[735,1040],"next_num":2,"trial_type":"ticket-choose","trial_index":126,"time_elapsed":1059987,"internal_node_id":"0.0-126.0"},{"result":75,"points":3,"place":0,"phase":1,"sequence":42,"prices":[75,171,131,151,161,250,145,190,206,156],"times":[1042],"next_num":1,"trial_type":"ticket-choose","trial_index":127,"time_elapsed":1062945,"internal_node_id":"0.0-127.0"},{"result":51,"points":3,"place":0,"phase":1,"sequence":43,"prices":[221,175,51,196,146,130,166,80,126,156],"times":[932,590,757],"next_num":3,"trial_type":"ticket-choose","trial_index":128,"time_elapsed":1067273,"internal_node_id":"0.0-128.0"},{"result":111,"points":3,"place":0,"phase":1,"sequence":44,"prices":[111,231,131,146,171,295,141,241,271,150],"times":[905],"next_num":1,"trial_type":"ticket-choose","trial_index":129,"time_elapsed":1070241,"internal_node_id":"0.0-129.0"},{"result":120,"points":3,"place":0,"phase":1,"sequence":45,"prices":[120,221,135,185,200,261,181,251,255,196],"times":[837],"next_num":1,"trial_type":"ticket-choose","trial_index":130,"time_elapsed":1072739,"internal_node_id":"0.0-130.0"},{"result":131,"points":2,"place":1,"phase":1,"sequence":46,"prices":[161,180,171,250,176,195,131,146,105,201],"times":[986,581,634,595,614,590,967],"next_num":7,"trial_type":"ticket-choose","trial_index":131,"time_elapsed":1080611,"internal_node_id":"0.0-131.0"},{"result":156,"points":1,"place":3,"phase":1,"sequence":47,"prices":[156,181,171,256,175,200,131,150,110,206],"times":[933],"next_num":1,"trial_type":"ticket-choose","trial_index":132,"time_elapsed":1083563,"internal_node_id":"0.0-132.0"},{"result":151,"points":1,"place":3,"phase":1,"sequence":48,"prices":[151,176,126,251,170,196,165,145,105,201],"times":[810],"next_num":1,"trial_type":"ticket-choose","trial_index":133,"time_elapsed":1086059,"internal_node_id":"0.0-133.0"},{"result":111,"points":3,"place":0,"phase":1,"sequence":49,"prices":[175,211,266,286,111,216,220,245,230,165],"times":[723,548,556,542,926],"next_num":5,"trial_type":"ticket-choose","trial_index":134,"time_elapsed":1092218,"internal_node_id":"0.0-134.0"},{"responses":[{"value":1,"offby":0,"category":"$30 - $75","category_index":0},{"value":1,"offby":-1,"category":"$76 - $120","category_index":1},{"value":4,"offby":0,"category":"$121 - $165","category_index":2},{"value":8,"offby":2,"category":"$166 - $210","category_index":3},{"value":6,"offby":0,"category":"$211 - $255","category_index":4},{"value":0,"offby":-1,"category":"$256 - $300","category_index":5},{"value":0,"offby":0,"category":"$301 - $345","category_index":6}],"phase":1,"number":1,"trial_type":"bar-choose","trial_index":135,"time_elapsed":1109443,"internal_node_id":"0.0-135.0"},{"special_comment":"no","trial_type":"special_sequence","trial_index":136,"time_elapsed":1113908,"internal_node_id":"0.0-136.0"},{"during":"Nothing","bonus":292,"trial_type":"final","trial_index":137,"time_elapsed":1127119,"internal_node_id":"0.0-137.0"}],"bonus":292}