{"start_time":"2017-02-16 15:30:02","end_time":"2017-02-16 15:55:34","points_phase0":109,"points_phase1":109,"phase_order":1,"age":53,"gender":"f","tries":1,"during":"Nothing","worker_id":"A26RO8GGTQAXGG","assignment_id":"3M68NM076I0CMNGMY2CNRMR624AR6F","data":[{"rt":22936,"url":"\/tickets\/utils\/consent.html","trial_type":"html","trial_index":0,"time_elapsed":23420,"internal_node_id":"0.0-0.0"},{"age":53,"gender":"f","trial_type":"age","trial_index":1,"time_elapsed":29774,"internal_node_id":"0.0-1.0"},{"worker_id":"A26RO8GGTQAXGG","trial_type":"workerid","trial_index":2,"time_elapsed":45298,"internal_node_id":"0.0-2.0"},{"tries":1,"trial_type":"instructions_check","trial_index":3,"time_elapsed":85157,"internal_node_id":"0.0-3.0"},{"rt":12554,"url":"\/tickets\/utils\/start.html","trial_type":"html","trial_index":4,"time_elapsed":98894,"internal_node_id":"0.0-4.0"},{"trial_type":"number-animation","trial_index":5,"time_elapsed":118552,"internal_node_id":"0.0-5.0"},{"phase":0,"sequence":0,"avg":182,"response":182,"trial_type":"training_avg","trial_index":6,"time_elapsed":136191,"internal_node_id":"0.0-6.0"},{"trial_type":"number-animation","trial_index":7,"time_elapsed":152180,"internal_node_id":"0.0-7.0"},{"phase":0,"sequence":1,"avg":188,"response":194,"trial_type":"training_avg","trial_index":8,"time_elapsed":162993,"internal_node_id":"0.0-8.0"},{"trial_type":"number-animation","trial_index":9,"time_elapsed":174838,"internal_node_id":"0.0-9.0"},{"phase":0,"sequence":2,"avg":176,"response":166,"trial_type":"training_avg","trial_index":10,"time_elapsed":183780,"internal_node_id":"0.0-10.0"},{"trial_type":"number-animation","trial_index":11,"time_elapsed":195283,"internal_node_id":"0.0-11.0"},{"phase":0,"sequence":3,"avg":180,"response":177,"trial_type":"training_avg","trial_index":12,"time_elapsed":205967,"internal_node_id":"0.0-12.0"},{"trial_type":"number-animation","trial_index":13,"time_elapsed":218594,"internal_node_id":"0.0-13.0"},{"phase":0,"sequence":4,"avg":174,"response":173,"trial_type":"training_avg","trial_index":14,"time_elapsed":232689,"internal_node_id":"0.0-14.0"},{"responses":[{"value":1,"offby":0,"category":"$90 - $120","category_index":0},{"value":3,"offby":0,"category":"$121 - $145","category_index":1},{"value":4,"offby":1,"category":"$146 - $170","category_index":2},{"value":2,"offby":-4,"category":"$171 - $195","category_index":3},{"value":4,"offby":0,"category":"$196 - $220","category_index":4},{"value":3,"offby":1,"category":"$221 - $245","category_index":5},{"value":1,"offby":0,"category":"$246 - $270","category_index":6}],"phase":0,"number":0,"trial_type":"bar-choose","trial_index":15,"time_elapsed":313897,"internal_node_id":"0.0-15.0"},{"rt":13171,"url":"\/tickets\/\/utils\/testing.html","trial_type":"html","trial_index":16,"time_elapsed":328264,"internal_node_id":"0.0-16.0"},{"phase":0,"order":[12,48,6,19,37,47,45,9,30,40,28,33,29,24,43,38,5,44,31,26,46,13,34,49,21,8,11,0,3,7,22,1,36,18,20,25,10,41,2,15,42,17,32,16,27,14,4,35,39,23],"trial_type":"store_order","trial_index":17,"time_elapsed":329265,"internal_node_id":"0.0-17.0"},{"result":126,"points":3,"place":0,"phase":0,"sequence":-1,"times":[3132,1012,1020,1209,3819,1035,1414,1087,1242,2187],"next_num":10,"trial_type":"ticket-choose","trial_index":18,"time_elapsed":351575,"internal_node_id":"0.0-18.0"},{"rt":18326,"url":"\/tickets\/utils\/testing_after.html","trial_type":"html","trial_index":19,"time_elapsed":371134,"internal_node_id":"0.0-19.0"},{"result":156,"points":1,"place":2,"phase":0,"sequence":0,"times":[2109,846,1045,795,810,833,932,2119],"next_num":8,"trial_type":"ticket-choose","trial_index":20,"time_elapsed":385841,"internal_node_id":"0.0-20.0"},{"result":127,"points":3,"place":0,"phase":0,"sequence":1,"times":[1296,733,722,778,811,1158,776,1827,1266,1818],"next_num":10,"trial_type":"ticket-choose","trial_index":21,"time_elapsed":402420,"internal_node_id":"0.0-21.0"},{"result":124,"points":3,"place":0,"phase":0,"sequence":2,"times":[1478,707,824,1632],"next_num":4,"trial_type":"ticket-choose","trial_index":22,"time_elapsed":410899,"internal_node_id":"0.0-22.0"},{"result":159,"points":1,"place":2,"phase":0,"sequence":3,"times":[1392,744,714,765,861,796,2204,1373],"next_num":8,"trial_type":"ticket-choose","trial_index":23,"time_elapsed":424054,"internal_node_id":"0.0-23.0"},{"result":136,"points":2,"place":1,"phase":0,"sequence":4,"times":[1126,699,1584],"next_num":3,"trial_type":"ticket-choose","trial_index":24,"time_elapsed":430625,"internal_node_id":"0.0-24.0"},{"result":159,"points":1,"place":2,"phase":0,"sequence":5,"times":[1499,1624,691,698,1241,799,824,1217,1200,1274],"next_num":10,"trial_type":"ticket-choose","trial_index":25,"time_elapsed":446806,"internal_node_id":"0.0-25.0"},{"result":133,"points":3,"place":0,"phase":0,"sequence":6,"times":[1304,664,1177,748,717,774,803,1673,884,1118],"next_num":10,"trial_type":"ticket-choose","trial_index":26,"time_elapsed":461125,"internal_node_id":"0.0-26.0"},{"result":114,"points":3,"place":0,"phase":0,"sequence":7,"times":[1061,692,696,1447],"next_num":4,"trial_type":"ticket-choose","trial_index":27,"time_elapsed":468552,"internal_node_id":"0.0-27.0"},{"result":136,"points":2,"place":1,"phase":0,"sequence":8,"times":[1250,700,2033],"next_num":3,"trial_type":"ticket-choose","trial_index":28,"time_elapsed":475772,"internal_node_id":"0.0-28.0"},{"result":146,"points":2,"place":1,"phase":0,"sequence":9,"times":[1388,597,596,651,769,684,1461],"next_num":7,"trial_type":"ticket-choose","trial_index":29,"time_elapsed":486097,"internal_node_id":"0.0-29.0"},{"result":172,"points":1,"place":4,"phase":0,"sequence":10,"times":[1168,784,701,850,879,1035,802,1157,1074,1293],"next_num":10,"trial_type":"ticket-choose","trial_index":30,"time_elapsed":500375,"internal_node_id":"0.0-30.0"},{"result":131,"points":2,"place":1,"phase":0,"sequence":11,"times":[1694,821,1337],"next_num":3,"trial_type":"ticket-choose","trial_index":31,"time_elapsed":507366,"internal_node_id":"0.0-31.0"},{"result":128,"points":3,"place":0,"phase":0,"sequence":12,"times":[4644,821,717,737,765,783,1154,1404],"next_num":8,"trial_type":"ticket-choose","trial_index":32,"time_elapsed":522453,"internal_node_id":"0.0-32.0"},{"result":179,"points":1,"place":4,"phase":0,"sequence":13,"times":[997,3179,681,1047,733,770,2031,1168,876,2165],"next_num":10,"trial_type":"ticket-choose","trial_index":33,"time_elapsed":540777,"internal_node_id":"0.0-33.0"},{"result":146,"points":2,"place":1,"phase":0,"sequence":14,"times":[1143,669,680,765,780,844,1165],"next_num":7,"trial_type":"ticket-choose","trial_index":34,"time_elapsed":550739,"internal_node_id":"0.0-34.0"},{"result":126,"points":3,"place":0,"phase":0,"sequence":15,"times":[953,568,591,593,603,642,707,756,876,1361],"next_num":10,"trial_type":"ticket-choose","trial_index":35,"time_elapsed":562746,"internal_node_id":"0.0-35.0"},{"result":116,"points":3,"place":0,"phase":0,"sequence":16,"times":[1008,574,1379],"next_num":3,"trial_type":"ticket-choose","trial_index":36,"time_elapsed":568762,"internal_node_id":"0.0-36.0"},{"result":121,"points":3,"place":0,"phase":0,"sequence":17,"times":[1583],"next_num":1,"trial_type":"ticket-choose","trial_index":37,"time_elapsed":572924,"internal_node_id":"0.0-37.0"},{"result":146,"points":2,"place":1,"phase":0,"sequence":18,"times":[1028,603,686,522,613,670,1119],"next_num":7,"trial_type":"ticket-choose","trial_index":38,"time_elapsed":581889,"internal_node_id":"0.0-38.0"},{"result":189,"points":1,"place":4,"phase":0,"sequence":19,"times":[931,1105,630,630,686,673,1582,825,750,1217],"next_num":10,"trial_type":"ticket-choose","trial_index":39,"time_elapsed":595322,"internal_node_id":"0.0-39.0"},{"result":124,"points":3,"place":0,"phase":0,"sequence":20,"times":[1640],"next_num":1,"trial_type":"ticket-choose","trial_index":40,"time_elapsed":599425,"internal_node_id":"0.0-40.0"},{"result":141,"points":1,"place":2,"phase":0,"sequence":21,"times":[958,560,1487,1649],"next_num":4,"trial_type":"ticket-choose","trial_index":41,"time_elapsed":607037,"internal_node_id":"0.0-41.0"},{"result":124,"points":3,"place":0,"phase":0,"sequence":22,"times":[979,781,794,1923,755,686,1271],"next_num":7,"trial_type":"ticket-choose","trial_index":42,"time_elapsed":617633,"internal_node_id":"0.0-42.0"},{"result":136,"points":2,"place":1,"phase":0,"sequence":23,"times":[815,646,654,680,667,683,1265],"next_num":7,"trial_type":"ticket-choose","trial_index":43,"time_elapsed":626536,"internal_node_id":"0.0-43.0"},{"result":132,"points":3,"place":0,"phase":0,"sequence":24,"times":[1018,547,589,674,637,683,1556,1599,813,1037],"next_num":10,"trial_type":"ticket-choose","trial_index":44,"time_elapsed":639820,"internal_node_id":"0.0-44.0"},{"result":146,"points":3,"place":0,"phase":0,"sequence":25,"times":[884,574,518,545,551,735,714,1274],"next_num":8,"trial_type":"ticket-choose","trial_index":45,"time_elapsed":649480,"internal_node_id":"0.0-45.0"},{"result":118,"points":2,"place":1,"phase":0,"sequence":26,"times":[736,417,1280],"next_num":3,"trial_type":"ticket-choose","trial_index":46,"time_elapsed":654705,"internal_node_id":"0.0-46.0"},{"result":136,"points":2,"place":1,"phase":0,"sequence":27,"times":[2043,626,1204],"next_num":3,"trial_type":"ticket-choose","trial_index":47,"time_elapsed":661400,"internal_node_id":"0.0-47.0"},{"result":126,"points":3,"place":0,"phase":0,"sequence":28,"times":[850,701,1553,711,650,724,692,1685,1153],"next_num":9,"trial_type":"ticket-choose","trial_index":48,"time_elapsed":674100,"internal_node_id":"0.0-48.0"},{"result":196,"points":1,"place":4,"phase":0,"sequence":29,"times":[1036,689,800,740,695,673,1207,712,908,1059],"next_num":10,"trial_type":"ticket-choose","trial_index":49,"time_elapsed":686889,"internal_node_id":"0.0-49.0"},{"result":108,"points":3,"place":0,"phase":0,"sequence":30,"times":[1207,618,2698,697,734,1235],"next_num":6,"trial_type":"ticket-choose","trial_index":50,"time_elapsed":697491,"internal_node_id":"0.0-50.0"},{"result":136,"points":2,"place":1,"phase":0,"sequence":31,"times":[983,643,592,693,656,679,1856],"next_num":7,"trial_type":"ticket-choose","trial_index":51,"time_elapsed":707134,"internal_node_id":"0.0-51.0"},{"result":105,"points":3,"place":0,"phase":0,"sequence":32,"times":[908,547,547,614,1226],"next_num":5,"trial_type":"ticket-choose","trial_index":52,"time_elapsed":714161,"internal_node_id":"0.0-52.0"},{"result":136,"points":3,"place":0,"phase":0,"sequence":33,"times":[895,759,610,591,726,1253],"next_num":6,"trial_type":"ticket-choose","trial_index":53,"time_elapsed":722229,"internal_node_id":"0.0-53.0"},{"result":142,"points":3,"place":0,"phase":0,"sequence":34,"times":[12101],"next_num":1,"trial_type":"ticket-choose","trial_index":54,"time_elapsed":736710,"internal_node_id":"0.0-54.0"},{"result":126,"points":3,"place":0,"phase":0,"sequence":35,"times":[1585,659,953,667,663,702,741,784,753,1019],"next_num":10,"trial_type":"ticket-choose","trial_index":55,"time_elapsed":749477,"internal_node_id":"0.0-55.0"},{"result":116,"points":3,"place":0,"phase":0,"sequence":36,"times":[1734,487,692,669,606,1224],"next_num":6,"trial_type":"ticket-choose","trial_index":56,"time_elapsed":758082,"internal_node_id":"0.0-56.0"},{"result":131,"points":3,"place":0,"phase":0,"sequence":37,"times":[1167,637,554,701,804,671,1040,957,839,900],"next_num":10,"trial_type":"ticket-choose","trial_index":57,"time_elapsed":770241,"internal_node_id":"0.0-57.0"},{"result":127,"points":3,"place":0,"phase":0,"sequence":38,"times":[874,543,705,661,623,687,749,691,864,741],"next_num":10,"trial_type":"ticket-choose","trial_index":58,"time_elapsed":781378,"internal_node_id":"0.0-58.0"},{"result":136,"points":2,"place":1,"phase":0,"sequence":39,"times":[1205,1687,624,699,816,679,1279],"next_num":7,"trial_type":"ticket-choose","trial_index":59,"time_elapsed":791729,"internal_node_id":"0.0-59.0"},{"result":117,"points":3,"place":0,"phase":0,"sequence":40,"times":[2116],"next_num":1,"trial_type":"ticket-choose","trial_index":60,"time_elapsed":796353,"internal_node_id":"0.0-60.0"},{"result":149,"points":1,"place":2,"phase":0,"sequence":41,"times":[1014,556,546,611,694,658,741,1610],"next_num":8,"trial_type":"ticket-choose","trial_index":61,"time_elapsed":806549,"internal_node_id":"0.0-61.0"},{"result":159,"points":2,"place":1,"phase":0,"sequence":42,"times":[1137,555,590,658,651,743,707,758,879,1277],"next_num":10,"trial_type":"ticket-choose","trial_index":62,"time_elapsed":818794,"internal_node_id":"0.0-62.0"},{"result":162,"points":1,"place":3,"phase":0,"sequence":43,"times":[1131,774,598,627,757,728,751,1198,796,946],"next_num":10,"trial_type":"ticket-choose","trial_index":63,"time_elapsed":831498,"internal_node_id":"0.0-63.0"},{"result":146,"points":2,"place":1,"phase":0,"sequence":44,"times":[1332,651,613,623,716,684,1209],"next_num":7,"trial_type":"ticket-choose","trial_index":64,"time_elapsed":840975,"internal_node_id":"0.0-64.0"},{"result":153,"points":1,"place":2,"phase":0,"sequence":45,"times":[1019,614,594,627,630,643,734,1419],"next_num":8,"trial_type":"ticket-choose","trial_index":65,"time_elapsed":850828,"internal_node_id":"0.0-65.0"},{"result":192,"points":1,"place":4,"phase":0,"sequence":46,"times":[1135,712,597,625,650,650,660,751,947,1301],"next_num":10,"trial_type":"ticket-choose","trial_index":66,"time_elapsed":863376,"internal_node_id":"0.0-66.0"},{"result":160,"points":1,"place":4,"phase":0,"sequence":47,"times":[2491,613,630,683,689,811,1028,691,733,963],"next_num":10,"trial_type":"ticket-choose","trial_index":67,"time_elapsed":876978,"internal_node_id":"0.0-67.0"},{"result":146,"points":2,"place":1,"phase":0,"sequence":48,"times":[992,1115,2186],"next_num":3,"trial_type":"ticket-choose","trial_index":68,"time_elapsed":884223,"internal_node_id":"0.0-68.0"},{"result":136,"points":2,"place":1,"phase":0,"sequence":49,"times":[935,575,555,669,695,658,1217],"next_num":7,"trial_type":"ticket-choose","trial_index":69,"time_elapsed":893198,"internal_node_id":"0.0-69.0"},{"responses":[{"value":1,"offby":0,"category":"$90 - $120","category_index":0},{"value":3,"offby":0,"category":"$121 - $145","category_index":1},{"value":4,"offby":1,"category":"$146 - $170","category_index":2},{"value":6,"offby":0,"category":"$171 - $195","category_index":3},{"value":4,"offby":0,"category":"$196 - $220","category_index":4},{"value":2,"offby":0,"category":"$221 - $245","category_index":5},{"value":0,"offby":-1,"category":"$246 - $270","category_index":6}],"phase":0,"number":1,"trial_type":"bar-choose","trial_index":70,"time_elapsed":922194,"internal_node_id":"0.0-70.0"},{"rt":5824,"url":"\/tickets\/utils\/start2.html","trial_type":"html","trial_index":71,"time_elapsed":929215,"internal_node_id":"0.0-71.0"},{"trial_type":"number-animation","trial_index":72,"time_elapsed":943917,"internal_node_id":"0.0-72.0"},{"phase":1,"sequence":0,"avg":181,"response":180,"trial_type":"training_avg","trial_index":73,"time_elapsed":952876,"internal_node_id":"0.0-73.0"},{"trial_type":"number-animation","trial_index":74,"time_elapsed":963553,"internal_node_id":"0.0-74.0"},{"phase":1,"sequence":1,"avg":188,"response":177,"trial_type":"training_avg","trial_index":75,"time_elapsed":970627,"internal_node_id":"0.0-75.0"},{"trial_type":"number-animation","trial_index":76,"time_elapsed":981202,"internal_node_id":"0.0-76.0"},{"phase":1,"sequence":2,"avg":188,"response":191,"trial_type":"training_avg","trial_index":77,"time_elapsed":990118,"internal_node_id":"0.0-77.0"},{"trial_type":"number-animation","trial_index":78,"time_elapsed":1001134,"internal_node_id":"0.0-78.0"},{"phase":1,"sequence":3,"avg":177,"response":191,"trial_type":"training_avg","trial_index":79,"time_elapsed":1008329,"internal_node_id":"0.0-79.0"},{"trial_type":"number-animation","trial_index":80,"time_elapsed":1018544,"internal_node_id":"0.0-80.0"},{"phase":1,"sequence":4,"avg":182,"response":174,"trial_type":"training_avg","trial_index":81,"time_elapsed":1025459,"internal_node_id":"0.0-81.0"},{"responses":[{"value":1,"offby":1,"category":"$106 - $134","category_index":0},{"value":3,"offby":2,"category":"$135 - $150","category_index":1},{"value":4,"offby":1,"category":"$151 - $165","category_index":2},{"value":6,"offby":0,"category":"$166 - $180","category_index":3},{"value":4,"offby":-2,"category":"$181 - $195","category_index":4},{"value":2,"offby":-1,"category":"$196 - $210","category_index":5},{"value":0,"offby":-1,"category":"$211 - $225","category_index":6}],"phase":1,"number":0,"trial_type":"bar-choose","trial_index":82,"time_elapsed":1052249,"internal_node_id":"0.0-82.0"},{"rt":8585,"url":"\/tickets\/utils\/testing2.html","trial_type":"html","trial_index":83,"time_elapsed":1062055,"internal_node_id":"0.0-83.0"},{"phase":1,"order":[8,16,47,14,17,45,9,48,18,6,30,41,36,25,4,15,34,29,7,28,26,40,37,23,12,38,44,19,0,32,35,20,42,46,24,10,49,13,11,21,31,3,43,39,5,2,27,33,1,22],"trial_type":"store_order","trial_index":84,"time_elapsed":1063060,"internal_node_id":"0.0-84.0"},{"result":167,"points":2,"place":1,"phase":1,"sequence":0,"times":[2217,623,614,703,689,681,2467],"next_num":7,"trial_type":"ticket-choose","trial_index":85,"time_elapsed":1074733,"internal_node_id":"0.0-85.0"},{"result":179,"points":1,"place":4,"phase":1,"sequence":1,"times":[1425,583,573,518,626,672,973,632,662,1387],"next_num":10,"trial_type":"ticket-choose","trial_index":86,"time_elapsed":1087076,"internal_node_id":"0.0-86.0"},{"result":163,"points":2,"place":1,"phase":1,"sequence":2,"times":[1061,736,562,661,841,659,1815],"next_num":7,"trial_type":"ticket-choose","trial_index":87,"time_elapsed":1097061,"internal_node_id":"0.0-87.0"},{"result":166,"points":1,"place":2,"phase":1,"sequence":3,"times":[941,501,537,576,580,616,672,1670],"next_num":8,"trial_type":"ticket-choose","trial_index":88,"time_elapsed":1107126,"internal_node_id":"0.0-88.0"},{"result":152,"points":3,"place":0,"phase":1,"sequence":4,"times":[814,446,522,586,661,599,1291],"next_num":7,"trial_type":"ticket-choose","trial_index":89,"time_elapsed":1115777,"internal_node_id":"0.0-89.0"},{"result":152,"points":3,"place":0,"phase":1,"sequence":5,"times":[981,629,609,1164],"next_num":4,"trial_type":"ticket-choose","trial_index":90,"time_elapsed":1121954,"internal_node_id":"0.0-90.0"},{"result":170,"points":1,"place":2,"phase":1,"sequence":6,"times":[1044,548,527,535,558,692,650,674,712,810],"next_num":10,"trial_type":"ticket-choose","trial_index":91,"time_elapsed":1132866,"internal_node_id":"0.0-91.0"},{"result":156,"points":3,"place":0,"phase":1,"sequence":7,"times":[1171,736,1250,639,604,701,624,686,725,833],"next_num":10,"trial_type":"ticket-choose","trial_index":92,"time_elapsed":1144867,"internal_node_id":"0.0-92.0"},{"result":157,"points":3,"place":0,"phase":1,"sequence":8,"times":[1456],"next_num":1,"trial_type":"ticket-choose","trial_index":93,"time_elapsed":1148624,"internal_node_id":"0.0-93.0"},{"result":150,"points":3,"place":0,"phase":1,"sequence":9,"times":[1008,1109],"next_num":2,"trial_type":"ticket-choose","trial_index":94,"time_elapsed":1153193,"internal_node_id":"0.0-94.0"},{"result":185,"points":1,"place":4,"phase":1,"sequence":10,"times":[1158,694,603,632,586,618,670,630,688,918],"next_num":10,"trial_type":"ticket-choose","trial_index":95,"time_elapsed":1165029,"internal_node_id":"0.0-95.0"},{"result":159,"points":3,"place":0,"phase":1,"sequence":11,"times":[1334],"next_num":1,"trial_type":"ticket-choose","trial_index":96,"time_elapsed":1168565,"internal_node_id":"0.0-96.0"},{"result":150,"points":3,"place":0,"phase":1,"sequence":12,"times":[1092],"next_num":1,"trial_type":"ticket-choose","trial_index":97,"time_elapsed":1171982,"internal_node_id":"0.0-97.0"},{"result":161,"points":3,"place":0,"phase":1,"sequence":13,"times":[1126],"next_num":1,"trial_type":"ticket-choose","trial_index":98,"time_elapsed":1175314,"internal_node_id":"0.0-98.0"},{"result":170,"points":2,"place":1,"phase":1,"sequence":14,"times":[1056,554,501,850,830,669,672,686,1112,906],"next_num":10,"trial_type":"ticket-choose","trial_index":99,"time_elapsed":1187125,"internal_node_id":"0.0-99.0"},{"result":168,"points":1,"place":2,"phase":1,"sequence":15,"times":[1242],"next_num":1,"trial_type":"ticket-choose","trial_index":100,"time_elapsed":1190558,"internal_node_id":"0.0-100.0"},{"result":165,"points":1,"place":2,"phase":1,"sequence":16,"times":[934,613,675,711,613,609,685,1286],"next_num":8,"trial_type":"ticket-choose","trial_index":101,"time_elapsed":1200473,"internal_node_id":"0.0-101.0"},{"result":141,"points":3,"place":0,"phase":1,"sequence":17,"times":[726,504,530,642,648,1335],"next_num":6,"trial_type":"ticket-choose","trial_index":102,"time_elapsed":1208243,"internal_node_id":"0.0-102.0"},{"result":148,"points":3,"place":0,"phase":1,"sequence":18,"times":[1185],"next_num":1,"trial_type":"ticket-choose","trial_index":103,"time_elapsed":1211597,"internal_node_id":"0.0-103.0"},{"result":152,"points":3,"place":0,"phase":1,"sequence":19,"times":[1216],"next_num":1,"trial_type":"ticket-choose","trial_index":104,"time_elapsed":1214960,"internal_node_id":"0.0-104.0"},{"result":158,"points":3,"place":0,"phase":1,"sequence":20,"times":[1307,662,684,689,995,1297],"next_num":6,"trial_type":"ticket-choose","trial_index":105,"time_elapsed":1223756,"internal_node_id":"0.0-105.0"},{"result":167,"points":2,"place":1,"phase":1,"sequence":21,"times":[750,682,624,721,669,671,1271],"next_num":7,"trial_type":"ticket-choose","trial_index":106,"time_elapsed":1232697,"internal_node_id":"0.0-106.0"},{"result":155,"points":2,"place":1,"phase":1,"sequence":22,"times":[1084,1117],"next_num":2,"trial_type":"ticket-choose","trial_index":107,"time_elapsed":1237130,"internal_node_id":"0.0-107.0"},{"result":148,"points":3,"place":0,"phase":1,"sequence":23,"times":[932,599,698,607,734,1248],"next_num":6,"trial_type":"ticket-choose","trial_index":108,"time_elapsed":1244960,"internal_node_id":"0.0-108.0"},{"result":158,"points":2,"place":1,"phase":1,"sequence":24,"times":[948,696,713,621,662,642,1303],"next_num":7,"trial_type":"ticket-choose","trial_index":109,"time_elapsed":1253855,"internal_node_id":"0.0-109.0"},{"result":156,"points":3,"place":0,"phase":1,"sequence":25,"times":[745,589,502,640,690,626,625,1515,670,958],"next_num":10,"trial_type":"ticket-choose","trial_index":110,"time_elapsed":1265376,"internal_node_id":"0.0-110.0"},{"result":167,"points":2,"place":1,"phase":1,"sequence":26,"times":[818,567,1210],"next_num":3,"trial_type":"ticket-choose","trial_index":111,"time_elapsed":1270557,"internal_node_id":"0.0-111.0"},{"result":166,"points":1,"place":2,"phase":1,"sequence":27,"times":[813,638,604,999,823,603,678,1552],"next_num":8,"trial_type":"ticket-choose","trial_index":112,"time_elapsed":1280822,"internal_node_id":"0.0-112.0"},{"result":163,"points":2,"place":1,"phase":1,"sequence":28,"times":[796,561,1185],"next_num":3,"trial_type":"ticket-choose","trial_index":113,"time_elapsed":1285860,"internal_node_id":"0.0-113.0"},{"result":163,"points":2,"place":1,"phase":1,"sequence":29,"times":[838,517,811,739,658,647,1246],"next_num":7,"trial_type":"ticket-choose","trial_index":114,"time_elapsed":1294564,"internal_node_id":"0.0-114.0"},{"result":158,"points":2,"place":1,"phase":1,"sequence":30,"times":[950,598,650,699,663,654,1212],"next_num":7,"trial_type":"ticket-choose","trial_index":115,"time_elapsed":1303445,"internal_node_id":"0.0-115.0"},{"result":165,"points":1,"place":2,"phase":1,"sequence":31,"times":[1027,554,500,580,652,693,589,1368],"next_num":8,"trial_type":"ticket-choose","trial_index":116,"time_elapsed":1313025,"internal_node_id":"0.0-116.0"},{"result":154,"points":3,"place":0,"phase":1,"sequence":32,"times":[838,552,586,573,581,799,783,1156],"next_num":8,"trial_type":"ticket-choose","trial_index":117,"time_elapsed":1322301,"internal_node_id":"0.0-117.0"},{"result":158,"points":2,"place":1,"phase":1,"sequence":33,"times":[807,626,1162],"next_num":3,"trial_type":"ticket-choose","trial_index":118,"time_elapsed":1327286,"internal_node_id":"0.0-118.0"},{"result":158,"points":2,"place":1,"phase":1,"sequence":34,"times":[1387,700,667,605,608,574,1200],"next_num":7,"trial_type":"ticket-choose","trial_index":119,"time_elapsed":1336376,"internal_node_id":"0.0-119.0"},{"result":156,"points":3,"place":0,"phase":1,"sequence":35,"times":[1335],"next_num":1,"trial_type":"ticket-choose","trial_index":120,"time_elapsed":1339790,"internal_node_id":"0.0-120.0"},{"result":153,"points":3,"place":0,"phase":1,"sequence":36,"times":[1273,636,648,745,714,700,684,689,749,1022],"next_num":10,"trial_type":"ticket-choose","trial_index":121,"time_elapsed":1351620,"internal_node_id":"0.0-121.0"},{"result":158,"points":1,"place":3,"phase":1,"sequence":37,"times":[796,725,536,1217],"next_num":4,"trial_type":"ticket-choose","trial_index":122,"time_elapsed":1357729,"internal_node_id":"0.0-122.0"},{"result":153,"points":3,"place":0,"phase":1,"sequence":38,"times":[880,572,592,702,700,690,679,714,1227],"next_num":9,"trial_type":"ticket-choose","trial_index":123,"time_elapsed":1368303,"internal_node_id":"0.0-123.0"},{"result":153,"points":3,"place":0,"phase":1,"sequence":39,"times":[868,644,628,678,671,1026,761,667,718,813],"next_num":10,"trial_type":"ticket-choose","trial_index":124,"time_elapsed":1379973,"internal_node_id":"0.0-124.0"},{"result":143,"points":3,"place":0,"phase":1,"sequence":40,"times":[2583,683,664,893,1277],"next_num":5,"trial_type":"ticket-choose","trial_index":125,"time_elapsed":1389015,"internal_node_id":"0.0-125.0"},{"result":158,"points":2,"place":1,"phase":1,"sequence":41,"times":[1062,640,1148],"next_num":3,"trial_type":"ticket-choose","trial_index":126,"time_elapsed":1394462,"internal_node_id":"0.0-126.0"},{"result":188,"points":1,"place":4,"phase":1,"sequence":42,"times":[1442,653,874,677,717,765,712,709,795,953],"next_num":10,"trial_type":"ticket-choose","trial_index":127,"time_elapsed":1406733,"internal_node_id":"0.0-127.0"},{"result":158,"points":2,"place":1,"phase":1,"sequence":43,"times":[939,761,1156],"next_num":3,"trial_type":"ticket-choose","trial_index":128,"time_elapsed":1411973,"internal_node_id":"0.0-128.0"},{"result":186,"points":1,"place":4,"phase":1,"sequence":44,"times":[826,905,682,621,686,730,757,753,707,791],"next_num":10,"trial_type":"ticket-choose","trial_index":129,"time_elapsed":1423781,"internal_node_id":"0.0-129.0"},{"result":153,"points":3,"place":0,"phase":1,"sequence":45,"times":[1183,692,669,707,757,828,679,869,900,1233],"next_num":10,"trial_type":"ticket-choose","trial_index":130,"time_elapsed":1436429,"internal_node_id":"0.0-130.0"},{"result":163,"points":2,"place":1,"phase":1,"sequence":46,"times":[1037,715,645,678,781,704,1328],"next_num":7,"trial_type":"ticket-choose","trial_index":131,"time_elapsed":1445678,"internal_node_id":"0.0-131.0"},{"result":154,"points":2,"place":1,"phase":1,"sequence":47,"times":[915,1062],"next_num":2,"trial_type":"ticket-choose","trial_index":132,"time_elapsed":1449931,"internal_node_id":"0.0-132.0"},{"result":171,"points":1,"place":3,"phase":1,"sequence":48,"times":[1176,886,650,728,840,716,768,693,702,1303],"next_num":10,"trial_type":"ticket-choose","trial_index":133,"time_elapsed":1462307,"internal_node_id":"0.0-133.0"},{"result":158,"points":2,"place":1,"phase":1,"sequence":49,"times":[1052,688,797,667,761,660,1204],"next_num":7,"trial_type":"ticket-choose","trial_index":134,"time_elapsed":1471523,"internal_node_id":"0.0-134.0"},{"responses":[{"value":1,"offby":1,"category":"$106 - $134","category_index":0},{"value":3,"offby":2,"category":"$135 - $150","category_index":1},{"value":4,"offby":1,"category":"$151 - $165","category_index":2},{"value":6,"offby":0,"category":"$166 - $180","category_index":3},{"value":4,"offby":-2,"category":"$181 - $195","category_index":4},{"value":2,"offby":-1,"category":"$196 - $210","category_index":5},{"value":0,"offby":-1,"category":"$211 - $225","category_index":6}],"phase":1,"number":1,"trial_type":"bar-choose","trial_index":135,"time_elapsed":1495467,"internal_node_id":"0.0-135.0"},{"special_comment":"no","trial_type":"special_sequence","trial_index":136,"time_elapsed":1500856,"internal_node_id":"0.0-136.0"},{"during":"Nothing","bonus":292,"trial_type":"final","trial_index":137,"time_elapsed":1526639,"internal_node_id":"0.0-137.0"}],"bonus":292}