{"start_time":"2017-02-21 11:32:05","end_time":"2017-02-21 12:02:12","points_phase0":100,"points_phase1":101,"phase_order":1,"age":29,"gender":"m","tries":1,"during":"Nothing","worker_id":"A273DS7TQWR9M1","assignment_id":"3PWWM24LHTRIMHIPCRUKASFPXOX289","data":[{"rt":5568,"url":"\/tickets\/utils\/consent.html","trial_type":"html","trial_index":0,"time_elapsed":5763,"internal_node_id":"0.0-0.0"},{"age":29,"gender":"m","trial_type":"age","trial_index":1,"time_elapsed":13291,"internal_node_id":"0.0-1.0"},{"worker_id":"A273DS7TQWR9M1","trial_type":"workerid","trial_index":2,"time_elapsed":27377,"internal_node_id":"0.0-2.0"},{"tries":1,"trial_type":"instructions_check","trial_index":3,"time_elapsed":71396,"internal_node_id":"0.0-3.0"},{"rt":16569,"url":"\/tickets\/utils\/start.html","trial_type":"html","trial_index":4,"time_elapsed":89073,"internal_node_id":"0.0-4.0"},{"trial_type":"number-animation","trial_index":5,"time_elapsed":101313,"internal_node_id":"0.0-5.0"},{"phase":0,"sequence":0,"avg":182,"response":175,"trial_type":"training_avg","trial_index":6,"time_elapsed":112837,"internal_node_id":"0.0-6.0"},{"trial_type":"number-animation","trial_index":7,"time_elapsed":157216,"internal_node_id":"0.0-7.0"},{"phase":0,"sequence":1,"avg":188,"response":180,"trial_type":"training_avg","trial_index":8,"time_elapsed":173556,"internal_node_id":"0.0-8.0"},{"trial_type":"number-animation","trial_index":9,"time_elapsed":212560,"internal_node_id":"0.0-9.0"},{"phase":0,"sequence":2,"avg":176,"response":175,"trial_type":"training_avg","trial_index":10,"time_elapsed":224695,"internal_node_id":"0.0-10.0"},{"trial_type":"number-animation","trial_index":11,"time_elapsed":252592,"internal_node_id":"0.0-11.0"},{"phase":0,"sequence":3,"avg":180,"response":181,"trial_type":"training_avg","trial_index":12,"time_elapsed":265004,"internal_node_id":"0.0-12.0"},{"trial_type":"number-animation","trial_index":13,"time_elapsed":290564,"internal_node_id":"0.0-13.0"},{"phase":0,"sequence":4,"avg":174,"response":174,"trial_type":"training_avg","trial_index":14,"time_elapsed":301628,"internal_node_id":"0.0-14.0"},{"responses":[{"value":1,"offby":0,"category":"$90 - $120","category_index":0},{"value":1,"offby":-2,"category":"$121 - $145","category_index":1},{"value":3,"offby":0,"category":"$146 - $170","category_index":2},{"value":12,"offby":6,"category":"$171 - $195","category_index":3},{"value":3,"offby":-1,"category":"$196 - $220","category_index":4},{"value":0,"offby":-2,"category":"$221 - $245","category_index":5},{"value":0,"offby":-1,"category":"$246 - $270","category_index":6}],"phase":0,"number":0,"trial_type":"bar-choose","trial_index":15,"time_elapsed":376780,"internal_node_id":"0.0-15.0"},{"rt":21382,"url":"\/tickets\/\/utils\/testing.html","trial_type":"html","trial_index":16,"time_elapsed":399333,"internal_node_id":"0.0-16.0"},{"phase":0,"order":[12,0,26,34,9,22,24,40,5,33,15,2,20,45,17,6,47,42,32,41,19,46,35,8,27,14,21,37,29,36,30,1,23,11,28,31,25,18,43,16,49,3,13,38,10,7,44,4,39,48],"trial_type":"store_order","trial_index":17,"time_elapsed":400334,"internal_node_id":"0.0-17.0"},{"result":126,"points":3,"place":0,"phase":0,"sequence":-1,"prices":[184,180,224,165,181,199,185,193,218,126],"times":[3613,1002,547,524,588,594,526,547,875,2821],"next_num":10,"trial_type":"ticket-choose","trial_index":18,"time_elapsed":416151,"internal_node_id":"0.0-18.0"},{"rt":22662,"url":"\/tickets\/utils\/testing_after.html","trial_type":"html","trial_index":19,"time_elapsed":439945,"internal_node_id":"0.0-19.0"},{"result":126,"points":3,"place":0,"phase":0,"sequence":0,"prices":[169,193,154,255,178,194,176,158,239,126],"times":[2010,590,450,421,430,488,2431,552,544,1133],"next_num":10,"trial_type":"ticket-choose","trial_index":20,"time_elapsed":453703,"internal_node_id":"0.0-20.0"},{"result":162,"points":1,"place":3,"phase":0,"sequence":1,"prices":[197,153,181,215,150,155,164,247,177,162],"times":[939,390,309,299,322,342,430,740,417,531],"next_num":11,"trial_type":"ticket-choose","trial_index":21,"time_elapsed":463834,"internal_node_id":"0.0-21.0"},{"result":196,"points":1,"place":4,"phase":0,"sequence":2,"prices":[143,206,153,194,201,267,168,208,210,196],"times":[1146,513,628,528,659,513,672,553,765,905],"next_num":11,"trial_type":"ticket-choose","trial_index":22,"time_elapsed":475662,"internal_node_id":"0.0-22.0"},{"result":146,"points":1,"place":2,"phase":0,"sequence":3,"prices":[186,146,191,179,152,116,140,201,172,187],"times":[897,1540],"next_num":2,"trial_type":"ticket-choose","trial_index":23,"time_elapsed":481106,"internal_node_id":"0.0-23.0"},{"result":146,"points":2,"place":1,"phase":0,"sequence":4,"prices":[168,191,172,240,183,193,146,151,125,238],"times":[871,518,535,538,652,605,920],"next_num":7,"trial_type":"ticket-choose","trial_index":24,"time_elapsed":488934,"internal_node_id":"0.0-24.0"},{"result":136,"points":2,"place":1,"phase":0,"sequence":5,"prices":[172,190,136,270,179,192,174,152,237,129],"times":[703,499,880],"next_num":3,"trial_type":"ticket-choose","trial_index":25,"time_elapsed":493422,"internal_node_id":"0.0-25.0"},{"result":136,"points":2,"place":1,"phase":0,"sequence":6,"prices":[171,192,136,243,182,195,174,154,236,128],"times":[831,437,915],"next_num":3,"trial_type":"ticket-choose","trial_index":26,"time_elapsed":497852,"internal_node_id":"0.0-26.0"},{"result":158,"points":1,"place":2,"phase":0,"sequence":7,"prices":[169,194,154,271,178,201,176,158,236,127],"times":[869,484,848,588,576,572,1109,934],"next_num":8,"trial_type":"ticket-choose","trial_index":27,"time_elapsed":507139,"internal_node_id":"0.0-27.0"},{"result":108,"points":3,"place":0,"phase":0,"sequence":8,"prices":[155,129,164,189,210,108,187,241,174,275],"times":[895,513,644,605,596,826],"next_num":6,"trial_type":"ticket-choose","trial_index":28,"time_elapsed":514176,"internal_node_id":"0.0-28.0"},{"result":135,"points":3,"place":0,"phase":0,"sequence":9,"prices":[135,202,150,169,183,225,160,211,220,172],"times":[1988],"next_num":1,"trial_type":"ticket-choose","trial_index":29,"time_elapsed":519124,"internal_node_id":"0.0-29.0"},{"result":189,"points":1,"place":4,"phase":0,"sequence":10,"prices":[157,213,159,187,194,242,161,222,225,189],"times":[815,610,541,494,530,515,974,561,528,716],"next_num":11,"trial_type":"ticket-choose","trial_index":30,"time_elapsed":529185,"internal_node_id":"0.0-30.0"},{"result":132,"points":1,"place":2,"phase":0,"sequence":11,"prices":[221,234,131,136,132,149,154,90,176,173],"times":[831,413,426,720,996],"next_num":5,"trial_type":"ticket-choose","trial_index":31,"time_elapsed":535287,"internal_node_id":"0.0-31.0"},{"result":136,"points":3,"place":0,"phase":0,"sequence":12,"prices":[240,188,273,207,250,136,217,170,171,236],"times":[706,616,551,709,561,866],"next_num":6,"trial_type":"ticket-choose","trial_index":32,"time_elapsed":542167,"internal_node_id":"0.0-32.0"},{"result":158,"points":1,"place":3,"phase":0,"sequence":13,"prices":[216,206,158,145,224,185,124,149,175,162],"times":[1545,701,980],"next_num":3,"trial_type":"ticket-choose","trial_index":33,"time_elapsed":547611,"internal_node_id":"0.0-33.0"},{"result":154,"points":2,"place":1,"phase":0,"sequence":14,"prices":[168,192,154,237,182,196,176,156,235,133],"times":[639,545,1064],"next_num":3,"trial_type":"ticket-choose","trial_index":34,"time_elapsed":552174,"internal_node_id":"0.0-34.0"},{"result":136,"points":2,"place":1,"phase":0,"sequence":15,"prices":[198,119,169,141,195,233,136,208,177,217],"times":[696,764,542,912,581,615,1325],"next_num":7,"trial_type":"ticket-choose","trial_index":35,"time_elapsed":560668,"internal_node_id":"0.0-35.0"},{"result":165,"points":1,"place":2,"phase":0,"sequence":16,"prices":[157,205,161,175,197,254,165,210,214,192],"times":[1774,534,873,560,610,575,2189],"next_num":7,"trial_type":"ticket-choose","trial_index":36,"time_elapsed":570906,"internal_node_id":"0.0-36.0"},{"result":146,"points":3,"place":0,"phase":0,"sequence":17,"prices":[156,218,212,216,191,210,275,146,174,152],"times":[1215,528,616,572,732,566,547,1003],"next_num":8,"trial_type":"ticket-choose","trial_index":37,"time_elapsed":579996,"internal_node_id":"0.0-37.0"},{"result":160,"points":1,"place":4,"phase":0,"sequence":18,"prices":[137,187,152,156,166,231,155,194,202,160],"times":[1586,594,924,572,513,551,1445,584,607,1034],"next_num":11,"trial_type":"ticket-choose","trial_index":38,"time_elapsed":592417,"internal_node_id":"0.0-38.0"},{"result":124,"points":3,"place":0,"phase":0,"sequence":19,"prices":[124,220,136,165,185,234,143,225,228,179],"times":[1865],"next_num":1,"trial_type":"ticket-choose","trial_index":39,"time_elapsed":596809,"internal_node_id":"0.0-39.0"},{"result":154,"points":2,"place":1,"phase":0,"sequence":20,"prices":[168,192,176,242,183,197,154,156,237,132],"times":[968,537,757,570,690,647,910],"next_num":7,"trial_type":"ticket-choose","trial_index":40,"time_elapsed":604957,"internal_node_id":"0.0-40.0"},{"result":146,"points":2,"place":1,"phase":0,"sequence":21,"prices":[168,191,146,252,183,193,172,153,126,238],"times":[1346,520,872],"next_num":3,"trial_type":"ticket-choose","trial_index":41,"time_elapsed":609893,"internal_node_id":"0.0-41.0"},{"result":154,"points":2,"place":1,"phase":0,"sequence":22,"prices":[170,193,176,245,178,194,154,159,236,126],"times":[1072,500,752,552,716,689,1237],"next_num":7,"trial_type":"ticket-choose","trial_index":42,"time_elapsed":618445,"internal_node_id":"0.0-42.0"},{"result":136,"points":2,"place":1,"phase":0,"sequence":23,"prices":[172,194,174,243,182,193,136,150,237,126],"times":[1072,518,608,599,753,806,996],"next_num":7,"trial_type":"ticket-choose","trial_index":43,"time_elapsed":626904,"internal_node_id":"0.0-43.0"},{"result":154,"points":2,"place":1,"phase":0,"sequence":24,"prices":[244,203,196,189,154,206,197,149,171,159],"times":[702,522,652,657,989],"next_num":5,"trial_type":"ticket-choose","trial_index":44,"time_elapsed":633047,"internal_node_id":"0.0-44.0"},{"result":146,"points":2,"place":1,"phase":0,"sequence":25,"prices":[171,195,172,242,179,196,146,150,128,235],"times":[759,494,787,556,744,672,871],"next_num":7,"trial_type":"ticket-choose","trial_index":45,"time_elapsed":641432,"internal_node_id":"0.0-45.0"},{"result":136,"points":2,"place":1,"phase":0,"sequence":26,"prices":[171,192,136,265,180,194,174,152,239,127],"times":[943,787,873],"next_num":3,"trial_type":"ticket-choose","trial_index":46,"time_elapsed":646238,"internal_node_id":"0.0-46.0"},{"result":142,"points":3,"place":0,"phase":0,"sequence":27,"prices":[142,207,171,182,190,269,180,218,256,188],"times":[1907],"next_num":1,"trial_type":"ticket-choose","trial_index":47,"time_elapsed":649957,"internal_node_id":"0.0-47.0"},{"result":130,"points":2,"place":1,"phase":0,"sequence":28,"prices":[181,130,116,142,157,193,165,218,173,207],"times":[928,812],"next_num":2,"trial_type":"ticket-choose","trial_index":48,"time_elapsed":653734,"internal_node_id":"0.0-48.0"},{"result":124,"points":3,"place":0,"phase":0,"sequence":29,"prices":[219,183,227,124,176,161,140,129,171,201],"times":[739,872,560,788],"next_num":4,"trial_type":"ticket-choose","trial_index":49,"time_elapsed":659199,"internal_node_id":"0.0-49.0"},{"result":136,"points":2,"place":1,"phase":0,"sequence":30,"prices":[169,192,174,246,180,195,136,152,238,126],"times":[971,539,603,591,709,599,848],"next_num":7,"trial_type":"ticket-choose","trial_index":50,"time_elapsed":667085,"internal_node_id":"0.0-50.0"},{"result":135,"points":3,"place":0,"phase":0,"sequence":31,"prices":[221,193,135,188,217,179,196,190,175,159],"times":[784,719,806],"next_num":3,"trial_type":"ticket-choose","trial_index":51,"time_elapsed":671488,"internal_node_id":"0.0-51.0"},{"result":132,"points":3,"place":0,"phase":0,"sequence":32,"prices":[132,222,144,153,190,248,151,224,228,179],"times":[946],"next_num":1,"trial_type":"ticket-choose","trial_index":52,"time_elapsed":674069,"internal_node_id":"0.0-52.0"},{"result":170,"points":1,"place":3,"phase":0,"sequence":33,"prices":[170,190,176,251,183,192,154,157,236,131],"times":[1230],"next_num":1,"trial_type":"ticket-choose","trial_index":53,"time_elapsed":677140,"internal_node_id":"0.0-53.0"},{"result":136,"points":2,"place":1,"phase":0,"sequence":34,"prices":[173,194,136,239,182,200,174,150,236,127],"times":[747,560,794],"next_num":3,"trial_type":"ticket-choose","trial_index":54,"time_elapsed":681325,"internal_node_id":"0.0-54.0"},{"result":159,"points":2,"place":1,"phase":0,"sequence":35,"prices":[182,249,159,114,184,205,175,189,172,178],"times":[987,571,818],"next_num":3,"trial_type":"ticket-choose","trial_index":55,"time_elapsed":685945,"internal_node_id":"0.0-55.0"},{"result":118,"points":2,"place":1,"phase":0,"sequence":36,"prices":[181,138,118,170,190,101,146,169,175,233],"times":[746,461,831],"next_num":3,"trial_type":"ticket-choose","trial_index":56,"time_elapsed":690077,"internal_node_id":"0.0-56.0"},{"result":154,"points":2,"place":1,"phase":0,"sequence":37,"prices":[169,191,154,268,183,197,176,155,236,133],"times":[812,595,884],"next_num":3,"trial_type":"ticket-choose","trial_index":57,"time_elapsed":694462,"internal_node_id":"0.0-57.0"},{"result":146,"points":2,"place":1,"phase":0,"sequence":38,"prices":[172,191,176,272,179,194,146,152,126,235],"times":[877,593,569,569,631,735,861],"next_num":7,"trial_type":"ticket-choose","trial_index":58,"time_elapsed":702268,"internal_node_id":"0.0-58.0"},{"result":170,"points":1,"place":3,"phase":0,"sequence":39,"prices":[170,192,174,242,181,196,136,153,236,128],"times":[1511],"next_num":1,"trial_type":"ticket-choose","trial_index":59,"time_elapsed":705613,"internal_node_id":"0.0-59.0"},{"result":165,"points":2,"place":1,"phase":0,"sequence":40,"prices":[263,165,224,214,105,230,215,185,177,193],"times":[701,877],"next_num":2,"trial_type":"ticket-choose","trial_index":60,"time_elapsed":709165,"internal_node_id":"0.0-60.0"},{"result":171,"points":1,"place":3,"phase":0,"sequence":41,"prices":[171,191,172,268,179,194,146,150,127,239],"times":[1135],"next_num":1,"trial_type":"ticket-choose","trial_index":61,"time_elapsed":712096,"internal_node_id":"0.0-61.0"},{"result":146,"points":2,"place":1,"phase":0,"sequence":42,"prices":[170,193,146,268,178,195,172,149,126,241],"times":[1411,549,1276],"next_num":3,"trial_type":"ticket-choose","trial_index":62,"time_elapsed":717432,"internal_node_id":"0.0-62.0"},{"result":146,"points":2,"place":1,"phase":0,"sequence":43,"prices":[169,193,146,237,180,196,172,150,129,236],"times":[760,558,928],"next_num":3,"trial_type":"ticket-choose","trial_index":63,"time_elapsed":721772,"internal_node_id":"0.0-63.0"},{"result":149,"points":2,"place":1,"phase":0,"sequence":44,"prices":[196,221,149,164,216,167,175,128,176,181],"times":[1106,647,948],"next_num":3,"trial_type":"ticket-choose","trial_index":64,"time_elapsed":726676,"internal_node_id":"0.0-64.0"},{"result":154,"points":2,"place":1,"phase":0,"sequence":45,"prices":[169,192,176,244,178,194,154,159,237,125],"times":[1308,553,635,568,749,729,864],"next_num":7,"trial_type":"ticket-choose","trial_index":65,"time_elapsed":735120,"internal_node_id":"0.0-65.0"},{"result":136,"points":2,"place":1,"phase":0,"sequence":46,"prices":[173,191,174,270,180,193,136,153,239,129],"times":[837,637,555,597,655,702,1008],"next_num":7,"trial_type":"ticket-choose","trial_index":66,"time_elapsed":743213,"internal_node_id":"0.0-66.0"},{"result":146,"points":2,"place":1,"phase":0,"sequence":47,"prices":[173,191,146,242,178,194,172,152,126,235],"times":[706,474,815],"next_num":3,"trial_type":"ticket-choose","trial_index":67,"time_elapsed":747316,"internal_node_id":"0.0-67.0"},{"result":117,"points":3,"place":0,"phase":0,"sequence":48,"prices":[117,161,120,147,153,259,144,191,195,149],"times":[1121],"next_num":1,"trial_type":"ticket-choose","trial_index":68,"time_elapsed":750445,"internal_node_id":"0.0-68.0"},{"result":121,"points":3,"place":0,"phase":0,"sequence":49,"prices":[121,191,128,141,166,217,129,196,202,157],"times":[1079],"next_num":1,"trial_type":"ticket-choose","trial_index":69,"time_elapsed":753604,"internal_node_id":"0.0-69.0"},{"responses":[{"value":1,"offby":0,"category":"$90 - $120","category_index":0},{"value":5,"offby":2,"category":"$121 - $145","category_index":1},{"value":5,"offby":2,"category":"$146 - $170","category_index":2},{"value":6,"offby":0,"category":"$171 - $195","category_index":3},{"value":3,"offby":-1,"category":"$196 - $220","category_index":4},{"value":0,"offby":-2,"category":"$221 - $245","category_index":5},{"value":0,"offby":-1,"category":"$246 - $270","category_index":6}],"phase":0,"number":1,"trial_type":"bar-choose","trial_index":70,"time_elapsed":781219,"internal_node_id":"0.0-70.0"},{"rt":10219,"url":"\/tickets\/utils\/start2.html","trial_type":"html","trial_index":71,"time_elapsed":792555,"internal_node_id":"0.0-71.0"},{"trial_type":"number-animation","trial_index":72,"time_elapsed":800926,"internal_node_id":"0.0-72.0"},{"phase":1,"sequence":0,"avg":181,"response":180,"trial_type":"training_avg","trial_index":73,"time_elapsed":807229,"internal_node_id":"0.0-73.0"},{"trial_type":"number-animation","trial_index":74,"time_elapsed":814519,"internal_node_id":"0.0-74.0"},{"phase":1,"sequence":1,"avg":188,"response":180,"trial_type":"training_avg","trial_index":75,"time_elapsed":821774,"internal_node_id":"0.0-75.0"},{"trial_type":"number-animation","trial_index":76,"time_elapsed":828836,"internal_node_id":"0.0-76.0"},{"phase":1,"sequence":2,"avg":188,"response":178,"trial_type":"training_avg","trial_index":77,"time_elapsed":835447,"internal_node_id":"0.0-77.0"},{"trial_type":"number-animation","trial_index":78,"time_elapsed":843385,"internal_node_id":"0.0-78.0"},{"phase":1,"sequence":3,"avg":177,"response":188,"trial_type":"training_avg","trial_index":79,"time_elapsed":850109,"internal_node_id":"0.0-79.0"},{"trial_type":"number-animation","trial_index":80,"time_elapsed":857489,"internal_node_id":"0.0-80.0"},{"phase":1,"sequence":4,"avg":182,"response":176,"trial_type":"training_avg","trial_index":81,"time_elapsed":862521,"internal_node_id":"0.0-81.0"},{"responses":[{"value":0,"offby":0,"category":"$106 - $134","category_index":0},{"value":5,"offby":4,"category":"$135 - $150","category_index":1},{"value":5,"offby":2,"category":"$151 - $165","category_index":2},{"value":8,"offby":2,"category":"$166 - $180","category_index":3},{"value":2,"offby":-4,"category":"$181 - $195","category_index":4},{"value":0,"offby":-3,"category":"$196 - $210","category_index":5},{"value":0,"offby":-1,"category":"$211 - $225","category_index":6}],"phase":1,"number":0,"trial_type":"bar-choose","trial_index":82,"time_elapsed":884952,"internal_node_id":"0.0-82.0"},{"rt":13314,"url":"\/tickets\/utils\/testing2.html","trial_type":"html","trial_index":83,"time_elapsed":899378,"internal_node_id":"0.0-83.0"},{"phase":1,"order":[10,39,32,49,6,19,17,11,35,30,28,41,46,37,8,40,27,38,33,26,12,2,15,22,45,5,16,24,34,47,20,43,25,13,18,48,44,9,4,21,42,7,3,1,36,14,23,0,31,29],"trial_type":"store_order","trial_index":84,"time_elapsed":900383,"internal_node_id":"0.0-84.0"},{"result":167,"points":2,"place":1,"phase":1,"sequence":0,"prices":[174,186,178,217,181,188,167,168,208,156],"times":[528264,506,581,582,732,698,938],"next_num":7,"trial_type":"ticket-choose","trial_index":85,"time_elapsed":1436025,"internal_node_id":"0.0-85.0"},{"result":163,"points":2,"place":1,"phase":1,"sequence":1,"prices":[176,186,163,214,179,187,176,166,153,208],"times":[2610,482,889],"next_num":3,"trial_type":"ticket-choose","trial_index":86,"time_elapsed":1442239,"internal_node_id":"0.0-86.0"},{"result":152,"points":3,"place":0,"phase":1,"sequence":2,"prices":[152,200,158,173,182,207,161,202,204,180],"times":[2371],"next_num":1,"trial_type":"ticket-choose","trial_index":87,"time_elapsed":1446492,"internal_node_id":"0.0-87.0"},{"result":155,"points":2,"place":1,"phase":1,"sequence":3,"prices":[181,155,148,161,168,187,172,199,176,194],"times":[699,807],"next_num":2,"trial_type":"ticket-choose","trial_index":88,"time_elapsed":1450089,"internal_node_id":"0.0-88.0"},{"result":167,"points":2,"place":1,"phase":1,"sequence":4,"prices":[175,185,167,224,181,186,178,168,208,156],"times":[1057,482,734],"next_num":3,"trial_type":"ticket-choose","trial_index":89,"time_elapsed":1454573,"internal_node_id":"0.0-89.0"},{"result":158,"points":2,"place":1,"phase":1,"sequence":5,"prices":[176,187,177,225,181,187,158,165,208,153],"times":[1347,543,505,573,666,524,854],"next_num":7,"trial_type":"ticket-choose","trial_index":90,"time_elapsed":1462624,"internal_node_id":"0.0-90.0"},{"result":180,"points":1,"place":2,"phase":1,"sequence":6,"prices":[161,193,175,181,185,224,180,199,218,184],"times":[1836,531,556,648,765,587,982],"next_num":7,"trial_type":"ticket-choose","trial_index":91,"time_elapsed":1471605,"internal_node_id":"0.0-91.0"},{"result":150,"points":3,"place":0,"phase":1,"sequence":7,"prices":[189,150,175,160,188,207,158,194,178,199],"times":[874,805],"next_num":2,"trial_type":"ticket-choose","trial_index":92,"time_elapsed":1475267,"internal_node_id":"0.0-92.0"},{"result":163,"points":2,"place":1,"phase":1,"sequence":8,"prices":[175,187,176,209,180,188,163,165,154,208],"times":[953,567,827,602,872,579,871],"next_num":7,"trial_type":"ticket-choose","trial_index":93,"time_elapsed":1483588,"internal_node_id":"0.0-93.0"},{"result":159,"points":3,"place":0,"phase":1,"sequence":9,"prices":[159,183,166,168,173,205,167,187,191,170],"times":[867],"next_num":1,"trial_type":"ticket-choose","trial_index":94,"time_elapsed":1486308,"internal_node_id":"0.0-94.0"},{"result":175,"points":1,"place":3,"phase":1,"sequence":10,"prices":[175,187,178,209,179,187,167,169,208,153],"times":[952],"next_num":1,"trial_type":"ticket-choose","trial_index":95,"time_elapsed":1489068,"internal_node_id":"0.0-95.0"},{"result":174,"points":1,"place":3,"phase":1,"sequence":11,"prices":[174,186,163,212,181,187,176,166,153,209],"times":[1245],"next_num":1,"trial_type":"ticket-choose","trial_index":96,"time_elapsed":1492147,"internal_node_id":"0.0-96.0"},{"result":175,"points":1,"place":3,"phase":1,"sequence":12,"prices":[175,186,177,221,180,187,158,166,209,153],"times":[1004],"next_num":1,"trial_type":"ticket-choose","trial_index":97,"time_elapsed":1494983,"internal_node_id":"0.0-97.0"},{"result":167,"points":2,"place":1,"phase":1,"sequence":13,"prices":[212,192,188,184,167,193,189,164,176,170],"times":[783,633,569,567,817],"next_num":5,"trial_type":"ticket-choose","trial_index":98,"time_elapsed":1500921,"internal_node_id":"0.0-98.0"},{"result":158,"points":2,"place":1,"phase":1,"sequence":14,"prices":[175,186,158,209,181,188,177,167,208,154],"times":[873,536,806],"next_num":3,"trial_type":"ticket-choose","trial_index":99,"time_elapsed":1505401,"internal_node_id":"0.0-99.0"},{"result":163,"points":2,"place":1,"phase":1,"sequence":15,"prices":[174,186,176,217,181,187,163,166,153,209],"times":[1014,491,708,586,802,542,788],"next_num":7,"trial_type":"ticket-choose","trial_index":100,"time_elapsed":1513481,"internal_node_id":"0.0-100.0"},{"result":152,"points":3,"place":0,"phase":1,"sequence":16,"prices":[200,181,203,152,175,171,160,154,176,191],"times":[680,953,528,876],"next_num":4,"trial_type":"ticket-choose","trial_index":101,"time_elapsed":1518969,"internal_node_id":"0.0-101.0"},{"result":143,"points":3,"place":0,"phase":1,"sequence":17,"prices":[222,173,202,197,143,205,198,183,178,186],"times":[823,551,550,576,891],"next_num":5,"trial_type":"ticket-choose","trial_index":102,"time_elapsed":1525045,"internal_node_id":"0.0-102.0"},{"result":188,"points":1,"place":4,"phase":1,"sequence":18,"prices":[161,193,167,187,190,224,174,194,195,188],"times":[1216,516,671,577,557,549,980,691,695,3725],"next_num":10,"trial_type":"ticket-choose","trial_index":103,"time_elapsed":1539416,"internal_node_id":"0.0-103.0"},{"result":155,"points":2,"place":1,"phase":1,"sequence":19,"prices":[201,207,155,158,156,165,167,135,178,177],"times":[681,526,905],"next_num":3,"trial_type":"ticket-choose","trial_index":104,"time_elapsed":1543737,"internal_node_id":"0.0-104.0"},{"result":158,"points":2,"place":1,"phase":1,"sequence":20,"prices":[176,185,158,217,180,186,177,166,209,154],"times":[713,550,756],"next_num":3,"trial_type":"ticket-choose","trial_index":105,"time_elapsed":1547971,"internal_node_id":"0.0-105.0"},{"result":158,"points":3,"place":0,"phase":1,"sequence":21,"prices":[210,184,226,193,215,158,199,175,176,208],"times":[661,784,544,671,589,866],"next_num":6,"trial_type":"ticket-choose","trial_index":106,"time_elapsed":1554971,"internal_node_id":"0.0-106.0"},{"result":144,"points":3,"place":0,"phase":1,"sequence":22,"prices":[168,154,172,185,195,144,184,211,177,227],"times":[1207,447,703,606,541,903],"next_num":6,"trial_type":"ticket-choose","trial_index":107,"time_elapsed":1562230,"internal_node_id":"0.0-107.0"},{"result":174,"points":1,"place":3,"phase":1,"sequence":23,"prices":[174,186,167,211,181,188,178,168,208,156],"times":[1754],"next_num":1,"trial_type":"ticket-choose","trial_index":108,"time_elapsed":1566276,"internal_node_id":"0.0-108.0"},{"result":186,"points":1,"place":4,"phase":1,"sequence":24,"prices":[168,192,171,178,188,217,172,195,197,186],"times":[1388,730,534,548,591,559,646,571,698,766],"next_num":11,"trial_type":"ticket-choose","trial_index":109,"time_elapsed":1577364,"internal_node_id":"0.0-109.0"},{"result":167,"points":2,"place":1,"phase":1,"sequence":25,"prices":[175,186,178,212,179,187,167,169,209,153],"times":[1022,514,589,635,620,571,818],"next_num":7,"trial_type":"ticket-choose","trial_index":110,"time_elapsed":1585243,"internal_node_id":"0.0-110.0"},{"result":158,"points":2,"place":1,"phase":1,"sequence":26,"prices":[175,186,177,209,181,188,158,167,208,154],"times":[1096,469,702,613,691,537,771],"next_num":7,"trial_type":"ticket-choose","trial_index":111,"time_elapsed":1593208,"internal_node_id":"0.0-111.0"},{"result":169,"points":1,"place":3,"phase":1,"sequence":27,"prices":[198,193,169,163,202,182,152,164,177,171],"times":[649,482,922],"next_num":3,"trial_type":"ticket-choose","trial_index":112,"time_elapsed":1597390,"internal_node_id":"0.0-112.0"},{"result":150,"points":3,"place":0,"phase":1,"sequence":28,"prices":[150,185,154,161,173,199,155,188,191,168],"times":[1158],"next_num":1,"trial_type":"ticket-choose","trial_index":113,"time_elapsed":1600460,"internal_node_id":"0.0-113.0"},{"result":165,"points":2,"place":1,"phase":1,"sequence":29,"prices":[188,200,165,172,198,174,177,154,177,180],"times":[1166,536,863],"next_num":3,"trial_type":"ticket-choose","trial_index":114,"time_elapsed":1605259,"internal_node_id":"0.0-114.0"},{"result":157,"points":3,"place":0,"phase":1,"sequence":30,"prices":[157,191,165,175,182,203,170,195,200,176],"times":[956],"next_num":1,"trial_type":"ticket-choose","trial_index":115,"time_elapsed":1607992,"internal_node_id":"0.0-115.0"},{"result":175,"points":1,"place":3,"phase":1,"sequence":31,"prices":[175,187,163,209,180,188,176,165,154,208],"times":[1025],"next_num":1,"trial_type":"ticket-choose","trial_index":116,"time_elapsed":1610800,"internal_node_id":"0.0-116.0"},{"result":158,"points":2,"place":1,"phase":1,"sequence":32,"prices":[176,185,177,218,180,186,158,166,209,154],"times":[1001,593,684,586,752,601,745],"next_num":7,"trial_type":"ticket-choose","trial_index":117,"time_elapsed":1618781,"internal_node_id":"0.0-117.0"},{"result":167,"points":2,"place":1,"phase":1,"sequence":33,"prices":[175,187,167,212,179,187,178,169,208,153],"times":[1073,489,782],"next_num":3,"trial_type":"ticket-choose","trial_index":118,"time_elapsed":1623304,"internal_node_id":"0.0-118.0"},{"result":169,"points":3,"place":0,"phase":1,"sequence":34,"prices":[169,196,170,184,187,211,171,201,202,185],"times":[1185],"next_num":1,"trial_type":"ticket-choose","trial_index":119,"time_elapsed":1626273,"internal_node_id":"0.0-119.0"},{"result":148,"points":3,"place":0,"phase":1,"sequence":35,"prices":[148,171,150,163,167,220,162,186,187,165],"times":[862],"next_num":1,"trial_type":"ticket-choose","trial_index":120,"time_elapsed":1628862,"internal_node_id":"0.0-120.0"},{"result":156,"points":3,"place":0,"phase":1,"sequence":36,"prices":[156,201,162,166,185,214,165,202,204,179],"times":[735],"next_num":1,"trial_type":"ticket-choose","trial_index":121,"time_elapsed":1631497,"internal_node_id":"0.0-121.0"},{"result":176,"points":1,"place":3,"phase":1,"sequence":37,"prices":[176,187,158,210,181,187,177,165,208,153],"times":[841],"next_num":1,"trial_type":"ticket-choose","trial_index":122,"time_elapsed":1634200,"internal_node_id":"0.0-122.0"},{"result":157,"points":3,"place":0,"phase":1,"sequence":38,"prices":[201,187,157,184,198,179,188,185,178,170],"times":[1027,653,787],"next_num":3,"trial_type":"ticket-choose","trial_index":123,"time_elapsed":1639250,"internal_node_id":"0.0-123.0"},{"result":158,"points":2,"place":1,"phase":1,"sequence":39,"prices":[175,186,158,211,180,187,177,166,209,153],"times":[1195,512,814],"next_num":3,"trial_type":"ticket-choose","trial_index":124,"time_elapsed":1643937,"internal_node_id":"0.0-124.0"},{"result":163,"points":1,"place":2,"phase":1,"sequence":40,"prices":[183,163,185,180,166,148,160,186,176,184],"times":[688,855],"next_num":2,"trial_type":"ticket-choose","trial_index":125,"time_elapsed":1647713,"internal_node_id":"0.0-125.0"},{"result":163,"points":2,"place":1,"phase":1,"sequence":41,"prices":[175,186,163,211,179,187,176,165,153,210],"times":[1021,559,733],"next_num":3,"trial_type":"ticket-choose","trial_index":126,"time_elapsed":1652182,"internal_node_id":"0.0-126.0"},{"result":167,"points":2,"place":1,"phase":1,"sequence":42,"prices":[175,185,178,215,181,186,167,168,208,156],"times":[834,561,612,590,1100,586,851],"next_num":7,"trial_type":"ticket-choose","trial_index":127,"time_elapsed":1660337,"internal_node_id":"0.0-127.0"},{"result":168,"points":1,"place":2,"phase":1,"sequence":43,"prices":[168,199,196,198,185,195,227,163,177,166],"times":[1042],"next_num":1,"trial_type":"ticket-choose","trial_index":128,"time_elapsed":1663296,"internal_node_id":"0.0-128.0"},{"result":167,"points":2,"place":1,"phase":1,"sequence":44,"prices":[175,186,167,225,179,187,178,169,209,153],"times":[745,486,793],"next_num":3,"trial_type":"ticket-choose","trial_index":129,"time_elapsed":1667455,"internal_node_id":"0.0-129.0"},{"result":163,"points":2,"place":1,"phase":1,"sequence":45,"prices":[175,186,176,224,179,187,163,165,153,210],"times":[853,610,551,565,625,704,917],"next_num":7,"trial_type":"ticket-choose","trial_index":130,"time_elapsed":1675378,"internal_node_id":"0.0-130.0"},{"result":159,"points":1,"place":2,"phase":1,"sequence":46,"prices":[180,159,149,175,185,141,163,174,178,207],"times":[1925,857],"next_num":2,"trial_type":"ticket-choose","trial_index":131,"time_elapsed":1680142,"internal_node_id":"0.0-131.0"},{"result":163,"points":2,"place":1,"phase":1,"sequence":47,"prices":[176,186,176,210,179,187,163,166,153,208],"times":[886,517,548,600,608,555,822],"next_num":7,"trial_type":"ticket-choose","trial_index":132,"time_elapsed":1687710,"internal_node_id":"0.0-132.0"},{"result":165,"points":3,"place":0,"phase":1,"sequence":48,"prices":[189,167,180,197,165,168,172,213,178,171],"times":[685,477,707,721,974],"next_num":5,"trial_type":"ticket-choose","trial_index":133,"time_elapsed":1694183,"internal_node_id":"0.0-133.0"},{"result":169,"points":2,"place":1,"phase":1,"sequence":49,"prices":[181,215,169,147,182,193,177,184,176,179],"times":[899,520,890],"next_num":3,"trial_type":"ticket-choose","trial_index":134,"time_elapsed":1698764,"internal_node_id":"0.0-134.0"},{"responses":[{"value":1,"offby":1,"category":"$106 - $134","category_index":0},{"value":5,"offby":4,"category":"$135 - $150","category_index":1},{"value":5,"offby":2,"category":"$151 - $165","category_index":2},{"value":5,"offby":-1,"category":"$166 - $180","category_index":3},{"value":4,"offby":-2,"category":"$181 - $195","category_index":4},{"value":0,"offby":-3,"category":"$196 - $210","category_index":5},{"value":0,"offby":-1,"category":"$211 - $225","category_index":6}],"phase":1,"number":1,"trial_type":"bar-choose","trial_index":135,"time_elapsed":1726194,"internal_node_id":"0.0-135.0"},{"special_comment":"no","trial_type":"special_sequence","trial_index":136,"time_elapsed":1730928,"internal_node_id":"0.0-136.0"},{"during":"Nothing","bonus":268,"trial_type":"final","trial_index":137,"time_elapsed":1805312,"internal_node_id":"0.0-137.0"}],"bonus":268}