{"start_time":"2017-02-27 11:20:55","end_time":"2017-02-27 11:57:05","points_phase0":111,"points_phase1":122,"phase_order":0,"age":37,"gender":"f","tries":1,"during":"Nothing","worker_id":"A27PVIL93ZMY46","assignment_id":"337RC3OW06VMYF0AUQNZH2Y6ECIVL5","data":[{"rt":17520,"url":"\/tickets\/utils\/consent.html","trial_type":"html","trial_index":0,"time_elapsed":17975,"internal_node_id":"0.0-0.0"},{"age":37,"gender":"f","trial_type":"age","trial_index":1,"time_elapsed":23686,"internal_node_id":"0.0-1.0"},{"worker_id":"A27PVIL93ZMY46","trial_type":"workerid","trial_index":2,"time_elapsed":38464,"internal_node_id":"0.0-2.0"},{"tries":1,"trial_type":"instructions_check","trial_index":3,"time_elapsed":231970,"internal_node_id":"0.0-3.0"},{"rt":7049,"url":"\/tickets\/utils\/start.html","trial_type":"html","trial_index":4,"time_elapsed":240181,"internal_node_id":"0.0-4.0"},{"trial_type":"number-animation","trial_index":5,"time_elapsed":310007,"internal_node_id":"0.0-5.0"},{"phase":0,"sequence":0,"avg":180,"response":180,"trial_type":"training_avg","trial_index":6,"time_elapsed":361527,"internal_node_id":"0.0-6.0"},{"trial_type":"number-animation","trial_index":7,"time_elapsed":397062,"internal_node_id":"0.0-7.0"},{"phase":0,"sequence":1,"avg":178,"response":177,"trial_type":"training_avg","trial_index":8,"time_elapsed":447913,"internal_node_id":"0.0-8.0"},{"trial_type":"number-animation","trial_index":9,"time_elapsed":480252,"internal_node_id":"0.0-9.0"},{"phase":0,"sequence":2,"avg":176,"response":175,"trial_type":"training_avg","trial_index":10,"time_elapsed":524015,"internal_node_id":"0.0-10.0"},{"trial_type":"number-animation","trial_index":11,"time_elapsed":551683,"internal_node_id":"0.0-11.0"},{"phase":0,"sequence":3,"avg":178,"response":178,"trial_type":"training_avg","trial_index":12,"time_elapsed":597056,"internal_node_id":"0.0-12.0"},{"trial_type":"number-animation","trial_index":13,"time_elapsed":623356,"internal_node_id":"0.0-13.0"},{"phase":0,"sequence":4,"avg":179,"response":178,"trial_type":"training_avg","trial_index":14,"time_elapsed":665520,"internal_node_id":"0.0-14.0"},{"responses":[{"value":0,"offby":0,"category":"$140 - $250","category_index":0},{"value":0,"offby":0,"category":"$151 - $160","category_index":1},{"value":7,"offby":3,"category":"$161 - $170","category_index":2},{"value":9,"offby":3,"category":"$171 - $180","category_index":3},{"value":4,"offby":-3,"category":"$181 - $190","category_index":4},{"value":0,"offby":-3,"category":"$191 - $200","category_index":5},{"value":0,"offby":0,"category":"$201 - $210","category_index":6}],"phase":0,"number":0,"trial_type":"bar-choose","trial_index":15,"time_elapsed":803299,"internal_node_id":"0.0-15.0"},{"rt":15558,"url":"\/tickets\/\/utils\/testing.html","trial_type":"html","trial_index":16,"time_elapsed":820034,"internal_node_id":"0.0-16.0"},{"phase":0,"order":[27,36,48,46,37,19,49,34,1,31,32,43,24,11,13,3,35,0,39,45,15,5,6,29,44,17,8,47,2,42,20,26,25,12,23,16,33,30,7,22,9,10,28,18,38,41,40,21,14,4],"trial_type":"store_order","trial_index":17,"time_elapsed":821035,"internal_node_id":"0.0-17.0"},{"result":165,"points":2,"place":1,"phase":0,"sequence":-1,"prices":[184,180,224,165,181,199,185,193,218,126],"times":[1920,628,652,1395],"next_num":4,"trial_type":"ticket-choose","trial_index":18,"time_elapsed":831528,"internal_node_id":"0.0-18.0"},{"rt":11652,"url":"\/tickets\/utils\/testing_after.html","trial_type":"html","trial_index":19,"time_elapsed":845141,"internal_node_id":"0.0-19.0"},{"result":183,"points":1,"place":4,"phase":0,"sequence":0,"prices":[168,188,171,181,184,196,180,194,195,183],"times":[2607,770,567,536,630,550,578,690,730,2180],"next_num":11,"trial_type":"ticket-choose","trial_index":20,"time_elapsed":860041,"internal_node_id":"0.0-20.0"},{"result":169,"points":1,"place":2,"phase":0,"sequence":1,"prices":[189,185,169,168,167,171,180,173,174,188],"times":[1350,490,1178],"next_num":3,"trial_type":"ticket-choose","trial_index":21,"time_elapsed":866654,"internal_node_id":"0.0-21.0"},{"result":171,"points":3,"place":0,"phase":0,"sequence":2,"prices":[193,173,175,182,179,198,181,171,176,187],"times":[826,546,577,597,663,654,683,1670],"next_num":8,"trial_type":"ticket-choose","trial_index":22,"time_elapsed":879109,"internal_node_id":"0.0-22.0"},{"result":166,"points":3,"place":0,"phase":0,"sequence":3,"prices":[179,186,197,201,166,187,188,193,190,177],"times":[1558,715,646,621,1340],"next_num":5,"trial_type":"ticket-choose","trial_index":23,"time_elapsed":888374,"internal_node_id":"0.0-23.0"},{"result":168,"points":2,"place":1,"phase":0,"sequence":4,"prices":[181,175,182,168,183,173,153,170,193,179],"times":[1018,768,630,3659],"next_num":4,"trial_type":"ticket-choose","trial_index":24,"time_elapsed":897614,"internal_node_id":"0.0-24.0"},{"result":168,"points":2,"place":1,"phase":0,"sequence":5,"prices":[173,178,168,193,177,182,176,172,164,183],"times":[1217,545,2195],"next_num":3,"trial_type":"ticket-choose","trial_index":25,"time_elapsed":904217,"internal_node_id":"0.0-25.0"},{"result":165,"points":3,"place":0,"phase":0,"sequence":6,"prices":[175,189,193,170,179,165,180,186,177,184],"times":[956,701,583,1038,683,1232],"next_num":6,"trial_type":"ticket-choose","trial_index":26,"time_elapsed":912779,"internal_node_id":"0.0-26.0"},{"result":165,"points":2,"place":1,"phase":0,"sequence":7,"prices":[181,180,191,186,165,197,159,167,194,185],"times":[1204,514,668,692,1199],"next_num":5,"trial_type":"ticket-choose","trial_index":27,"time_elapsed":920131,"internal_node_id":"0.0-27.0"},{"result":164,"points":3,"place":0,"phase":0,"sequence":8,"prices":[175,179,169,193,178,182,177,172,164,183],"times":[826,482,5531,621,569,593,652,1240,1355],"next_num":9,"trial_type":"ticket-choose","trial_index":28,"time_elapsed":936021,"internal_node_id":"0.0-28.0"},{"result":157,"points":3,"place":0,"phase":0,"sequence":9,"prices":[157,184,163,174,181,190,168,187,189,177],"times":[1704],"next_num":1,"trial_type":"ticket-choose","trial_index":29,"time_elapsed":940529,"internal_node_id":"0.0-29.0"},{"result":175,"points":1,"place":4,"phase":0,"sequence":10,"prices":[171,180,172,174,179,188,173,183,186,175],"times":[1419,607,639,573,646,669,683,761,706,2102],"next_num":10,"trial_type":"ticket-choose","trial_index":30,"time_elapsed":953590,"internal_node_id":"0.0-30.0"},{"result":157,"points":2,"place":1,"phase":0,"sequence":11,"prices":[188,191,179,157,181,164,166,156,175,182],"times":[834,468,474,2024],"next_num":4,"trial_type":"ticket-choose","trial_index":31,"time_elapsed":960148,"internal_node_id":"0.0-31.0"},{"result":161,"points":3,"place":0,"phase":0,"sequence":12,"prices":[161,180,170,174,178,198,173,182,188,176],"times":[2341],"next_num":1,"trial_type":"ticket-choose","trial_index":32,"time_elapsed":965077,"internal_node_id":"0.0-32.0"},{"result":166,"points":3,"place":0,"phase":0,"sequence":13,"prices":[175,180,170,195,179,184,178,174,166,185],"times":[1189,592,3919,560,668,659,646,638,1377],"next_num":9,"trial_type":"ticket-choose","trial_index":33,"time_elapsed":979317,"internal_node_id":"0.0-33.0"},{"result":170,"points":2,"place":1,"phase":0,"sequence":14,"prices":[176,180,178,194,179,183,170,173,165,184],"times":[1483,522,678,597,600,635,2079],"next_num":7,"trial_type":"ticket-choose","trial_index":34,"time_elapsed":989555,"internal_node_id":"0.0-34.0"},{"result":169,"points":2,"place":1,"phase":0,"sequence":15,"prices":[174,179,169,194,178,183,177,173,165,184],"times":[1092,631,2038],"next_num":3,"trial_type":"ticket-choose","trial_index":35,"time_elapsed":995857,"internal_node_id":"0.0-35.0"},{"result":154,"points":3,"place":0,"phase":0,"sequence":16,"prices":[188,179,154,183,173,170,177,160,169,175],"times":[1026,837,1970],"next_num":3,"trial_type":"ticket-choose","trial_index":36,"time_elapsed":1002384,"internal_node_id":"0.0-36.0"},{"result":169,"points":2,"place":1,"phase":0,"sequence":17,"prices":[175,179,169,193,178,182,177,172,164,183],"times":[1554,1486,1384],"next_num":3,"trial_type":"ticket-choose","trial_index":37,"time_elapsed":1009601,"internal_node_id":"0.0-37.0"},{"result":156,"points":3,"place":0,"phase":0,"sequence":18,"prices":[195,177,197,179,171,173,175,156,163,204],"times":[5136,714,800,839,2223,743,692,2061],"next_num":8,"trial_type":"ticket-choose","trial_index":38,"time_elapsed":1026512,"internal_node_id":"0.0-38.0"},{"result":162,"points":3,"place":0,"phase":0,"sequence":19,"prices":[179,174,172,162,202,184,165,197,185,169],"times":[1209,783,951,1602],"next_num":4,"trial_type":"ticket-choose","trial_index":39,"time_elapsed":1033805,"internal_node_id":"0.0-39.0"},{"result":170,"points":2,"place":1,"phase":0,"sequence":20,"prices":[175,180,178,195,179,184,170,174,166,185],"times":[568,630,582,592,621,659,1624],"next_num":7,"trial_type":"ticket-choose","trial_index":40,"time_elapsed":1042512,"internal_node_id":"0.0-40.0"},{"result":169,"points":2,"place":1,"phase":0,"sequence":21,"prices":[175,179,177,193,178,182,169,172,164,183],"times":[2854,628,2162,662,623,753,1116],"next_num":7,"trial_type":"ticket-choose","trial_index":41,"time_elapsed":1054789,"internal_node_id":"0.0-41.0"},{"result":169,"points":2,"place":1,"phase":0,"sequence":22,"prices":[174,179,177,194,178,183,169,173,165,184],"times":[7204,508,492,459,690,661,1984],"next_num":7,"trial_type":"ticket-choose","trial_index":42,"time_elapsed":1070404,"internal_node_id":"0.0-42.0"},{"result":174,"points":1,"place":4,"phase":0,"sequence":23,"prices":[166,190,170,173,178,203,172,192,198,174],"times":[1035,597,422,435,646,707,576,705,899,922],"next_num":10,"trial_type":"ticket-choose","trial_index":43,"time_elapsed":1081495,"internal_node_id":"0.0-43.0"},{"result":164,"points":1,"place":3,"phase":0,"sequence":24,"prices":[175,150,164,155,171,199,158,180,184,196],"times":[1032,608,1359],"next_num":3,"trial_type":"ticket-choose","trial_index":44,"time_elapsed":1087819,"internal_node_id":"0.0-44.0"},{"result":168,"points":2,"place":1,"phase":0,"sequence":25,"prices":[174,178,168,192,177,181,176,171,163,182],"times":[1064,559,1230],"next_num":3,"trial_type":"ticket-choose","trial_index":45,"time_elapsed":1093009,"internal_node_id":"0.0-45.0"},{"result":165,"points":3,"place":0,"phase":0,"sequence":26,"prices":[176,180,170,194,179,183,178,173,165,184],"times":[1220,698,1862,761,599,614,792,798,1207],"next_num":9,"trial_type":"ticket-choose","trial_index":46,"time_elapsed":1105318,"internal_node_id":"0.0-46.0"},{"result":181,"points":0,"place":5,"phase":0,"sequence":27,"prices":[180,175,173,177,191,190,184,196,174,181],"times":[2173,760,547,744,700,728,737,693,1768,938],"next_num":10,"trial_type":"ticket-choose","trial_index":47,"time_elapsed":1119249,"internal_node_id":"0.0-47.0"},{"result":169,"points":2,"place":1,"phase":0,"sequence":28,"prices":[174,179,169,194,178,183,177,173,165,184],"times":[1410,591,1867],"next_num":3,"trial_type":"ticket-choose","trial_index":48,"time_elapsed":1125634,"internal_node_id":"0.0-48.0"},{"result":160,"points":3,"place":0,"phase":0,"sequence":29,"prices":[175,193,175,160,180,170,175,205,177,167],"times":[3784,613,697,1092],"next_num":4,"trial_type":"ticket-choose","trial_index":49,"time_elapsed":1134684,"internal_node_id":"0.0-49.0"},{"result":168,"points":2,"place":1,"phase":0,"sequence":30,"prices":[174,178,176,192,177,181,168,171,163,182],"times":[1150,629,730,798,646,754,1430],"next_num":7,"trial_type":"ticket-choose","trial_index":50,"time_elapsed":1144017,"internal_node_id":"0.0-50.0"},{"result":165,"points":3,"place":0,"phase":0,"sequence":31,"prices":[165,187,173,177,186,196,176,191,192,181],"times":[1529],"next_num":1,"trial_type":"ticket-choose","trial_index":51,"time_elapsed":1147681,"internal_node_id":"0.0-51.0"},{"result":163,"points":3,"place":0,"phase":0,"sequence":32,"prices":[163,185,165,174,181,198,173,186,187,180],"times":[4231],"next_num":1,"trial_type":"ticket-choose","trial_index":52,"time_elapsed":1154036,"internal_node_id":"0.0-52.0"},{"result":170,"points":2,"place":1,"phase":0,"sequence":33,"prices":[176,180,178,194,179,183,170,173,165,184],"times":[1179,559,681,621,614,699,1783],"next_num":7,"trial_type":"ticket-choose","trial_index":53,"time_elapsed":1163548,"internal_node_id":"0.0-53.0"},{"result":168,"points":2,"place":1,"phase":0,"sequence":34,"prices":[173,178,176,193,177,182,168,172,164,183],"times":[1163,776,674,669,692,768,1430],"next_num":7,"trial_type":"ticket-choose","trial_index":54,"time_elapsed":1173133,"internal_node_id":"0.0-54.0"},{"result":168,"points":2,"place":1,"phase":0,"sequence":35,"prices":[174,178,168,192,177,181,176,171,163,182],"times":[1265,684,1023],"next_num":3,"trial_type":"ticket-choose","trial_index":55,"time_elapsed":1178348,"internal_node_id":"0.0-55.0"},{"result":179,"points":1,"place":4,"phase":0,"sequence":36,"prices":[170,183,172,175,180,189,174,187,188,179],"times":[1410,730,993,576,644,559,714,705,1208,1268],"next_num":10,"trial_type":"ticket-choose","trial_index":56,"time_elapsed":1191269,"internal_node_id":"0.0-56.0"},{"result":160,"points":3,"place":0,"phase":0,"sequence":37,"prices":[160,185,170,174,182,196,173,186,194,177],"times":[1925],"next_num":1,"trial_type":"ticket-choose","trial_index":57,"time_elapsed":1195087,"internal_node_id":"0.0-57.0"},{"result":169,"points":2,"place":1,"phase":0,"sequence":38,"prices":[174,179,177,194,178,183,169,173,165,184],"times":[1347,621,637,667,713,744,1191],"next_num":7,"trial_type":"ticket-choose","trial_index":58,"time_elapsed":1204546,"internal_node_id":"0.0-58.0"},{"result":168,"points":2,"place":1,"phase":0,"sequence":39,"prices":[173,178,176,193,177,182,168,172,164,183],"times":[1506,513,630,630,667,660,2054],"next_num":7,"trial_type":"ticket-choose","trial_index":59,"time_elapsed":1214356,"internal_node_id":"0.0-59.0"},{"result":165,"points":3,"place":0,"phase":0,"sequence":40,"prices":[176,180,170,194,179,183,178,173,165,184],"times":[1761,538,413,698,730,876,690,801,1313],"next_num":9,"trial_type":"ticket-choose","trial_index":60,"time_elapsed":1225975,"internal_node_id":"0.0-60.0"},{"result":166,"points":3,"place":0,"phase":0,"sequence":41,"prices":[175,180,170,195,179,184,178,174,166,185],"times":[2624,799,1584,691,628,613,614,606,1146],"next_num":9,"trial_type":"ticket-choose","trial_index":61,"time_elapsed":1239019,"internal_node_id":"0.0-61.0"},{"result":159,"points":3,"place":0,"phase":0,"sequence":42,"prices":[159,178,170,174,176,194,173,182,185,175],"times":[1191],"next_num":1,"trial_type":"ticket-choose","trial_index":62,"time_elapsed":1242151,"internal_node_id":"0.0-62.0"},{"result":168,"points":2,"place":1,"phase":0,"sequence":43,"prices":[173,178,168,193,177,182,176,172,164,183],"times":[1593,562,1185],"next_num":3,"trial_type":"ticket-choose","trial_index":63,"time_elapsed":1247826,"internal_node_id":"0.0-63.0"},{"result":177,"points":1,"place":2,"phase":0,"sequence":44,"prices":[181,179,199,188,170,172,178,187,191,177],"times":[1132,690,776,884,4178,683,676,676,914,1028],"next_num":10,"trial_type":"ticket-choose","trial_index":64,"time_elapsed":1263257,"internal_node_id":"0.0-64.0"},{"result":165,"points":3,"place":0,"phase":0,"sequence":45,"prices":[180,165,177,193,186,196,187,169,171,182],"times":[1094,1030],"next_num":2,"trial_type":"ticket-choose","trial_index":65,"time_elapsed":1267383,"internal_node_id":"0.0-65.0"},{"result":167,"points":3,"place":0,"phase":0,"sequence":46,"prices":[179,174,199,178,196,167,170,184,177,190],"times":[1124,733,692,814,714,1184],"next_num":6,"trial_type":"ticket-choose","trial_index":66,"time_elapsed":1275452,"internal_node_id":"0.0-66.0"},{"result":168,"points":2,"place":1,"phase":0,"sequence":47,"prices":[174,178,176,192,177,181,168,171,163,182],"times":[3162,950,790,768,868,954,1161],"next_num":7,"trial_type":"ticket-choose","trial_index":67,"time_elapsed":1287167,"internal_node_id":"0.0-67.0"},{"result":170,"points":2,"place":1,"phase":0,"sequence":48,"prices":[175,180,178,195,179,184,170,174,166,185],"times":[1225,706,679,654,873,854,2101],"next_num":7,"trial_type":"ticket-choose","trial_index":68,"time_elapsed":1297598,"internal_node_id":"0.0-68.0"},{"result":169,"points":2,"place":1,"phase":0,"sequence":49,"prices":[175,179,177,193,178,182,169,172,164,183],"times":[2262,952,691,703,682,706,1328],"next_num":7,"trial_type":"ticket-choose","trial_index":69,"time_elapsed":1308746,"internal_node_id":"0.0-69.0"},{"responses":[{"value":0,"offby":0,"category":"$140 - $250","category_index":0},{"value":0,"offby":0,"category":"$151 - $160","category_index":1},{"value":8,"offby":4,"category":"$161 - $170","category_index":2},{"value":8,"offby":2,"category":"$171 - $180","category_index":3},{"value":4,"offby":-3,"category":"$181 - $190","category_index":4},{"value":0,"offby":-3,"category":"$191 - $200","category_index":5},{"value":0,"offby":0,"category":"$201 - $210","category_index":6}],"phase":0,"number":1,"trial_type":"bar-choose","trial_index":70,"time_elapsed":1346187,"internal_node_id":"0.0-70.0"},{"rt":9166,"url":"\/tickets\/utils\/start2.html","trial_type":"html","trial_index":71,"time_elapsed":1356510,"internal_node_id":"0.0-71.0"},{"trial_type":"number-animation","trial_index":72,"time_elapsed":1402240,"internal_node_id":"0.0-72.0"},{"phase":1,"sequence":0,"avg":166,"response":166,"trial_type":"training_avg","trial_index":73,"time_elapsed":1416889,"internal_node_id":"0.0-73.0"},{"trial_type":"number-animation","trial_index":74,"time_elapsed":1463586,"internal_node_id":"0.0-74.0"},{"phase":1,"sequence":1,"avg":198,"response":200,"trial_type":"training_avg","trial_index":75,"time_elapsed":1476329,"internal_node_id":"0.0-75.0"},{"trial_type":"number-animation","trial_index":76,"time_elapsed":1514631,"internal_node_id":"0.0-76.0"},{"phase":1,"sequence":2,"avg":177,"response":177,"trial_type":"training_avg","trial_index":77,"time_elapsed":1523589,"internal_node_id":"0.0-77.0"},{"trial_type":"number-animation","trial_index":78,"time_elapsed":1570130,"internal_node_id":"0.0-78.0"},{"phase":1,"sequence":3,"avg":190,"response":190,"trial_type":"training_avg","trial_index":79,"time_elapsed":1582214,"internal_node_id":"0.0-79.0"},{"trial_type":"number-animation","trial_index":80,"time_elapsed":1619840,"internal_node_id":"0.0-80.0"},{"phase":1,"sequence":4,"avg":201,"response":200,"trial_type":"training_avg","trial_index":81,"time_elapsed":1629580,"internal_node_id":"0.0-81.0"},{"responses":[{"value":0,"offby":-1,"category":"$30 - $75","category_index":0},{"value":1,"offby":-1,"category":"$76 - $120","category_index":1},{"value":2,"offby":-2,"category":"$121 - $165","category_index":2},{"value":7,"offby":1,"category":"$166 - $210","category_index":3},{"value":8,"offby":2,"category":"$211 - $255","category_index":4},{"value":0,"offby":-1,"category":"$256 - $300","category_index":5},{"value":0,"offby":0,"category":"$301 - $345","category_index":6}],"phase":1,"number":0,"trial_type":"bar-choose","trial_index":82,"time_elapsed":1673503,"internal_node_id":"0.0-82.0"},{"rt":15286,"url":"\/tickets\/utils\/testing2.html","trial_type":"html","trial_index":83,"time_elapsed":1689984,"internal_node_id":"0.0-83.0"},{"phase":1,"order":[3,29,6,1,47,34,41,42,18,15,32,14,37,48,46,12,23,20,27,2,30,36,13,43,0,22,49,10,17,5,33,45,19,31,44,24,26,28,25,16,9,38,7,40,35,39,11,21,4,8],"trial_type":"store_order","trial_index":84,"time_elapsed":1690985,"internal_node_id":"0.0-84.0"},{"result":150,"points":1,"place":3,"phase":1,"sequence":0,"prices":[150,176,126,251,171,195,165,145,105,200],"times":[2123],"next_num":1,"trial_type":"ticket-choose","trial_index":85,"time_elapsed":1695472,"internal_node_id":"0.0-85.0"},{"result":111,"points":3,"place":0,"phase":1,"sequence":1,"prices":[111,231,131,146,171,295,141,241,271,150],"times":[1300],"next_num":1,"trial_type":"ticket-choose","trial_index":86,"time_elapsed":1698704,"internal_node_id":"0.0-86.0"},{"result":126,"points":2,"place":1,"phase":1,"sequence":2,"prices":[150,175,166,251,170,196,126,145,105,201],"times":[1213,683,613,669,646,682,2023],"next_num":7,"trial_type":"ticket-choose","trial_index":87,"time_elapsed":1708734,"internal_node_id":"0.0-87.0"},{"result":125,"points":2,"place":1,"phase":1,"sequence":3,"prices":[156,175,125,245,170,190,165,140,101,196],"times":[1251,667,945],"next_num":3,"trial_type":"ticket-choose","trial_index":88,"time_elapsed":1713930,"internal_node_id":"0.0-88.0"},{"result":150,"points":2,"place":1,"phase":1,"sequence":4,"prices":[181,156,145,165,236,231,201,260,150,185],"times":[2132,2230,543,791,629,951,644,622,2030],"next_num":9,"trial_type":"ticket-choose","trial_index":89,"time_elapsed":1728640,"internal_node_id":"0.0-89.0"},{"result":106,"points":2,"place":1,"phase":1,"sequence":5,"prices":[185,180,235,210,106,266,76,115,250,205],"times":[952,628,668,667,936],"next_num":5,"trial_type":"ticket-choose","trial_index":90,"time_elapsed":1735358,"internal_node_id":"0.0-90.0"},{"result":106,"points":3,"place":0,"phase":1,"sequence":6,"prices":[180,106,166,245,211,261,215,125,135,190],"times":[1057,1181],"next_num":2,"trial_type":"ticket-choose","trial_index":91,"time_elapsed":1740008,"internal_node_id":"0.0-91.0"},{"result":81,"points":3,"place":0,"phase":1,"sequence":7,"prices":[155,245,155,81,180,130,156,306,166,115],"times":[1131,522,698,1255],"next_num":4,"trial_type":"ticket-choose","trial_index":92,"time_elapsed":1746212,"internal_node_id":"0.0-92.0"},{"result":120,"points":2,"place":1,"phase":1,"sequence":8,"prices":[146,171,120,245,165,191,160,140,100,196],"times":[1145,644,1060],"next_num":3,"trial_type":"ticket-choose","trial_index":93,"time_elapsed":1751438,"internal_node_id":"0.0-93.0"},{"result":131,"points":2,"place":1,"phase":1,"sequence":9,"prices":[156,181,171,256,175,200,131,150,110,206],"times":[1283,600,498,666,691,707,1222],"next_num":7,"trial_type":"ticket-choose","trial_index":94,"time_elapsed":1760211,"internal_node_id":"0.0-94.0"},{"result":135,"points":3,"place":0,"phase":1,"sequence":10,"prices":[135,180,141,151,175,220,145,196,211,155],"times":[1418],"next_num":1,"trial_type":"ticket-choose","trial_index":95,"time_elapsed":1763629,"internal_node_id":"0.0-95.0"},{"result":130,"points":2,"place":1,"phase":1,"sequence":11,"prices":[155,181,170,255,176,200,130,150,110,205],"times":[1099,507,459,460,861,707,1068],"next_num":7,"trial_type":"ticket-choose","trial_index":96,"time_elapsed":1772073,"internal_node_id":"0.0-96.0"},{"result":120,"points":2,"place":1,"phase":1,"sequence":12,"prices":[186,156,191,120,195,145,45,130,246,176],"times":[1009,544,475,2022],"next_num":4,"trial_type":"ticket-choose","trial_index":97,"time_elapsed":1778529,"internal_node_id":"0.0-97.0"},{"result":136,"points":3,"place":0,"phase":1,"sequence":13,"prices":[246,145,155,191,176,270,185,136,160,215],"times":[1215,1006,368,568,682,677,798,2068],"next_num":8,"trial_type":"ticket-choose","trial_index":98,"time_elapsed":1789821,"internal_node_id":"0.0-98.0"},{"result":111,"points":3,"place":0,"phase":1,"sequence":14,"prices":[175,211,266,286,111,216,220,245,230,165],"times":[1352,638,505,566,1269],"next_num":5,"trial_type":"ticket-choose","trial_index":99,"time_elapsed":1797087,"internal_node_id":"0.0-99.0"},{"result":131,"points":2,"place":1,"phase":1,"sequence":15,"prices":[161,180,171,250,176,195,131,146,105,201],"times":[1309,574,613,605,634,699,1100],"next_num":7,"trial_type":"ticket-choose","trial_index":100,"time_elapsed":1805931,"internal_node_id":"0.0-100.0"},{"result":120,"points":2,"place":1,"phase":1,"sequence":16,"prices":[145,170,160,245,165,190,120,141,100,195],"times":[1664,643,668,690,746,735,1214],"next_num":7,"trial_type":"ticket-choose","trial_index":101,"time_elapsed":1815553,"internal_node_id":"0.0-101.0"},{"result":121,"points":2,"place":1,"phase":1,"sequence":17,"prices":[150,170,160,240,166,185,121,136,95,191],"times":[993,551,506,558,675,831,1461],"next_num":7,"trial_type":"ticket-choose","trial_index":102,"time_elapsed":1824188,"internal_node_id":"0.0-102.0"},{"result":120,"points":3,"place":0,"phase":1,"sequence":18,"prices":[120,221,135,185,200,261,181,251,255,196],"times":[1276],"next_num":1,"trial_type":"ticket-choose","trial_index":103,"time_elapsed":1827275,"internal_node_id":"0.0-103.0"},{"result":126,"points":2,"place":1,"phase":1,"sequence":19,"prices":[151,176,126,251,170,196,165,145,105,201],"times":[1077,597,1315],"next_num":3,"trial_type":"ticket-choose","trial_index":104,"time_elapsed":1832500,"internal_node_id":"0.0-104.0"},{"result":81,"points":3,"place":0,"phase":1,"sequence":20,"prices":[81,205,130,151,191,261,145,210,250,165],"times":[1470],"next_num":1,"trial_type":"ticket-choose","trial_index":105,"time_elapsed":1836094,"internal_node_id":"0.0-105.0"},{"result":115,"points":3,"place":0,"phase":1,"sequence":21,"prices":[226,205,125,120,115,135,180,145,150,220],"times":[1054,560,768,666,2092],"next_num":5,"trial_type":"ticket-choose","trial_index":106,"time_elapsed":1844468,"internal_node_id":"0.0-106.0"},{"result":131,"points":2,"place":1,"phase":1,"sequence":22,"prices":[160,180,170,251,176,195,131,146,105,200],"times":[1028,530,648,692,791,698,1244],"next_num":7,"trial_type":"ticket-choose","trial_index":107,"time_elapsed":1853286,"internal_node_id":"0.0-107.0"},{"result":65,"points":2,"place":1,"phase":1,"sequence":23,"prices":[220,236,176,65,185,101,110,61,156,191],"times":[974,613,1315,1060],"next_num":4,"trial_type":"ticket-choose","trial_index":108,"time_elapsed":1859606,"internal_node_id":"0.0-108.0"},{"result":126,"points":2,"place":1,"phase":1,"sequence":24,"prices":[156,175,126,246,170,190,165,140,100,196],"times":[1437,560,2181],"next_num":3,"trial_type":"ticket-choose","trial_index":109,"time_elapsed":1866007,"internal_node_id":"0.0-109.0"},{"result":120,"points":2,"place":1,"phase":1,"sequence":25,"prices":[145,171,161,245,165,191,120,140,100,196],"times":[1219,698,719,674,727,660,1130],"next_num":7,"trial_type":"ticket-choose","trial_index":110,"time_elapsed":1874990,"internal_node_id":"0.0-110.0"},{"result":106,"points":3,"place":0,"phase":1,"sequence":26,"prices":[155,225,245,130,176,106,180,211,165,200],"times":[1321,838,628,797,659,1289],"next_num":6,"trial_type":"ticket-choose","trial_index":111,"time_elapsed":1883740,"internal_node_id":"0.0-111.0"},{"result":111,"points":3,"place":0,"phase":1,"sequence":27,"prices":[156,181,131,256,176,200,171,151,111,206],"times":[1275,621,1166,744,805,713,750,889,1113],"next_num":9,"trial_type":"ticket-choose","trial_index":112,"time_elapsed":1895530,"internal_node_id":"0.0-112.0"},{"result":96,"points":3,"place":0,"phase":1,"sequence":28,"prices":[150,171,120,241,165,185,160,135,96,190],"times":[2347,1282,2723,652,800,627,759,944,1068],"next_num":9,"trial_type":"ticket-choose","trial_index":113,"time_elapsed":1910346,"internal_node_id":"0.0-113.0"},{"result":126,"points":2,"place":1,"phase":1,"sequence":29,"prices":[156,176,165,246,171,190,126,141,101,196],"times":[1023,3376,814,705,712,698,2471],"next_num":7,"trial_type":"ticket-choose","trial_index":114,"time_elapsed":1923384,"internal_node_id":"0.0-114.0"},{"result":175,"points":1,"place":4,"phase":1,"sequence":30,"prices":[130,195,141,155,181,226,150,216,221,175],"times":[1112,597,552,438,659,674,707,731,844,881],"next_num":11,"trial_type":"ticket-choose","trial_index":115,"time_elapsed":1934450,"internal_node_id":"0.0-115.0"},{"result":91,"points":3,"place":0,"phase":1,"sequence":31,"prices":[176,150,141,91,290,201,106,266,206,126],"times":[1132,1228,1301,1026],"next_num":4,"trial_type":"ticket-choose","trial_index":116,"time_elapsed":1941645,"internal_node_id":"0.0-116.0"},{"result":121,"points":2,"place":1,"phase":1,"sequence":32,"prices":[146,170,121,245,166,190,161,141,100,195],"times":[2785,617,1328],"next_num":3,"trial_type":"ticket-choose","trial_index":117,"time_elapsed":1948840,"internal_node_id":"0.0-117.0"},{"result":66,"points":3,"place":0,"phase":1,"sequence":33,"prices":[66,201,96,150,185,230,121,216,225,165],"times":[1145],"next_num":1,"trial_type":"ticket-choose","trial_index":118,"time_elapsed":1951695,"internal_node_id":"0.0-118.0"},{"result":30,"points":3,"place":0,"phase":1,"sequence":34,"prices":[155,30,101,55,136,276,70,181,200,261],"times":[1205,1005],"next_num":2,"trial_type":"ticket-choose","trial_index":119,"time_elapsed":1956136,"internal_node_id":"0.0-119.0"},{"result":86,"points":3,"place":0,"phase":1,"sequence":35,"prices":[86,180,130,151,170,271,145,191,220,160],"times":[1039],"next_num":1,"trial_type":"ticket-choose","trial_index":120,"time_elapsed":1958899,"internal_node_id":"0.0-120.0"},{"result":105,"points":3,"place":0,"phase":1,"sequence":36,"prices":[105,216,146,165,210,260,161,235,241,185],"times":[2078],"next_num":1,"trial_type":"ticket-choose","trial_index":121,"time_elapsed":1962885,"internal_node_id":"0.0-121.0"},{"result":75,"points":3,"place":0,"phase":1,"sequence":37,"prices":[75,171,131,151,161,250,145,190,206,156],"times":[1444],"next_num":1,"trial_type":"ticket-choose","trial_index":122,"time_elapsed":1966247,"internal_node_id":"0.0-122.0"},{"result":95,"points":3,"place":0,"phase":1,"sequence":38,"prices":[95,205,106,151,186,271,145,210,215,181],"times":[1112],"next_num":1,"trial_type":"ticket-choose","trial_index":123,"time_elapsed":1969303,"internal_node_id":"0.0-123.0"},{"result":95,"points":3,"place":0,"phase":1,"sequence":39,"prices":[150,171,121,241,165,185,160,136,95,191],"times":[1214,644,3453,627,615,760,751,766,1146],"next_num":9,"trial_type":"ticket-choose","trial_index":124,"time_elapsed":1984887,"internal_node_id":"0.0-124.0"},{"result":105,"points":3,"place":0,"phase":1,"sequence":40,"prices":[160,180,130,251,176,195,170,146,105,200],"times":[2098,1121,1468,698,591,552,706,999,1531],"next_num":9,"trial_type":"ticket-choose","trial_index":125,"time_elapsed":1998523,"internal_node_id":"0.0-125.0"},{"result":130,"points":3,"place":0,"phase":1,"sequence":41,"prices":[185,175,276,221,130,141,171,216,235,165],"times":[4632,1443,728,576,1245],"next_num":5,"trial_type":"ticket-choose","trial_index":126,"time_elapsed":2010160,"internal_node_id":"0.0-126.0"},{"result":126,"points":2,"place":1,"phase":1,"sequence":42,"prices":[151,175,166,251,170,195,126,146,105,201],"times":[1285,653,582,635,706,598,2377],"next_num":7,"trial_type":"ticket-choose","trial_index":127,"time_elapsed":2020380,"internal_node_id":"0.0-127.0"},{"result":116,"points":3,"place":0,"phase":1,"sequence":43,"prices":[176,150,276,171,261,116,130,201,166,231],"times":[1263,728,615,652,582,1890],"next_num":6,"trial_type":"ticket-choose","trial_index":128,"time_elapsed":2029582,"internal_node_id":"0.0-128.0"},{"result":130,"points":1,"place":3,"phase":1,"sequence":44,"prices":[221,175,51,196,146,130,166,80,126,156],"times":[992,397,430,1805,665,1060],"next_num":6,"trial_type":"ticket-choose","trial_index":129,"time_elapsed":2038016,"internal_node_id":"0.0-129.0"},{"result":61,"points":3,"place":0,"phase":1,"sequence":45,"prices":[255,166,266,175,136,145,155,61,96,301],"times":[998,806,644,760,2705,643,747,1063],"next_num":8,"trial_type":"ticket-choose","trial_index":130,"time_elapsed":2049835,"internal_node_id":"0.0-130.0"},{"result":130,"points":2,"place":1,"phase":1,"sequence":46,"prices":[156,181,130,255,175,200,170,150,111,205],"times":[2993,727,1254],"next_num":3,"trial_type":"ticket-choose","trial_index":131,"time_elapsed":2057309,"internal_node_id":"0.0-131.0"},{"result":120,"points":2,"place":1,"phase":1,"sequence":47,"prices":[150,170,160,241,166,186,120,136,96,191],"times":[998,698,783,665,697,776,1352],"next_num":7,"trial_type":"ticket-choose","trial_index":132,"time_elapsed":2066812,"internal_node_id":"0.0-132.0"},{"result":125,"points":2,"place":1,"phase":1,"sequence":48,"prices":[155,175,166,245,171,190,125,140,101,196],"times":[983,898,976,868,751,812,1320],"next_num":7,"trial_type":"ticket-choose","trial_index":133,"time_elapsed":2076492,"internal_node_id":"0.0-133.0"},{"result":105,"points":3,"place":0,"phase":1,"sequence":49,"prices":[161,180,131,251,175,196,171,146,105,201],"times":[1124,643,2853,653,676,774,752,869,1176],"next_num":9,"trial_type":"ticket-choose","trial_index":134,"time_elapsed":2089674,"internal_node_id":"0.0-134.0"},{"responses":[{"value":2,"offby":1,"category":"$30 - $75","category_index":0},{"value":6,"offby":4,"category":"$76 - $120","category_index":1},{"value":7,"offby":3,"category":"$121 - $165","category_index":2},{"value":5,"offby":-1,"category":"$166 - $210","category_index":3},{"value":0,"offby":-6,"category":"$211 - $255","category_index":4},{"value":0,"offby":-1,"category":"$256 - $300","category_index":5},{"value":0,"offby":0,"category":"$301 - $345","category_index":6}],"phase":1,"number":1,"trial_type":"bar-choose","trial_index":135,"time_elapsed":2122447,"internal_node_id":"0.0-135.0"},{"special_comment":"No","trial_type":"special_sequence","trial_index":136,"time_elapsed":2128133,"internal_node_id":"0.0-136.0"},{"during":"Nothing","bonus":312,"trial_type":"final","trial_index":137,"time_elapsed":2165148,"internal_node_id":"0.0-137.0"}],"bonus":312}