{"start_time":"2017-03-01 08:23:36","end_time":"2017-03-01 08:48:20","points_phase0":109,"points_phase1":107,"phase_order":1,"age":34,"gender":"f","tries":1,"during":"Nothing","worker_id":"A27SMEOPKV84VI","assignment_id":"373ERPL3YP1IOLRYUFKG2WJKOQQRTP","data":[{"rt":10528,"url":"\/tickets\/utils\/consent.html","trial_type":"html","trial_index":0,"time_elapsed":10635,"internal_node_id":"0.0-0.0"},{"age":34,"gender":"f","trial_type":"age","trial_index":1,"time_elapsed":17388,"internal_node_id":"0.0-1.0"},{"worker_id":"A27SMEOPKV84VI","trial_type":"workerid","trial_index":2,"time_elapsed":21769,"internal_node_id":"0.0-2.0"},{"tries":1,"trial_type":"instructions_check","trial_index":3,"time_elapsed":64036,"internal_node_id":"0.0-3.0"},{"rt":8979,"url":"\/tickets\/utils\/start.html","trial_type":"html","trial_index":4,"time_elapsed":74175,"internal_node_id":"0.0-4.0"},{"trial_type":"number-animation","trial_index":5,"time_elapsed":90289,"internal_node_id":"0.0-5.0"},{"phase":0,"sequence":0,"avg":188,"response":180,"trial_type":"training_avg","trial_index":6,"time_elapsed":95273,"internal_node_id":"0.0-6.0"},{"trial_type":"number-animation","trial_index":7,"time_elapsed":113108,"internal_node_id":"0.0-7.0"},{"phase":0,"sequence":1,"avg":202,"response":200,"trial_type":"training_avg","trial_index":8,"time_elapsed":127327,"internal_node_id":"0.0-8.0"},{"trial_type":"number-animation","trial_index":9,"time_elapsed":142219,"internal_node_id":"0.0-9.0"},{"phase":0,"sequence":2,"avg":200,"response":195,"trial_type":"training_avg","trial_index":10,"time_elapsed":149335,"internal_node_id":"0.0-10.0"},{"trial_type":"number-animation","trial_index":11,"time_elapsed":166505,"internal_node_id":"0.0-11.0"},{"phase":0,"sequence":3,"avg":209,"response":207,"trial_type":"training_avg","trial_index":12,"time_elapsed":173910,"internal_node_id":"0.0-12.0"},{"trial_type":"number-animation","trial_index":13,"time_elapsed":189187,"internal_node_id":"0.0-13.0"},{"phase":0,"sequence":4,"avg":195,"response":185,"trial_type":"training_avg","trial_index":14,"time_elapsed":195355,"internal_node_id":"0.0-14.0"},{"responses":[{"value":1,"offby":1,"category":"$145 - $160","category_index":0},{"value":2,"offby":1,"category":"$161 - $175","category_index":1},{"value":5,"offby":2,"category":"$176 - $190","category_index":2},{"value":8,"offby":1,"category":"$191 - $205","category_index":3},{"value":3,"offby":-3,"category":"$206 - $220","category_index":4},{"value":1,"offby":-2,"category":"$221 - $235","category_index":5},{"value":0,"offby":0,"category":"$226 - $260","category_index":6}],"phase":0,"number":0,"trial_type":"bar-choose","trial_index":15,"time_elapsed":298471,"internal_node_id":"0.0-15.0"},{"rt":11299,"url":"\/tickets\/\/utils\/testing.html","trial_type":"html","trial_index":16,"time_elapsed":310934,"internal_node_id":"0.0-16.0"},{"phase":0,"order":[3,34,40,31,28,25,10,16,22,27,13,29,46,41,26,37,5,49,14,21,0,6,12,42,20,7,43,19,36,18,38,17,33,9,30,15,24,35,8,45,32,48,1,39,44,2,11,47,4,23],"trial_type":"store_order","trial_index":17,"time_elapsed":311938,"internal_node_id":"0.0-17.0"},{"result":165,"points":2,"place":1,"phase":0,"sequence":-1,"prices":[184,180,224,165,181,199,185,193,218,126],"times":[3288,3516,1242,1236],"next_num":4,"trial_type":"ticket-choose","trial_index":18,"time_elapsed":324732,"internal_node_id":"0.0-18.0"},{"rt":16070,"url":"\/tickets\/utils\/testing_after.html","trial_type":"html","trial_index":19,"time_elapsed":342006,"internal_node_id":"0.0-19.0"},{"result":190,"points":1,"place":4,"phase":0,"sequence":0,"prices":[179,203,186,188,193,225,187,207,211,190],"times":[3061,849,982,706,659,756,1429,698,621,952],"next_num":10,"trial_type":"ticket-choose","trial_index":20,"time_elapsed":357123,"internal_node_id":"0.0-20.0"},{"result":168,"points":3,"place":0,"phase":0,"sequence":1,"prices":[203,183,205,200,186,168,180,206,196,204],"times":[1394,949,1168,727,1051,1018],"next_num":6,"trial_type":"ticket-choose","trial_index":21,"time_elapsed":367577,"internal_node_id":"0.0-21.0"},{"result":168,"points":3,"place":0,"phase":0,"sequence":2,"prices":[168,191,170,183,187,240,182,206,207,185],"times":[1530],"next_num":1,"trial_type":"ticket-choose","trial_index":22,"time_elapsed":371543,"internal_node_id":"0.0-22.0"},{"result":174,"points":2,"place":1,"phase":0,"sequence":3,"prices":[188,174,192,205,215,164,204,231,197,247],"times":[1117,1065],"next_num":2,"trial_type":"ticket-choose","trial_index":23,"time_elapsed":376411,"internal_node_id":"0.0-23.0"},{"result":192,"points":1,"place":2,"phase":0,"sequence":4,"prices":[188,212,191,198,208,237,192,215,217,206],"times":[1269,758,745,754,813,750,1249],"next_num":7,"trial_type":"ticket-choose","trial_index":24,"time_elapsed":386618,"internal_node_id":"0.0-24.0"},{"result":177,"points":3,"place":0,"phase":0,"sequence":5,"prices":[221,207,177,204,218,199,208,205,198,190],"times":[1178,799,1006],"next_num":3,"trial_type":"ticket-choose","trial_index":25,"time_elapsed":392534,"internal_node_id":"0.0-25.0"},{"result":172,"points":3,"place":0,"phase":0,"sequence":6,"prices":[220,201,223,172,195,191,180,174,196,211],"times":[1156,888,727,981],"next_num":4,"trial_type":"ticket-choose","trial_index":26,"time_elapsed":399123,"internal_node_id":"0.0-26.0"},{"result":189,"points":1,"place":2,"phase":0,"sequence":7,"prices":[195,206,187,245,199,207,198,189,229,173],"times":[1218,823,1102,745,908,712,892,1740],"next_num":8,"trial_type":"ticket-choose","trial_index":27,"time_elapsed":411007,"internal_node_id":"0.0-27.0"},{"result":167,"points":3,"place":0,"phase":0,"sequence":8,"prices":[201,235,189,167,202,213,197,204,196,199],"times":[1554,1353,1217,919],"next_num":4,"trial_type":"ticket-choose","trial_index":28,"time_elapsed":418853,"internal_node_id":"0.0-28.0"},{"result":183,"points":2,"place":1,"phase":0,"sequence":9,"prices":[195,207,183,246,200,208,196,185,174,228],"times":[1427,627,933],"next_num":3,"trial_type":"ticket-choose","trial_index":29,"time_elapsed":424381,"internal_node_id":"0.0-29.0"},{"result":179,"points":1,"place":2,"phase":0,"sequence":10,"prices":[200,179,169,195,205,161,183,194,198,227],"times":[2299,1327],"next_num":2,"trial_type":"ticket-choose","trial_index":30,"time_elapsed":430354,"internal_node_id":"0.0-30.0"},{"result":183,"points":3,"place":0,"phase":0,"sequence":11,"prices":[188,219,216,218,205,215,247,183,197,186],"times":[1319,650,617,567,569,565,566,962],"next_num":8,"trial_type":"ticket-choose","trial_index":31,"time_elapsed":440176,"internal_node_id":"0.0-31.0"},{"result":187,"points":2,"place":1,"phase":0,"sequence":12,"prices":[195,207,198,245,199,207,187,189,228,173],"times":[1070,573,761,647,798,594,968],"next_num":7,"trial_type":"ticket-choose","trial_index":32,"time_elapsed":449088,"internal_node_id":"0.0-32.0"},{"result":178,"points":2,"place":1,"phase":0,"sequence":13,"prices":[195,206,178,243,200,207,197,186,229,173],"times":[1325,652,927],"next_num":3,"trial_type":"ticket-choose","trial_index":33,"time_elapsed":454787,"internal_node_id":"0.0-33.0"},{"result":183,"points":2,"place":1,"phase":0,"sequence":14,"prices":[195,206,196,244,199,207,183,185,173,230],"times":[1560,727,796,635,574,617,1017],"next_num":7,"trial_type":"ticket-choose","trial_index":34,"time_elapsed":464152,"internal_node_id":"0.0-34.0"},{"result":196,"points":1,"place":3,"phase":0,"sequence":15,"prices":[196,205,197,245,200,206,178,186,229,174],"times":[1243],"next_num":1,"trial_type":"ticket-choose","trial_index":35,"time_elapsed":467620,"internal_node_id":"0.0-35.0"},{"result":178,"points":2,"place":1,"phase":0,"sequence":16,"prices":[196,205,178,245,200,206,197,186,229,174],"times":[1108,645,924],"next_num":3,"trial_type":"ticket-choose","trial_index":36,"time_elapsed":472942,"internal_node_id":"0.0-36.0"},{"result":187,"points":2,"place":1,"phase":0,"sequence":17,"prices":[232,212,208,204,187,213,209,184,196,190],"times":[1099,727,783,759,1257],"next_num":5,"trial_type":"ticket-choose","trial_index":37,"time_elapsed":480601,"internal_node_id":"0.0-37.0"},{"result":175,"points":2,"place":1,"phase":0,"sequence":18,"prices":[201,175,168,181,188,207,192,219,196,214],"times":[929,1071],"next_num":2,"trial_type":"ticket-choose","trial_index":38,"time_elapsed":485048,"internal_node_id":"0.0-38.0"},{"result":181,"points":3,"place":0,"phase":0,"sequence":19,"prices":[181,213,195,201,205,244,200,219,238,204],"times":[1256],"next_num":1,"trial_type":"ticket-choose","trial_index":39,"time_elapsed":488821,"internal_node_id":"0.0-39.0"},{"result":177,"points":3,"place":0,"phase":0,"sequence":20,"prices":[177,211,185,195,202,223,190,215,220,196],"times":[1163],"next_num":1,"trial_type":"ticket-choose","trial_index":40,"time_elapsed":492188,"internal_node_id":"0.0-40.0"},{"result":187,"points":2,"place":1,"phase":0,"sequence":21,"prices":[194,206,198,245,201,208,187,188,228,176],"times":[1497,610,668,736,666,656,1033],"next_num":7,"trial_type":"ticket-choose","trial_index":41,"time_elapsed":501427,"internal_node_id":"0.0-41.0"},{"result":176,"points":3,"place":0,"phase":0,"sequence":22,"prices":[176,221,182,186,205,234,185,222,224,199],"times":[1215],"next_num":1,"trial_type":"ticket-choose","trial_index":42,"time_elapsed":504928,"internal_node_id":"0.0-42.0"},{"result":170,"points":3,"place":0,"phase":0,"sequence":23,"prices":[170,205,174,181,193,219,175,208,211,188],"times":[1341],"next_num":1,"trial_type":"ticket-choose","trial_index":43,"time_elapsed":508372,"internal_node_id":"0.0-43.0"},{"result":205,"points":1,"place":4,"phase":0,"sequence":24,"prices":[189,216,190,204,207,231,191,221,222,205],"times":[2685,626,801,641,604,600,1018,631,521,713],"next_num":10,"trial_type":"ticket-choose","trial_index":44,"time_elapsed":521508,"internal_node_id":"0.0-44.0"},{"result":178,"points":2,"place":1,"phase":0,"sequence":25,"prices":[196,207,178,245,201,207,197,185,228,173],"times":[1354,564,988],"next_num":3,"trial_type":"ticket-choose","trial_index":45,"time_elapsed":526979,"internal_node_id":"0.0-45.0"},{"result":178,"points":2,"place":1,"phase":0,"sequence":26,"prices":[196,207,197,245,201,207,178,185,228,173],"times":[1418,641,690,612,575,614,891],"next_num":7,"trial_type":"ticket-choose","trial_index":46,"time_elapsed":535910,"internal_node_id":"0.0-46.0"},{"result":187,"points":2,"place":1,"phase":0,"sequence":27,"prices":[195,206,198,245,199,207,187,189,229,173],"times":[1457,575,720,621,759,748,968],"next_num":7,"trial_type":"ticket-choose","trial_index":47,"time_elapsed":545238,"internal_node_id":"0.0-47.0"},{"result":183,"points":2,"place":1,"phase":0,"sequence":28,"prices":[194,206,183,245,201,207,196,186,173,229],"times":[1288,683,922],"next_num":3,"trial_type":"ticket-choose","trial_index":48,"time_elapsed":550697,"internal_node_id":"0.0-48.0"},{"result":178,"points":2,"place":1,"phase":0,"sequence":29,"prices":[195,206,178,243,201,208,197,187,228,174],"times":[2311,627,1001],"next_num":3,"trial_type":"ticket-choose","trial_index":49,"time_elapsed":557323,"internal_node_id":"0.0-49.0"},{"result":170,"points":3,"place":0,"phase":0,"sequence":30,"prices":[209,170,195,180,208,227,178,214,198,219],"times":[999,990],"next_num":2,"trial_type":"ticket-choose","trial_index":50,"time_elapsed":561701,"internal_node_id":"0.0-50.0"},{"result":178,"points":2,"place":1,"phase":0,"sequence":31,"prices":[195,206,197,243,200,207,178,186,229,173],"times":[1424,581,690,549,588,619,913],"next_num":7,"trial_type":"ticket-choose","trial_index":51,"time_elapsed":570519,"internal_node_id":"0.0-51.0"},{"result":187,"points":2,"place":1,"phase":0,"sequence":32,"prices":[195,205,198,244,201,206,187,188,228,176],"times":[1076,604,798,611,547,597,873],"next_num":7,"trial_type":"ticket-choose","trial_index":52,"time_elapsed":579027,"internal_node_id":"0.0-52.0"},{"result":181,"points":3,"place":0,"phase":0,"sequence":33,"prices":[181,213,187,207,210,244,194,214,215,208],"times":[1275],"next_num":1,"trial_type":"ticket-choose","trial_index":53,"time_elapsed":582457,"internal_node_id":"0.0-53.0"},{"result":187,"points":2,"place":1,"phase":0,"sequence":34,"prices":[195,207,187,245,199,207,198,189,228,173],"times":[2333,577,985],"next_num":3,"trial_type":"ticket-choose","trial_index":54,"time_elapsed":589393,"internal_node_id":"0.0-54.0"},{"result":187,"points":2,"place":1,"phase":0,"sequence":35,"prices":[194,206,187,245,201,208,198,188,228,176],"times":[1356,612,1117],"next_num":3,"trial_type":"ticket-choose","trial_index":55,"time_elapsed":595094,"internal_node_id":"0.0-55.0"},{"result":185,"points":2,"place":1,"phase":0,"sequence":36,"prices":[208,220,185,192,218,194,197,174,197,200],"times":[961,613,963],"next_num":3,"trial_type":"ticket-choose","trial_index":56,"time_elapsed":600096,"internal_node_id":"0.0-56.0"},{"result":183,"points":2,"place":1,"phase":0,"sequence":37,"prices":[218,213,189,183,222,202,172,184,197,191],"times":[890,540,724,929],"next_num":4,"trial_type":"ticket-choose","trial_index":57,"time_elapsed":605910,"internal_node_id":"0.0-57.0"},{"result":163,"points":3,"place":0,"phase":0,"sequence":38,"prices":[242,193,222,217,163,225,218,203,198,206],"times":[1279,929,586,524,994],"next_num":5,"trial_type":"ticket-choose","trial_index":58,"time_elapsed":613284,"internal_node_id":"0.0-58.0"},{"result":187,"points":2,"place":1,"phase":0,"sequence":39,"prices":[195,205,187,244,201,206,198,188,228,176],"times":[1430,611,1265],"next_num":3,"trial_type":"ticket-choose","trial_index":59,"time_elapsed":619155,"internal_node_id":"0.0-59.0"},{"result":172,"points":3,"place":0,"phase":0,"sequence":40,"prices":[172,220,178,193,202,227,181,222,224,200],"times":[1103],"next_num":1,"trial_type":"ticket-choose","trial_index":60,"time_elapsed":622439,"internal_node_id":"0.0-60.0"},{"result":183,"points":2,"place":1,"phase":0,"sequence":41,"prices":[195,207,196,246,200,208,183,185,174,228],"times":[2057,663,727,582,656,683,892],"next_num":7,"trial_type":"ticket-choose","trial_index":61,"time_elapsed":632323,"internal_node_id":"0.0-61.0"},{"result":175,"points":2,"place":1,"phase":0,"sequence":42,"prices":[221,227,175,178,176,185,187,155,198,197],"times":[1847,786,853],"next_num":3,"trial_type":"ticket-choose","trial_index":62,"time_elapsed":638322,"internal_node_id":"0.0-62.0"},{"result":183,"points":2,"place":1,"phase":0,"sequence":43,"prices":[196,206,196,246,199,207,183,186,173,228],"times":[1036,602,657,731,675,628,921],"next_num":7,"trial_type":"ticket-choose","trial_index":63,"time_elapsed":647293,"internal_node_id":"0.0-63.0"},{"result":183,"points":2,"place":1,"phase":0,"sequence":44,"prices":[195,206,183,244,199,207,196,185,173,230],"times":[1191,642,908],"next_num":3,"trial_type":"ticket-choose","trial_index":64,"time_elapsed":652558,"internal_node_id":"0.0-64.0"},{"result":183,"points":2,"place":1,"phase":0,"sequence":45,"prices":[194,206,196,245,201,207,183,186,173,229],"times":[1139,724,737,599,614,541,870],"next_num":7,"trial_type":"ticket-choose","trial_index":65,"time_elapsed":661602,"internal_node_id":"0.0-65.0"},{"result":187,"points":2,"place":1,"phase":0,"sequence":46,"prices":[209,187,200,217,185,188,192,233,198,191],"times":[1170,893],"next_num":2,"trial_type":"ticket-choose","trial_index":66,"time_elapsed":666013,"internal_node_id":"0.0-66.0"},{"result":178,"points":3,"place":0,"phase":0,"sequence":47,"prices":[230,204,246,213,235,178,219,195,196,228],"times":[853,773,575,643,3804,898],"next_num":6,"trial_type":"ticket-choose","trial_index":67,"time_elapsed":676662,"internal_node_id":"0.0-67.0"},{"result":178,"points":2,"place":1,"phase":0,"sequence":48,"prices":[195,206,197,243,201,208,178,187,228,174],"times":[1126,573,750,532,606,516,833],"next_num":7,"trial_type":"ticket-choose","trial_index":68,"time_elapsed":684919,"internal_node_id":"0.0-68.0"},{"result":183,"points":2,"place":1,"phase":0,"sequence":49,"prices":[196,206,183,246,199,207,196,186,173,228],"times":[1044,561,892],"next_num":3,"trial_type":"ticket-choose","trial_index":69,"time_elapsed":689979,"internal_node_id":"0.0-69.0"},{"responses":[{"value":0,"offby":0,"category":"$145 - $160","category_index":0},{"value":3,"offby":2,"category":"$161 - $175","category_index":1},{"value":6,"offby":3,"category":"$176 - $190","category_index":2},{"value":6,"offby":-1,"category":"$191 - $205","category_index":3},{"value":5,"offby":-1,"category":"$206 - $220","category_index":4},{"value":0,"offby":-3,"category":"$221 - $235","category_index":5},{"value":0,"offby":0,"category":"$226 - $260","category_index":6}],"phase":0,"number":1,"trial_type":"bar-choose","trial_index":70,"time_elapsed":751522,"internal_node_id":"0.0-70.0"},{"rt":5726,"url":"\/tickets\/utils\/start2.html","trial_type":"html","trial_index":71,"time_elapsed":758410,"internal_node_id":"0.0-71.0"},{"trial_type":"number-animation","trial_index":72,"time_elapsed":784294,"internal_node_id":"0.0-72.0"},{"phase":1,"sequence":0,"avg":162,"response":160,"trial_type":"training_avg","trial_index":73,"time_elapsed":791411,"internal_node_id":"0.0-73.0"},{"trial_type":"number-animation","trial_index":74,"time_elapsed":805485,"internal_node_id":"0.0-74.0"},{"phase":1,"sequence":1,"avg":158,"response":157,"trial_type":"training_avg","trial_index":75,"time_elapsed":811839,"internal_node_id":"0.0-75.0"},{"trial_type":"number-animation","trial_index":76,"time_elapsed":825221,"internal_node_id":"0.0-76.0"},{"phase":1,"sequence":2,"avg":166,"response":160,"trial_type":"training_avg","trial_index":77,"time_elapsed":831838,"internal_node_id":"0.0-77.0"},{"trial_type":"number-animation","trial_index":78,"time_elapsed":845329,"internal_node_id":"0.0-78.0"},{"phase":1,"sequence":3,"avg":153,"response":157,"trial_type":"training_avg","trial_index":79,"time_elapsed":851548,"internal_node_id":"0.0-79.0"},{"trial_type":"number-animation","trial_index":80,"time_elapsed":1019025,"internal_node_id":"0.0-80.0"},{"phase":1,"sequence":4,"avg":164,"response":157,"trial_type":"training_avg","trial_index":81,"time_elapsed":1026030,"internal_node_id":"0.0-81.0"},{"responses":[{"value":0,"offby":0,"category":"$105 - $120","category_index":0},{"value":1,"offby":0,"category":"$121 - $135","category_index":1},{"value":7,"offby":4,"category":"$136 - $150","category_index":2},{"value":10,"offby":3,"category":"$151 - $165","category_index":3},{"value":2,"offby":-4,"category":"$166 - $180","category_index":4},{"value":0,"offby":-3,"category":"$181 - $195","category_index":5},{"value":0,"offby":0,"category":"$196 - $210","category_index":6}],"phase":1,"number":0,"trial_type":"bar-choose","trial_index":82,"time_elapsed":1059093,"internal_node_id":"0.0-82.0"},{"rt":1576,"url":"\/tickets\/utils\/testing2.html","trial_type":"html","trial_index":83,"time_elapsed":1061833,"internal_node_id":"0.0-83.0"},{"phase":1,"order":[33,49,31,35,27,43,47,10,48,1,44,38,15,16,7,23,19,45,34,24,30,12,25,29,28,18,22,14,2,17,40,20,13,32,11,8,36,37,42,9,26,5,41,4,3,6,39,46,21,0],"trial_type":"store_order","trial_index":84,"time_elapsed":1062840,"internal_node_id":"0.0-84.0"},{"result":145,"points":1,"place":2,"phase":1,"sequence":0,"prices":[155,166,143,204,159,167,156,145,133,190],"times":[2811,787,1048,791,742,1135,905,1166],"next_num":8,"trial_type":"ticket-choose","trial_index":85,"time_elapsed":1075890,"internal_node_id":"0.0-85.0"},{"result":135,"points":2,"place":1,"phase":1,"sequence":1,"prices":[161,135,128,141,148,167,152,179,156,174],"times":[1054,977],"next_num":2,"trial_type":"ticket-choose","trial_index":86,"time_elapsed":1080129,"internal_node_id":"0.0-86.0"},{"result":130,"points":3,"place":0,"phase":1,"sequence":2,"prices":[169,130,155,140,168,187,138,174,158,179],"times":[2485,985],"next_num":2,"trial_type":"ticket-choose","trial_index":87,"time_elapsed":1085759,"internal_node_id":"0.0-87.0"},{"result":128,"points":3,"place":0,"phase":1,"sequence":3,"prices":[128,151,130,143,147,200,142,166,167,145],"times":[1185],"next_num":1,"trial_type":"ticket-choose","trial_index":88,"time_elapsed":1089084,"internal_node_id":"0.0-88.0"},{"result":165,"points":1,"place":4,"phase":1,"sequence":4,"prices":[149,176,150,164,167,191,151,181,182,165],"times":[870,589,607,593,621,544,549,557,557,960],"next_num":10,"trial_type":"ticket-choose","trial_index":89,"time_elapsed":1099562,"internal_node_id":"0.0-89.0"},{"result":136,"points":3,"place":0,"phase":1,"sequence":5,"prices":[136,181,142,146,165,194,145,182,184,159],"times":[1016],"next_num":1,"trial_type":"ticket-choose","trial_index":90,"time_elapsed":1102507,"internal_node_id":"0.0-90.0"},{"result":149,"points":1,"place":2,"phase":1,"sequence":6,"prices":[155,166,147,205,159,167,158,149,189,133],"times":[1301,550,720,603,806,611,574,1087],"next_num":8,"trial_type":"ticket-choose","trial_index":91,"time_elapsed":1112196,"internal_node_id":"0.0-91.0"},{"result":138,"points":2,"place":1,"phase":1,"sequence":7,"prices":[155,166,138,203,160,167,157,146,189,133],"times":[1137,566,975],"next_num":3,"trial_type":"ticket-choose","trial_index":92,"time_elapsed":1117375,"internal_node_id":"0.0-92.0"},{"result":138,"points":2,"place":1,"phase":1,"sequence":8,"prices":[156,167,157,205,161,167,138,145,188,133],"times":[795,744,561,597,603,976,1031],"next_num":7,"trial_type":"ticket-choose","trial_index":93,"time_elapsed":1126147,"internal_node_id":"0.0-93.0"},{"result":166,"points":1,"place":4,"phase":1,"sequence":9,"prices":[148,172,151,158,168,197,152,175,177,166],"times":[892,533,574,570,527,542,659,621,502,880],"next_num":10,"trial_type":"ticket-choose","trial_index":94,"time_elapsed":1136328,"internal_node_id":"0.0-94.0"},{"result":147,"points":2,"place":1,"phase":1,"sequence":10,"prices":[155,165,158,204,161,166,147,148,188,136],"times":[873,545,734,566,641,829,1241],"next_num":7,"trial_type":"ticket-choose","trial_index":95,"time_elapsed":1145145,"internal_node_id":"0.0-95.0"},{"result":130,"points":3,"place":0,"phase":1,"sequence":11,"prices":[130,165,134,141,153,179,135,168,171,148],"times":[1012],"next_num":1,"trial_type":"ticket-choose","trial_index":96,"time_elapsed":1148529,"internal_node_id":"0.0-96.0"},{"result":138,"points":3,"place":0,"phase":1,"sequence":12,"prices":[190,164,206,173,195,138,179,155,156,188],"times":[873,673,625,832,778,909],"next_num":6,"trial_type":"ticket-choose","trial_index":97,"time_elapsed":1156343,"internal_node_id":"0.0-97.0"},{"result":135,"points":2,"place":1,"phase":1,"sequence":13,"prices":[181,187,135,138,136,145,147,115,158,157],"times":[910,559,931],"next_num":3,"trial_type":"ticket-choose","trial_index":98,"time_elapsed":1161411,"internal_node_id":"0.0-98.0"},{"result":132,"points":3,"place":0,"phase":1,"sequence":14,"prices":[132,180,138,153,162,187,141,182,184,160],"times":[1138],"next_num":1,"trial_type":"ticket-choose","trial_index":99,"time_elapsed":1165036,"internal_node_id":"0.0-99.0"},{"result":143,"points":2,"place":1,"phase":1,"sequence":15,"prices":[178,173,149,143,182,162,132,144,157,151],"times":[1068,630,1155,961],"next_num":4,"trial_type":"ticket-choose","trial_index":100,"time_elapsed":1171519,"internal_node_id":"0.0-100.0"},{"result":143,"points":2,"place":1,"phase":1,"sequence":16,"prices":[155,167,156,206,160,168,143,145,134,188],"times":[828,604,736,697,711,598,1177],"next_num":7,"trial_type":"ticket-choose","trial_index":101,"time_elapsed":1180278,"internal_node_id":"0.0-101.0"},{"result":143,"points":1,"place":2,"phase":1,"sequence":17,"prices":[163,143,165,160,146,128,140,166,156,164],"times":[1034,884],"next_num":2,"trial_type":"ticket-choose","trial_index":102,"time_elapsed":1184538,"internal_node_id":"0.0-102.0"},{"result":147,"points":2,"place":1,"phase":1,"sequence":18,"prices":[155,166,158,205,159,167,147,149,189,133],"times":[1406,681,611,641,651,681,1022],"next_num":7,"trial_type":"ticket-choose","trial_index":103,"time_elapsed":1193746,"internal_node_id":"0.0-103.0"},{"result":138,"points":2,"place":1,"phase":1,"sequence":19,"prices":[155,166,157,203,161,168,138,147,188,134],"times":[858,604,551,609,648,564,892],"next_num":7,"trial_type":"ticket-choose","trial_index":104,"time_elapsed":1201924,"internal_node_id":"0.0-104.0"},{"result":133,"points":3,"place":0,"phase":1,"sequence":20,"prices":[156,166,143,206,159,167,156,146,133,188],"times":[907,556,709,589,593,605,561,868,928],"next_num":9,"trial_type":"ticket-choose","trial_index":105,"time_elapsed":1212267,"internal_node_id":"0.0-105.0"},{"result":143,"points":2,"place":1,"phase":1,"sequence":21,"prices":[154,166,156,205,161,167,143,146,133,189],"times":[894,638,813,588,649,563,900],"next_num":7,"trial_type":"ticket-choose","trial_index":106,"time_elapsed":1220741,"internal_node_id":"0.0-106.0"},{"result":147,"points":2,"place":1,"phase":1,"sequence":22,"prices":[154,166,158,205,161,168,147,148,188,136],"times":[1156,681,564,618,666,610,980],"next_num":7,"trial_type":"ticket-choose","trial_index":107,"time_elapsed":1229410,"internal_node_id":"0.0-107.0"},{"result":123,"points":3,"place":0,"phase":1,"sequence":23,"prices":[202,153,182,177,123,185,178,163,158,166],"times":[1176,657,549,576,869],"next_num":5,"trial_type":"ticket-choose","trial_index":108,"time_elapsed":1236247,"internal_node_id":"0.0-108.0"},{"result":138,"points":2,"place":1,"phase":1,"sequence":24,"prices":[155,166,157,203,160,167,138,146,189,133],"times":[986,689,569,739,731,668,807],"next_num":7,"trial_type":"ticket-choose","trial_index":109,"time_elapsed":1244751,"internal_node_id":"0.0-109.0"},{"result":143,"points":2,"place":1,"phase":1,"sequence":25,"prices":[155,166,156,204,159,167,143,145,133,190],"times":[871,611,596,542,571,539,957],"next_num":7,"trial_type":"ticket-choose","trial_index":110,"time_elapsed":1252869,"internal_node_id":"0.0-110.0"},{"result":137,"points":3,"place":0,"phase":1,"sequence":26,"prices":[181,167,137,164,178,159,168,165,158,150],"times":[621,821,1181],"next_num":3,"trial_type":"ticket-choose","trial_index":111,"time_elapsed":1257877,"internal_node_id":"0.0-111.0"},{"result":138,"points":2,"place":1,"phase":1,"sequence":27,"prices":[156,165,138,205,160,166,157,146,189,134],"times":[944,533,1109],"next_num":3,"trial_type":"ticket-choose","trial_index":112,"time_elapsed":1262930,"internal_node_id":"0.0-112.0"},{"result":154,"points":1,"place":3,"phase":1,"sequence":28,"prices":[168,180,145,152,178,154,157,134,157,160],"times":[1586,545,670,623,599,885],"next_num":6,"trial_type":"ticket-choose","trial_index":113,"time_elapsed":1270967,"internal_node_id":"0.0-113.0"},{"result":138,"points":2,"place":1,"phase":1,"sequence":29,"prices":[156,167,138,205,161,167,157,145,188,133],"times":[931,621,868],"next_num":3,"trial_type":"ticket-choose","trial_index":114,"time_elapsed":1276004,"internal_node_id":"0.0-114.0"},{"result":143,"points":3,"place":0,"phase":1,"sequence":30,"prices":[148,179,176,178,165,175,207,143,157,146],"times":[1172,580,542,539,571,557,566,1624],"next_num":8,"trial_type":"ticket-choose","trial_index":115,"time_elapsed":1285947,"internal_node_id":"0.0-115.0"},{"result":138,"points":2,"place":1,"phase":1,"sequence":31,"prices":[155,166,138,203,161,168,157,147,188,134],"times":[1168,691,1022],"next_num":3,"trial_type":"ticket-choose","trial_index":116,"time_elapsed":1291444,"internal_node_id":"0.0-116.0"},{"result":139,"points":3,"place":0,"phase":1,"sequence":32,"prices":[139,163,146,148,153,185,147,167,171,150],"times":[1627],"next_num":1,"trial_type":"ticket-choose","trial_index":117,"time_elapsed":1295269,"internal_node_id":"0.0-117.0"},{"result":147,"points":2,"place":1,"phase":1,"sequence":33,"prices":[155,165,147,204,161,166,158,148,188,136],"times":[911,556,1127],"next_num":3,"trial_type":"ticket-choose","trial_index":118,"time_elapsed":1300547,"internal_node_id":"0.0-118.0"},{"result":137,"points":3,"place":0,"phase":1,"sequence":34,"prices":[137,171,145,155,162,183,150,175,180,156],"times":[1041],"next_num":1,"trial_type":"ticket-choose","trial_index":119,"time_elapsed":1303938,"internal_node_id":"0.0-119.0"},{"result":147,"points":2,"place":1,"phase":1,"sequence":35,"prices":[155,167,158,205,159,167,147,149,188,133],"times":[1078,563,566,567,600,661,900],"next_num":7,"trial_type":"ticket-choose","trial_index":120,"time_elapsed":1312245,"internal_node_id":"0.0-120.0"},{"result":141,"points":3,"place":0,"phase":1,"sequence":36,"prices":[141,173,155,161,165,204,160,179,198,164],"times":[1015],"next_num":1,"trial_type":"ticket-choose","trial_index":121,"time_elapsed":1318378,"internal_node_id":"0.0-121.0"},{"result":134,"points":2,"place":1,"phase":1,"sequence":37,"prices":[148,134,152,165,175,124,164,191,157,207],"times":[1135,1288],"next_num":2,"trial_type":"ticket-choose","trial_index":122,"time_elapsed":1323352,"internal_node_id":"0.0-122.0"},{"result":136,"points":3,"place":0,"phase":1,"sequence":38,"prices":[154,166,147,205,161,168,158,148,188,136],"times":[1060,563,823,603,597,573,593,802,549,775],"next_num":10,"trial_type":"ticket-choose","trial_index":123,"time_elapsed":1334355,"internal_node_id":"0.0-123.0"},{"result":144,"points":3,"place":0,"phase":1,"sequence":39,"prices":[192,172,168,164,147,173,169,144,156,150],"times":[795,533,606,614,1100,605,611,1141],"next_num":8,"trial_type":"ticket-choose","trial_index":124,"time_elapsed":1344199,"internal_node_id":"0.0-124.0"},{"result":168,"points":1,"place":4,"phase":1,"sequence":40,"prices":[141,173,147,167,170,204,154,174,175,168],"times":[1077,591,636,564,581,571,775,627,566,768],"next_num":10,"trial_type":"ticket-choose","trial_index":125,"time_elapsed":1355180,"internal_node_id":"0.0-125.0"},{"result":157,"points":1,"place":3,"phase":1,"sequence":41,"prices":[161,195,149,127,162,173,157,164,156,159],"times":[2063,555,804,567,1592,890,940],"next_num":7,"trial_type":"ticket-choose","trial_index":126,"time_elapsed":1365903,"internal_node_id":"0.0-126.0"},{"result":143,"points":2,"place":1,"phase":1,"sequence":42,"prices":[155,167,143,206,160,168,156,145,134,188],"times":[910,634,1018],"next_num":3,"trial_type":"ticket-choose","trial_index":127,"time_elapsed":1371009,"internal_node_id":"0.0-127.0"},{"result":147,"points":2,"place":1,"phase":1,"sequence":43,"prices":[169,147,160,177,145,148,152,193,158,151],"times":[886,989],"next_num":2,"trial_type":"ticket-choose","trial_index":128,"time_elapsed":1375131,"internal_node_id":"0.0-128.0"},{"result":139,"points":1,"place":2,"phase":1,"sequence":44,"prices":[160,139,129,155,165,121,143,154,158,187],"times":[2193,976],"next_num":2,"trial_type":"ticket-choose","trial_index":129,"time_elapsed":1380845,"internal_node_id":"0.0-129.0"},{"result":146,"points":1,"place":2,"phase":1,"sequence":45,"prices":[154,166,143,205,161,167,156,146,133,189],"times":[867,621,672,611,597,510,722,1079],"next_num":8,"trial_type":"ticket-choose","trial_index":130,"time_elapsed":1390068,"internal_node_id":"0.0-130.0"},{"result":133,"points":3,"place":0,"phase":1,"sequence":46,"prices":[155,167,147,205,159,167,158,149,188,133],"times":[1126,549,805,581,566,573,650,969,1079,621],"next_num":10,"trial_type":"ticket-choose","trial_index":131,"time_elapsed":1407301,"internal_node_id":"0.0-131.0"},{"result":132,"points":3,"place":0,"phase":1,"sequence":47,"prices":[180,161,183,132,155,151,140,134,156,171],"times":[945,689,544,838],"next_num":4,"trial_type":"ticket-choose","trial_index":132,"time_elapsed":1413115,"internal_node_id":"0.0-132.0"},{"result":143,"points":2,"place":1,"phase":1,"sequence":48,"prices":[156,166,156,206,159,167,143,146,133,188],"times":[970,595,546,556,574,631,792],"next_num":7,"trial_type":"ticket-choose","trial_index":133,"time_elapsed":1421053,"internal_node_id":"0.0-133.0"},{"result":138,"points":2,"place":1,"phase":1,"sequence":49,"prices":[156,165,157,205,160,166,138,146,189,134],"times":[1078,532,571,542,526,537,806],"next_num":7,"trial_type":"ticket-choose","trial_index":134,"time_elapsed":1429061,"internal_node_id":"0.0-134.0"},{"responses":[{"value":0,"offby":0,"category":"$105 - $120","category_index":0},{"value":2,"offby":1,"category":"$121 - $135","category_index":1},{"value":12,"offby":9,"category":"$136 - $150","category_index":2},{"value":5,"offby":-2,"category":"$151 - $165","category_index":3},{"value":1,"offby":-5,"category":"$166 - $180","category_index":4},{"value":0,"offby":-3,"category":"$181 - $195","category_index":5},{"value":0,"offby":0,"category":"$196 - $210","category_index":6}],"phase":1,"number":1,"trial_type":"bar-choose","trial_index":135,"time_elapsed":1456905,"internal_node_id":"0.0-135.0"},{"special_comment":"no","trial_type":"special_sequence","trial_index":136,"time_elapsed":1463278,"internal_node_id":"0.0-136.0"},{"during":"Nothing","bonus":288,"trial_type":"final","trial_index":137,"time_elapsed":1482526,"internal_node_id":"0.0-137.0"}],"bonus":288}