{"start_time":"2017-02-22 10:39:34","end_time":"2017-02-22 10:58:14","points_phase0":99,"points_phase1":90,"phase_order":1,"age":32,"gender":"m","tries":1,"during":"Nothing","worker_id":"A288TV72SGDQWE","assignment_id":"3D8YOU6S9FD42F832W7SWXEQAPF6U8","data":[{"rt":11149,"url":"\/tickets\/utils\/consent.html","trial_type":"html","trial_index":0,"time_elapsed":11402,"internal_node_id":"0.0-0.0"},{"age":32,"gender":"m","trial_type":"age","trial_index":1,"time_elapsed":15873,"internal_node_id":"0.0-1.0"},{"worker_id":"A288TV72SGDQWE","trial_type":"workerid","trial_index":2,"time_elapsed":24618,"internal_node_id":"0.0-2.0"},{"tries":1,"trial_type":"instructions_check","trial_index":3,"time_elapsed":52889,"internal_node_id":"0.0-3.0"},{"rt":9172,"url":"\/tickets\/utils\/start.html","trial_type":"html","trial_index":4,"time_elapsed":63240,"internal_node_id":"0.0-4.0"},{"trial_type":"number-animation","trial_index":5,"time_elapsed":77128,"internal_node_id":"0.0-5.0"},{"phase":0,"sequence":0,"avg":182,"response":163,"trial_type":"training_avg","trial_index":6,"time_elapsed":85122,"internal_node_id":"0.0-6.0"},{"trial_type":"number-animation","trial_index":7,"time_elapsed":93544,"internal_node_id":"0.0-7.0"},{"phase":0,"sequence":1,"avg":188,"response":200,"trial_type":"training_avg","trial_index":8,"time_elapsed":102418,"internal_node_id":"0.0-8.0"},{"trial_type":"number-animation","trial_index":9,"time_elapsed":111032,"internal_node_id":"0.0-9.0"},{"phase":0,"sequence":2,"avg":176,"response":144,"trial_type":"training_avg","trial_index":10,"time_elapsed":120458,"internal_node_id":"0.0-10.0"},{"trial_type":"number-animation","trial_index":11,"time_elapsed":136560,"internal_node_id":"0.0-11.0"},{"phase":0,"sequence":3,"avg":180,"response":178,"trial_type":"training_avg","trial_index":12,"time_elapsed":143297,"internal_node_id":"0.0-12.0"},{"trial_type":"number-animation","trial_index":13,"time_elapsed":153392,"internal_node_id":"0.0-13.0"},{"phase":0,"sequence":4,"avg":174,"response":170,"trial_type":"training_avg","trial_index":14,"time_elapsed":159289,"internal_node_id":"0.0-14.0"},{"responses":[{"value":0,"offby":-1,"category":"$90 - $120","category_index":0},{"value":3,"offby":0,"category":"$121 - $145","category_index":1},{"value":7,"offby":4,"category":"$146 - $170","category_index":2},{"value":6,"offby":0,"category":"$171 - $195","category_index":3},{"value":3,"offby":-1,"category":"$196 - $220","category_index":4},{"value":1,"offby":-1,"category":"$221 - $245","category_index":5},{"value":0,"offby":-1,"category":"$246 - $270","category_index":6}],"phase":0,"number":0,"trial_type":"bar-choose","trial_index":15,"time_elapsed":196761,"internal_node_id":"0.0-15.0"},{"rt":14634,"url":"\/tickets\/\/utils\/testing.html","trial_type":"html","trial_index":16,"time_elapsed":212568,"internal_node_id":"0.0-16.0"},{"phase":0,"order":[38,17,39,14,24,15,26,44,20,33,2,34,8,19,18,36,3,25,16,47,9,4,6,0,27,48,43,1,42,28,37,10,30,5,49,7,11,12,29,46,35,22,45,41,23,21,40,31,13,32],"trial_type":"store_order","trial_index":17,"time_elapsed":213569,"internal_node_id":"0.0-17.0"},{"result":126,"points":3,"place":0,"phase":0,"sequence":-1,"prices":[184,180,224,165,181,199,185,193,218,126],"times":[629,525,374,349,375,350,402,385,383,432],"next_num":11,"trial_type":"ticket-choose","trial_index":18,"time_elapsed":222848,"internal_node_id":"0.0-18.0"},{"rt":12921,"url":"\/tickets\/utils\/testing_after.html","trial_type":"html","trial_index":19,"time_elapsed":236939,"internal_node_id":"0.0-19.0"},{"result":126,"points":3,"place":0,"phase":0,"sequence":0,"prices":[168,191,146,252,183,193,172,153,126,238],"times":[1682,677,910,687,598,557,654,2006,1072],"next_num":9,"trial_type":"ticket-choose","trial_index":20,"time_elapsed":250942,"internal_node_id":"0.0-20.0"},{"result":129,"points":2,"place":1,"phase":0,"sequence":1,"prices":[155,129,164,189,210,108,187,241,174,275],"times":[889,1190],"next_num":2,"trial_type":"ticket-choose","trial_index":21,"time_elapsed":256208,"internal_node_id":"0.0-21.0"},{"result":196,"points":1,"place":4,"phase":0,"sequence":2,"prices":[143,206,153,194,201,267,168,208,210,196],"times":[552,542,590,487,551,524,799,527,1054,847],"next_num":10,"trial_type":"ticket-choose","trial_index":22,"time_elapsed":266729,"internal_node_id":"0.0-22.0"},{"result":136,"points":2,"place":1,"phase":0,"sequence":3,"prices":[170,192,174,242,181,196,136,153,236,128],"times":[553,478,471,591,463,511,920],"next_num":7,"trial_type":"ticket-choose","trial_index":23,"time_elapsed":274384,"internal_node_id":"0.0-23.0"},{"result":136,"points":2,"place":1,"phase":0,"sequence":4,"prices":[172,194,174,243,182,193,136,150,237,126],"times":[1545,423,368,503,501,567,1040],"next_num":7,"trial_type":"ticket-choose","trial_index":24,"time_elapsed":282731,"internal_node_id":"0.0-24.0"},{"result":162,"points":1,"place":3,"phase":0,"sequence":5,"prices":[197,153,181,215,150,155,164,247,177,162],"times":[508,439,414,464,439,752,567,598,486,728],"next_num":10,"trial_type":"ticket-choose","trial_index":25,"time_elapsed":291920,"internal_node_id":"0.0-25.0"},{"result":136,"points":3,"place":0,"phase":0,"sequence":6,"prices":[240,188,273,207,250,136,217,170,171,236],"times":[567,502,453,495,486,1056],"next_num":6,"trial_type":"ticket-choose","trial_index":26,"time_elapsed":298665,"internal_node_id":"0.0-26.0"},{"result":176,"points":0,"place":5,"phase":0,"sequence":7,"prices":[196,221,149,164,216,167,175,128,176,181],"times":[406,367,462,461,471,479,534,520,943],"next_num":9,"trial_type":"ticket-choose","trial_index":27,"time_elapsed":307177,"internal_node_id":"0.0-27.0"},{"result":152,"points":1,"place":2,"phase":0,"sequence":8,"prices":[173,191,146,242,178,194,172,152,126,235],"times":[480,448,567,567,486,543,542,992],"next_num":8,"trial_type":"ticket-choose","trial_index":28,"time_elapsed":315288,"internal_node_id":"0.0-28.0"},{"result":135,"points":3,"place":0,"phase":0,"sequence":9,"prices":[135,202,150,169,183,225,160,211,220,172],"times":[1250],"next_num":1,"trial_type":"ticket-choose","trial_index":29,"time_elapsed":319112,"internal_node_id":"0.0-29.0"},{"result":145,"points":2,"place":1,"phase":0,"sequence":10,"prices":[216,206,158,145,224,185,124,149,175,162],"times":[528,438,687,1002],"next_num":4,"trial_type":"ticket-choose","trial_index":30,"time_elapsed":324488,"internal_node_id":"0.0-30.0"},{"result":120,"points":2,"place":1,"phase":0,"sequence":11,"prices":[117,161,120,147,153,259,144,191,195,149],"times":[495,703,1016],"next_num":3,"trial_type":"ticket-choose","trial_index":31,"time_elapsed":329120,"internal_node_id":"0.0-31.0"},{"result":146,"points":3,"place":0,"phase":0,"sequence":12,"prices":[156,218,212,216,191,210,275,146,174,152],"times":[681,482,535,551,590,519,503,1128],"next_num":8,"trial_type":"ticket-choose","trial_index":32,"time_elapsed":337776,"internal_node_id":"0.0-32.0"},{"result":189,"points":1,"place":4,"phase":0,"sequence":13,"prices":[157,213,159,187,194,242,161,222,225,189],"times":[962,510,446,534,511,487,888,526,479,655],"next_num":10,"trial_type":"ticket-choose","trial_index":33,"time_elapsed":347624,"internal_node_id":"0.0-33.0"},{"result":136,"points":2,"place":1,"phase":0,"sequence":14,"prices":[173,194,136,239,182,200,174,150,236,127],"times":[776,470,936],"next_num":3,"trial_type":"ticket-choose","trial_index":34,"time_elapsed":352353,"internal_node_id":"0.0-34.0"},{"result":116,"points":3,"place":0,"phase":0,"sequence":15,"prices":[186,146,191,179,152,116,140,201,172,187],"times":[672,599,464,480,535,991],"next_num":6,"trial_type":"ticket-choose","trial_index":35,"time_elapsed":359176,"internal_node_id":"0.0-35.0"},{"result":136,"points":2,"place":1,"phase":0,"sequence":16,"prices":[169,192,174,246,180,195,136,152,238,126],"times":[609,492,574,535,570,523,1088],"next_num":7,"trial_type":"ticket-choose","trial_index":36,"time_elapsed":367093,"internal_node_id":"0.0-36.0"},{"result":121,"points":3,"place":0,"phase":0,"sequence":17,"prices":[121,191,128,141,166,217,129,196,202,157],"times":[1145],"next_num":1,"trial_type":"ticket-choose","trial_index":37,"time_elapsed":370640,"internal_node_id":"0.0-37.0"},{"result":149,"points":3,"place":0,"phase":0,"sequence":18,"prices":[244,203,196,189,154,206,197,149,171,159],"times":[615,829,502,495,799,535,510,785],"next_num":8,"trial_type":"ticket-choose","trial_index":38,"time_elapsed":379648,"internal_node_id":"0.0-38.0"},{"result":188,"points":1,"place":4,"phase":0,"sequence":19,"prices":[142,207,171,182,190,269,180,218,256,188],"times":[888,502,542,474,503,670,518,511,510,736],"next_num":10,"trial_type":"ticket-choose","trial_index":39,"time_elapsed":389384,"internal_node_id":"0.0-39.0"},{"result":114,"points":3,"place":0,"phase":0,"sequence":20,"prices":[182,249,159,114,184,205,175,189,172,178],"times":[975,502,447,831],"next_num":4,"trial_type":"ticket-choose","trial_index":40,"time_elapsed":395000,"internal_node_id":"0.0-40.0"},{"result":156,"points":1,"place":2,"phase":0,"sequence":21,"prices":[168,192,154,237,182,196,176,156,235,133],"times":[896,511,919,470,511,487,527,775],"next_num":8,"trial_type":"ticket-choose","trial_index":41,"time_elapsed":403616,"internal_node_id":"0.0-41.0"},{"result":156,"points":1,"place":2,"phase":0,"sequence":22,"prices":[168,192,176,242,183,197,154,156,237,132],"times":[675,915,448,510,581,478,566,1199],"next_num":8,"trial_type":"ticket-choose","trial_index":42,"time_elapsed":412360,"internal_node_id":"0.0-42.0"},{"result":130,"points":2,"place":1,"phase":0,"sequence":23,"prices":[181,130,116,142,157,193,165,218,173,207],"times":[735,1130],"next_num":2,"trial_type":"ticket-choose","trial_index":43,"time_elapsed":416568,"internal_node_id":"0.0-43.0"},{"result":125,"points":3,"place":0,"phase":0,"sequence":24,"prices":[169,192,176,244,178,194,154,159,237,125],"times":[504,526,464,495,479,656,1142,543,924,768],"next_num":10,"trial_type":"ticket-choose","trial_index":44,"time_elapsed":428075,"internal_node_id":"0.0-44.0"},{"result":154,"points":2,"place":1,"phase":0,"sequence":25,"prices":[169,191,154,268,183,197,176,155,236,133],"times":[2811,461,722],"next_num":3,"trial_type":"ticket-choose","trial_index":45,"time_elapsed":434448,"internal_node_id":"0.0-45.0"},{"result":135,"points":3,"place":0,"phase":0,"sequence":26,"prices":[221,193,135,188,217,179,196,190,175,159],"times":[564,623,848],"next_num":3,"trial_type":"ticket-choose","trial_index":46,"time_elapsed":439641,"internal_node_id":"0.0-46.0"},{"result":136,"points":2,"place":1,"phase":0,"sequence":27,"prices":[172,190,136,270,179,192,174,152,237,129],"times":[766,479,728],"next_num":3,"trial_type":"ticket-choose","trial_index":47,"time_elapsed":444152,"internal_node_id":"0.0-47.0"},{"result":158,"points":1,"place":2,"phase":0,"sequence":28,"prices":[169,193,154,255,178,194,176,158,239,126],"times":[511,472,702,494,479,487,487,792],"next_num":8,"trial_type":"ticket-choose","trial_index":48,"time_elapsed":451976,"internal_node_id":"0.0-48.0"},{"result":146,"points":2,"place":1,"phase":0,"sequence":29,"prices":[169,193,146,237,180,196,172,150,129,236],"times":[611,549,807],"next_num":3,"trial_type":"ticket-choose","trial_index":49,"time_elapsed":456232,"internal_node_id":"0.0-49.0"},{"result":129,"points":2,"place":1,"phase":0,"sequence":30,"prices":[219,183,227,124,176,161,140,129,171,201],"times":[527,599,495,481,541,800,935,1003],"next_num":8,"trial_type":"ticket-choose","trial_index":50,"time_elapsed":464976,"internal_node_id":"0.0-50.0"},{"result":149,"points":1,"place":2,"phase":0,"sequence":31,"prices":[170,193,146,268,178,195,172,149,126,241],"times":[743,519,935,535,519,520,655,768],"next_num":8,"trial_type":"ticket-choose","trial_index":51,"time_elapsed":473514,"internal_node_id":"0.0-51.0"},{"result":127,"points":3,"place":0,"phase":0,"sequence":32,"prices":[169,194,154,271,178,201,176,158,236,127],"times":[623,582,680,510,552,535,551,1000,487,615],"next_num":10,"trial_type":"ticket-choose","trial_index":52,"time_elapsed":483536,"internal_node_id":"0.0-52.0"},{"result":154,"points":2,"place":1,"phase":0,"sequence":33,"prices":[170,193,176,245,178,194,154,159,236,126],"times":[568,368,456,582,991,479,728],"next_num":7,"trial_type":"ticket-choose","trial_index":53,"time_elapsed":490809,"internal_node_id":"0.0-53.0"},{"result":154,"points":2,"place":1,"phase":0,"sequence":34,"prices":[170,190,176,251,183,192,154,157,236,131],"times":[415,655,441,510,454,535,717],"next_num":7,"trial_type":"ticket-choose","trial_index":54,"time_elapsed":497810,"internal_node_id":"0.0-54.0"},{"result":146,"points":2,"place":1,"phase":0,"sequence":35,"prices":[171,195,172,242,179,196,146,150,128,235],"times":[421,480,454,535,472,502,744],"next_num":7,"trial_type":"ticket-choose","trial_index":55,"time_elapsed":504537,"internal_node_id":"0.0-55.0"},{"result":118,"points":2,"place":1,"phase":0,"sequence":36,"prices":[181,138,118,170,190,101,146,169,175,233],"times":[471,397,745],"next_num":3,"trial_type":"ticket-choose","trial_index":56,"time_elapsed":508481,"internal_node_id":"0.0-56.0"},{"result":146,"points":2,"place":1,"phase":0,"sequence":37,"prices":[171,191,172,268,179,194,146,150,127,239],"times":[563,503,438,457,471,495,671],"next_num":7,"trial_type":"ticket-choose","trial_index":57,"time_elapsed":515312,"internal_node_id":"0.0-57.0"},{"result":136,"points":2,"place":1,"phase":0,"sequence":38,"prices":[171,192,136,265,180,194,174,152,239,127],"times":[839,353,836],"next_num":3,"trial_type":"ticket-choose","trial_index":58,"time_elapsed":519649,"internal_node_id":"0.0-58.0"},{"result":160,"points":1,"place":4,"phase":0,"sequence":39,"prices":[137,187,152,156,166,231,155,194,202,160],"times":[462,584,543,503,519,575,536,566,599,751],"next_num":10,"trial_type":"ticket-choose","trial_index":59,"time_elapsed":529080,"internal_node_id":"0.0-59.0"},{"result":192,"points":1,"place":4,"phase":0,"sequence":40,"prices":[157,205,161,175,197,254,165,210,214,192],"times":[671,463,545,479,535,496,535,832,488,808],"next_num":10,"trial_type":"ticket-choose","trial_index":60,"time_elapsed":538680,"internal_node_id":"0.0-60.0"},{"result":119,"points":3,"place":0,"phase":0,"sequence":41,"prices":[198,119,169,141,195,233,136,208,177,217],"times":[601,815],"next_num":2,"trial_type":"ticket-choose","trial_index":61,"time_elapsed":542576,"internal_node_id":"0.0-61.0"},{"result":179,"points":1,"place":4,"phase":0,"sequence":42,"prices":[124,220,136,165,185,234,143,225,228,179],"times":[545,496,631,609,536,544,735,471,496,776],"next_num":10,"trial_type":"ticket-choose","trial_index":62,"time_elapsed":552418,"internal_node_id":"0.0-62.0"},{"result":128,"points":3,"place":0,"phase":0,"sequence":43,"prices":[171,192,136,243,182,195,174,154,236,128],"times":[911,520,527,496,504,512,551,480,696,663],"next_num":10,"trial_type":"ticket-choose","trial_index":63,"time_elapsed":562480,"internal_node_id":"0.0-63.0"},{"result":105,"points":3,"place":0,"phase":0,"sequence":44,"prices":[263,165,224,214,105,230,215,185,177,193],"times":[807,512,560,504,695],"next_num":5,"trial_type":"ticket-choose","trial_index":64,"time_elapsed":568576,"internal_node_id":"0.0-64.0"},{"result":179,"points":1,"place":4,"phase":0,"sequence":45,"prices":[132,222,144,153,190,248,151,224,228,179],"times":[591,535,608,528,543,520,664,521,500,751],"next_num":10,"trial_type":"ticket-choose","trial_index":65,"time_elapsed":578081,"internal_node_id":"0.0-65.0"},{"result":131,"points":2,"place":1,"phase":0,"sequence":46,"prices":[221,234,131,136,132,149,154,90,176,173],"times":[471,447,695],"next_num":3,"trial_type":"ticket-choose","trial_index":66,"time_elapsed":582080,"internal_node_id":"0.0-66.0"},{"result":146,"points":2,"place":1,"phase":0,"sequence":47,"prices":[172,191,176,272,179,194,146,152,126,235],"times":[936,483,495,504,519,503,785],"next_num":7,"trial_type":"ticket-choose","trial_index":67,"time_elapsed":589552,"internal_node_id":"0.0-67.0"},{"result":136,"points":2,"place":1,"phase":0,"sequence":48,"prices":[173,191,174,270,180,193,136,153,239,129],"times":[1412,539,528,480,584,512,776],"next_num":7,"trial_type":"ticket-choose","trial_index":68,"time_elapsed":598081,"internal_node_id":"0.0-68.0"},{"result":146,"points":2,"place":1,"phase":0,"sequence":49,"prices":[168,191,172,240,183,193,146,151,125,238],"times":[968,867,855,479,472,487,839],"next_num":7,"trial_type":"ticket-choose","trial_index":69,"time_elapsed":606904,"internal_node_id":"0.0-69.0"},{"responses":[{"value":2,"offby":1,"category":"$90 - $120","category_index":0},{"value":3,"offby":0,"category":"$121 - $145","category_index":1},{"value":3,"offby":0,"category":"$146 - $170","category_index":2},{"value":4,"offby":-2,"category":"$171 - $195","category_index":3},{"value":4,"offby":0,"category":"$196 - $220","category_index":4},{"value":3,"offby":1,"category":"$221 - $245","category_index":5},{"value":1,"offby":0,"category":"$246 - $270","category_index":6}],"phase":0,"number":1,"trial_type":"bar-choose","trial_index":70,"time_elapsed":644889,"internal_node_id":"0.0-70.0"},{"rt":7129,"url":"\/tickets\/utils\/start2.html","trial_type":"html","trial_index":71,"time_elapsed":653185,"internal_node_id":"0.0-71.0"},{"trial_type":"number-animation","trial_index":72,"time_elapsed":660472,"internal_node_id":"0.0-72.0"},{"phase":1,"sequence":0,"avg":181,"response":163,"trial_type":"training_avg","trial_index":73,"time_elapsed":668190,"internal_node_id":"0.0-73.0"},{"trial_type":"number-animation","trial_index":74,"time_elapsed":674841,"internal_node_id":"0.0-74.0"},{"phase":1,"sequence":1,"avg":188,"response":174,"trial_type":"training_avg","trial_index":75,"time_elapsed":679437,"internal_node_id":"0.0-75.0"},{"trial_type":"number-animation","trial_index":76,"time_elapsed":685352,"internal_node_id":"0.0-76.0"},{"phase":1,"sequence":2,"avg":188,"response":193,"trial_type":"training_avg","trial_index":77,"time_elapsed":690674,"internal_node_id":"0.0-77.0"},{"trial_type":"number-animation","trial_index":78,"time_elapsed":697552,"internal_node_id":"0.0-78.0"},{"phase":1,"sequence":3,"avg":177,"response":182,"trial_type":"training_avg","trial_index":79,"time_elapsed":703654,"internal_node_id":"0.0-79.0"},{"trial_type":"number-animation","trial_index":80,"time_elapsed":709640,"internal_node_id":"0.0-80.0"},{"phase":1,"sequence":4,"avg":182,"response":169,"trial_type":"training_avg","trial_index":81,"time_elapsed":714916,"internal_node_id":"0.0-81.0"},{"responses":[{"value":1,"offby":1,"category":"$106 - $134","category_index":0},{"value":2,"offby":1,"category":"$135 - $150","category_index":1},{"value":3,"offby":0,"category":"$151 - $165","category_index":2},{"value":5,"offby":-1,"category":"$166 - $180","category_index":3},{"value":5,"offby":-1,"category":"$181 - $195","category_index":4},{"value":3,"offby":0,"category":"$196 - $210","category_index":5},{"value":1,"offby":0,"category":"$211 - $225","category_index":6}],"phase":1,"number":0,"trial_type":"bar-choose","trial_index":82,"time_elapsed":745890,"internal_node_id":"0.0-82.0"},{"rt":14703,"url":"\/tickets\/utils\/testing2.html","trial_type":"html","trial_index":83,"time_elapsed":761790,"internal_node_id":"0.0-83.0"},{"phase":1,"order":[2,35,32,21,22,39,46,36,0,30,37,31,38,28,18,49,20,29,45,24,48,8,12,34,14,9,43,19,10,1,47,3,11,15,13,5,44,7,16,33,27,40,26,17,42,25,41,4,23,6],"trial_type":"store_order","trial_index":84,"time_elapsed":762795,"internal_node_id":"0.0-84.0"},{"result":163,"points":3,"place":0,"phase":1,"sequence":0,"prices":[168,199,196,198,185,195,227,163,177,166],"times":[2329,516,500,493,486,574,510,1123],"next_num":8,"trial_type":"ticket-choose","trial_index":85,"time_elapsed":772893,"internal_node_id":"0.0-85.0"},{"result":158,"points":2,"place":1,"phase":1,"sequence":1,"prices":[175,186,158,209,181,188,177,167,208,154],"times":[534,470,797],"next_num":3,"trial_type":"ticket-choose","trial_index":86,"time_elapsed":776954,"internal_node_id":"0.0-86.0"},{"result":171,"points":1,"place":3,"phase":1,"sequence":2,"prices":[189,167,180,197,165,168,172,213,178,171],"times":[467,446,454,447,621,710,1039,566,486,759],"next_num":10,"trial_type":"ticket-choose","trial_index":87,"time_elapsed":786536,"internal_node_id":"0.0-87.0"},{"result":167,"points":2,"place":1,"phase":1,"sequence":3,"prices":[175,186,178,212,179,187,167,169,209,153],"times":[703,479,455,511,463,519,795],"next_num":7,"trial_type":"ticket-choose","trial_index":88,"time_elapsed":793433,"internal_node_id":"0.0-88.0"},{"result":184,"points":1,"place":4,"phase":1,"sequence":4,"prices":[161,193,175,181,185,224,180,199,218,184],"times":[438,559,1014,502,463,478,527,486,519,656],"next_num":10,"trial_type":"ticket-choose","trial_index":89,"time_elapsed":802544,"internal_node_id":"0.0-89.0"},{"result":167,"points":2,"place":1,"phase":1,"sequence":5,"prices":[175,187,178,209,179,187,167,169,208,153],"times":[399,582,455,485,423,495,563],"next_num":7,"trial_type":"ticket-choose","trial_index":90,"time_elapsed":808800,"internal_node_id":"0.0-90.0"},{"result":158,"points":2,"place":1,"phase":1,"sequence":6,"prices":[152,200,158,173,182,207,161,202,204,180],"times":[407,520,1009],"next_num":3,"trial_type":"ticket-choose","trial_index":91,"time_elapsed":812752,"internal_node_id":"0.0-91.0"},{"result":159,"points":1,"place":2,"phase":1,"sequence":7,"prices":[180,159,149,175,185,141,163,174,178,207],"times":[513,576],"next_num":2,"trial_type":"ticket-choose","trial_index":92,"time_elapsed":815688,"internal_node_id":"0.0-92.0"},{"result":158,"points":2,"place":1,"phase":1,"sequence":8,"prices":[175,186,177,221,180,187,158,166,209,153],"times":[455,544,479,527,527,471,608],"next_num":7,"trial_type":"ticket-choose","trial_index":93,"time_elapsed":822072,"internal_node_id":"0.0-93.0"},{"result":159,"points":3,"place":0,"phase":1,"sequence":9,"prices":[159,183,166,168,173,205,167,187,191,170],"times":[639],"next_num":1,"trial_type":"ticket-choose","trial_index":94,"time_elapsed":824368,"internal_node_id":"0.0-94.0"},{"result":163,"points":2,"place":1,"phase":1,"sequence":10,"prices":[174,186,163,212,181,187,176,166,153,209],"times":[576,462,624],"next_num":3,"trial_type":"ticket-choose","trial_index":95,"time_elapsed":827968,"internal_node_id":"0.0-95.0"},{"result":155,"points":2,"place":1,"phase":1,"sequence":11,"prices":[181,155,148,161,168,187,172,199,176,194],"times":[411,600],"next_num":2,"trial_type":"ticket-choose","trial_index":96,"time_elapsed":830792,"internal_node_id":"0.0-96.0"},{"result":167,"points":2,"place":1,"phase":1,"sequence":12,"prices":[174,186,167,211,181,188,178,168,208,156],"times":[447,463,634],"next_num":3,"trial_type":"ticket-choose","trial_index":97,"time_elapsed":834321,"internal_node_id":"0.0-97.0"},{"result":158,"points":2,"place":1,"phase":1,"sequence":13,"prices":[176,185,158,217,180,186,177,166,209,154],"times":[453,518,647],"next_num":3,"trial_type":"ticket-choose","trial_index":98,"time_elapsed":837936,"internal_node_id":"0.0-98.0"},{"result":158,"points":2,"place":1,"phase":1,"sequence":14,"prices":[176,187,158,210,181,187,177,165,208,153],"times":[439,501,574],"next_num":3,"trial_type":"ticket-choose","trial_index":99,"time_elapsed":841480,"internal_node_id":"0.0-99.0"},{"result":165,"points":2,"place":1,"phase":1,"sequence":15,"prices":[188,200,165,172,198,174,177,154,177,180],"times":[512,471,641],"next_num":3,"trial_type":"ticket-choose","trial_index":100,"time_elapsed":845152,"internal_node_id":"0.0-100.0"},{"result":163,"points":2,"place":1,"phase":1,"sequence":16,"prices":[175,186,163,211,179,187,176,165,153,210],"times":[1096,455,697],"next_num":3,"trial_type":"ticket-choose","trial_index":101,"time_elapsed":849360,"internal_node_id":"0.0-101.0"},{"result":165,"points":1,"place":2,"phase":1,"sequence":17,"prices":[156,201,162,166,185,214,165,202,204,179],"times":[408,376,416,687,589,455,752],"next_num":7,"trial_type":"ticket-choose","trial_index":102,"time_elapsed":855888,"internal_node_id":"0.0-102.0"},{"result":158,"points":2,"place":1,"phase":1,"sequence":18,"prices":[175,186,158,211,180,187,177,166,209,153],"times":[504,524,594],"next_num":3,"trial_type":"ticket-choose","trial_index":103,"time_elapsed":859504,"internal_node_id":"0.0-103.0"},{"result":152,"points":3,"place":0,"phase":1,"sequence":19,"prices":[200,181,203,152,175,171,160,154,176,191],"times":[680,479,430,568],"next_num":4,"trial_type":"ticket-choose","trial_index":104,"time_elapsed":863896,"internal_node_id":"0.0-104.0"},{"result":167,"points":2,"place":1,"phase":1,"sequence":20,"prices":[175,185,167,224,181,186,178,168,208,156],"times":[456,460,569],"next_num":3,"trial_type":"ticket-choose","trial_index":105,"time_elapsed":867360,"internal_node_id":"0.0-105.0"},{"result":166,"points":1,"place":2,"phase":1,"sequence":21,"prices":[176,186,176,210,179,187,163,166,153,208],"times":[502,487,512,502,495,543,495,673],"next_num":8,"trial_type":"ticket-choose","trial_index":106,"time_elapsed":874632,"internal_node_id":"0.0-106.0"},{"result":163,"points":2,"place":1,"phase":1,"sequence":22,"prices":[174,186,176,217,181,187,163,166,153,209],"times":[671,543,463,536,566,446,657],"next_num":7,"trial_type":"ticket-choose","trial_index":107,"time_elapsed":881384,"internal_node_id":"0.0-107.0"},{"result":176,"points":1,"place":3,"phase":1,"sequence":23,"prices":[176,186,163,214,179,187,176,166,153,208],"times":[431,392,479,470,447,468,743],"next_num":7,"trial_type":"ticket-choose","trial_index":108,"time_elapsed":887688,"internal_node_id":"0.0-108.0"},{"result":186,"points":1,"place":4,"phase":1,"sequence":24,"prices":[168,192,171,178,188,217,172,195,197,186],"times":[648,434,391,375,470,447,537,517,520,527],"next_num":11,"trial_type":"ticket-choose","trial_index":109,"time_elapsed":896264,"internal_node_id":"0.0-109.0"},{"result":176,"points":1,"place":2,"phase":1,"sequence":25,"prices":[181,215,169,147,182,193,177,184,176,179],"times":[461,464,366,447,606,575,478,687,608],"next_num":9,"trial_type":"ticket-choose","trial_index":110,"time_elapsed":904216,"internal_node_id":"0.0-110.0"},{"result":157,"points":3,"place":0,"phase":1,"sequence":26,"prices":[201,187,157,184,198,179,188,185,178,170],"times":[397,447,801],"next_num":3,"trial_type":"ticket-choose","trial_index":111,"time_elapsed":907832,"internal_node_id":"0.0-111.0"},{"result":154,"points":3,"place":0,"phase":1,"sequence":27,"prices":[175,187,163,209,180,188,176,165,154,208],"times":[719,455,895,455,391,431,647,511,664],"next_num":9,"trial_type":"ticket-choose","trial_index":112,"time_elapsed":916248,"internal_node_id":"0.0-112.0"},{"result":143,"points":3,"place":0,"phase":1,"sequence":28,"prices":[222,173,202,197,143,205,198,183,178,186],"times":[550,367,439,463,673],"next_num":5,"trial_type":"ticket-choose","trial_index":113,"time_elapsed":921152,"internal_node_id":"0.0-113.0"},{"result":185,"points":1,"place":4,"phase":1,"sequence":29,"prices":[169,196,170,184,187,211,171,201,202,185],"times":[542,590,591,446,438,541,486,503,519,535],"next_num":11,"trial_type":"ticket-choose","trial_index":114,"time_elapsed":929856,"internal_node_id":"0.0-114.0"},{"result":169,"points":1,"place":3,"phase":1,"sequence":30,"prices":[198,193,169,163,202,182,152,164,177,171],"times":[478,479,704],"next_num":3,"trial_type":"ticket-choose","trial_index":115,"time_elapsed":933448,"internal_node_id":"0.0-115.0"},{"result":169,"points":1,"place":2,"phase":1,"sequence":31,"prices":[175,186,167,225,179,187,178,169,209,153],"times":[439,511,854,479,423,463,447,647],"next_num":8,"trial_type":"ticket-choose","trial_index":116,"time_elapsed":940720,"internal_node_id":"0.0-116.0"},{"result":176,"points":1,"place":4,"phase":1,"sequence":32,"prices":[157,191,165,175,182,203,170,195,200,176],"times":[487,510,535,536,575,504,455,559,439,511],"next_num":11,"trial_type":"ticket-choose","trial_index":117,"time_elapsed":949312,"internal_node_id":"0.0-117.0"},{"result":163,"points":2,"place":1,"phase":1,"sequence":33,"prices":[175,187,176,209,180,188,163,165,154,208],"times":[663,588,547,1718,423,415,1041],"next_num":7,"trial_type":"ticket-choose","trial_index":118,"time_elapsed":957536,"internal_node_id":"0.0-118.0"},{"result":163,"points":1,"place":2,"phase":1,"sequence":34,"prices":[183,163,185,180,166,148,160,186,176,184],"times":[408,925],"next_num":2,"trial_type":"ticket-choose","trial_index":119,"time_elapsed":960696,"internal_node_id":"0.0-119.0"},{"result":163,"points":2,"place":1,"phase":1,"sequence":35,"prices":[175,186,176,224,179,187,163,165,153,210],"times":[447,447,455,455,472,493,710],"next_num":7,"trial_type":"ticket-choose","trial_index":120,"time_elapsed":967512,"internal_node_id":"0.0-120.0"},{"result":153,"points":3,"place":0,"phase":1,"sequence":36,"prices":[175,187,167,212,179,187,178,169,208,153],"times":[462,551,527,526,448,454,454,584,521,454],"next_num":11,"trial_type":"ticket-choose","trial_index":121,"time_elapsed":976056,"internal_node_id":"0.0-121.0"},{"result":167,"points":2,"place":1,"phase":1,"sequence":37,"prices":[174,186,178,217,181,188,167,168,208,156],"times":[807,263,422,479,551,439,672],"next_num":7,"trial_type":"ticket-choose","trial_index":122,"time_elapsed":982553,"internal_node_id":"0.0-122.0"},{"result":155,"points":1,"place":2,"phase":1,"sequence":38,"prices":[150,185,154,161,173,199,155,188,191,168],"times":[453,430,375,716,585,508,688],"next_num":7,"trial_type":"ticket-choose","trial_index":123,"time_elapsed":989201,"internal_node_id":"0.0-123.0"},{"result":158,"points":3,"place":0,"phase":1,"sequence":39,"prices":[210,184,226,193,215,158,199,175,176,208],"times":[503,429,471,495,479,626],"next_num":6,"trial_type":"ticket-choose","trial_index":124,"time_elapsed":994752,"internal_node_id":"0.0-124.0"},{"result":168,"points":1,"place":2,"phase":1,"sequence":40,"prices":[168,154,172,185,195,144,184,211,177,227],"times":[767],"next_num":1,"trial_type":"ticket-choose","trial_index":125,"time_elapsed":997288,"internal_node_id":"0.0-125.0"},{"result":158,"points":2,"place":1,"phase":1,"sequence":41,"prices":[176,187,177,225,181,187,158,165,208,153],"times":[903,575,375,479,407,463,856],"next_num":7,"trial_type":"ticket-choose","trial_index":126,"time_elapsed":1004328,"internal_node_id":"0.0-126.0"},{"result":167,"points":2,"place":1,"phase":1,"sequence":42,"prices":[212,192,188,184,167,193,189,164,176,170],"times":[462,750,390,454,622],"next_num":5,"trial_type":"ticket-choose","trial_index":127,"time_elapsed":1009408,"internal_node_id":"0.0-127.0"},{"result":158,"points":1,"place":3,"phase":1,"sequence":43,"prices":[201,207,155,158,156,165,167,135,178,177],"times":[863,286,351,792],"next_num":4,"trial_type":"ticket-choose","trial_index":128,"time_elapsed":1014321,"internal_node_id":"0.0-128.0"},{"result":158,"points":2,"place":1,"phase":1,"sequence":44,"prices":[176,185,177,218,180,186,158,166,209,154],"times":[1863,495,410,455,415,471,704],"next_num":7,"trial_type":"ticket-choose","trial_index":129,"time_elapsed":1021984,"internal_node_id":"0.0-129.0"},{"result":158,"points":2,"place":1,"phase":1,"sequence":45,"prices":[175,186,177,209,181,188,158,167,208,154],"times":[439,655,391,468,484,447,617],"next_num":7,"trial_type":"ticket-choose","trial_index":130,"time_elapsed":1028333,"internal_node_id":"0.0-130.0"},{"result":160,"points":1,"place":2,"phase":1,"sequence":46,"prices":[189,150,175,160,188,207,158,194,178,199],"times":[545,415,575,593],"next_num":4,"trial_type":"ticket-choose","trial_index":131,"time_elapsed":1032705,"internal_node_id":"0.0-131.0"},{"result":150,"points":2,"place":1,"phase":1,"sequence":47,"prices":[148,171,150,163,167,220,162,186,187,165],"times":[1653,599,688],"next_num":3,"trial_type":"ticket-choose","trial_index":132,"time_elapsed":1039018,"internal_node_id":"0.0-132.0"},{"result":167,"points":2,"place":1,"phase":1,"sequence":48,"prices":[175,185,178,215,181,186,167,168,208,156],"times":[550,846,503,671,726,559,606],"next_num":7,"trial_type":"ticket-choose","trial_index":133,"time_elapsed":1046361,"internal_node_id":"0.0-133.0"},{"result":188,"points":1,"place":4,"phase":1,"sequence":49,"prices":[161,193,167,187,190,224,174,194,195,188],"times":[582,463,503,471,483,470,488,431,455,424],"next_num":11,"trial_type":"ticket-choose","trial_index":134,"time_elapsed":1054937,"internal_node_id":"0.0-134.0"},{"responses":[{"value":1,"offby":1,"category":"$106 - $134","category_index":0},{"value":2,"offby":1,"category":"$135 - $150","category_index":1},{"value":3,"offby":0,"category":"$151 - $165","category_index":2},{"value":4,"offby":-2,"category":"$166 - $180","category_index":3},{"value":5,"offby":-1,"category":"$181 - $195","category_index":4},{"value":4,"offby":1,"category":"$196 - $210","category_index":5},{"value":1,"offby":0,"category":"$211 - $225","category_index":6}],"phase":1,"number":1,"trial_type":"bar-choose","trial_index":135,"time_elapsed":1087749,"internal_node_id":"0.0-135.0"},{"special_comment":"no","trial_type":"special_sequence","trial_index":136,"time_elapsed":1092453,"internal_node_id":"0.0-136.0"},{"during":"Nothing","bonus":252,"trial_type":"final","trial_index":137,"time_elapsed":1116957,"internal_node_id":"0.0-137.0"}],"bonus":252}