{"start_time":"2017-02-24 17:24:50","end_time":"2017-02-24 18:05:26","points_phase0":118,"points_phase1":126,"phase_order":0,"age":28,"gender":"m","tries":1,"during":"Nothing","worker_id":"A28HYRF3QXFAXL","assignment_id":"3Y4W8Q93L0D303CIH9PBYPQ15VXDV8","data":[{"rt":22609,"url":"\/tickets\/utils\/consent.html","trial_type":"html","trial_index":0,"time_elapsed":22898,"internal_node_id":"0.0-0.0"},{"age":28,"gender":"m","trial_type":"age","trial_index":1,"time_elapsed":29415,"internal_node_id":"0.0-1.0"},{"worker_id":"A28HYRF3QXFAXL","trial_type":"workerid","trial_index":2,"time_elapsed":58814,"internal_node_id":"0.0-2.0"},{"tries":1,"trial_type":"instructions_check","trial_index":3,"time_elapsed":90405,"internal_node_id":"0.0-3.0"},{"rt":11932,"url":"\/tickets\/utils\/start.html","trial_type":"html","trial_index":4,"time_elapsed":103489,"internal_node_id":"0.0-4.0"},{"trial_type":"number-animation","trial_index":5,"time_elapsed":125022,"internal_node_id":"0.0-5.0"},{"phase":0,"sequence":0,"avg":180,"response":180,"trial_type":"training_avg","trial_index":6,"time_elapsed":142768,"internal_node_id":"0.0-6.0"},{"trial_type":"number-animation","trial_index":7,"time_elapsed":189175,"internal_node_id":"0.0-7.0"},{"phase":0,"sequence":1,"avg":178,"response":178,"trial_type":"training_avg","trial_index":8,"time_elapsed":209220,"internal_node_id":"0.0-8.0"},{"trial_type":"number-animation","trial_index":9,"time_elapsed":254760,"internal_node_id":"0.0-9.0"},{"phase":0,"sequence":2,"avg":176,"response":175,"trial_type":"training_avg","trial_index":10,"time_elapsed":289548,"internal_node_id":"0.0-10.0"},{"trial_type":"number-animation","trial_index":11,"time_elapsed":313666,"internal_node_id":"0.0-11.0"},{"phase":0,"sequence":3,"avg":178,"response":172,"trial_type":"training_avg","trial_index":12,"time_elapsed":320115,"internal_node_id":"0.0-12.0"},{"trial_type":"number-animation","trial_index":13,"time_elapsed":344846,"internal_node_id":"0.0-13.0"},{"phase":0,"sequence":4,"avg":179,"response":179,"trial_type":"training_avg","trial_index":14,"time_elapsed":352375,"internal_node_id":"0.0-14.0"},{"responses":[{"value":0,"offby":0,"category":"$140 - $250","category_index":0},{"value":1,"offby":1,"category":"$151 - $160","category_index":1},{"value":4,"offby":0,"category":"$161 - $170","category_index":2},{"value":10,"offby":4,"category":"$171 - $180","category_index":3},{"value":4,"offby":-3,"category":"$181 - $190","category_index":4},{"value":1,"offby":-2,"category":"$191 - $200","category_index":5},{"value":0,"offby":0,"category":"$201 - $210","category_index":6}],"phase":0,"number":0,"trial_type":"bar-choose","trial_index":15,"time_elapsed":515914,"internal_node_id":"0.0-15.0"},{"rt":16098,"url":"\/tickets\/\/utils\/testing.html","trial_type":"html","trial_index":16,"time_elapsed":533148,"internal_node_id":"0.0-16.0"},{"phase":0,"order":[10,28,26,11,43,30,38,20,9,44,31,48,0,14,47,15,45,8,25,12,1,13,23,19,41,2,3,40,5,42,7,36,32,39,16,49,35,33,21,22,6,29,46,4,34,18,37,24,17,27],"trial_type":"store_order","trial_index":17,"time_elapsed":534151,"internal_node_id":"0.0-17.0"},{"result":165,"points":2,"place":1,"phase":0,"sequence":-1,"prices":[184,180,224,165,181,199,185,193,218,126],"times":[2424,570,686,3506],"next_num":4,"trial_type":"ticket-choose","trial_index":18,"time_elapsed":544766,"internal_node_id":"0.0-18.0"},{"rt":337049,"url":"\/tickets\/utils\/testing_after.html","trial_type":"html","trial_index":19,"time_elapsed":882949,"internal_node_id":"0.0-19.0"},{"result":166,"points":3,"place":0,"phase":0,"sequence":0,"prices":[175,180,170,195,179,184,178,174,166,185],"times":[3057,1342,1523,1671,1916,1515,2078,4241,1090],"next_num":9,"trial_type":"ticket-choose","trial_index":20,"time_elapsed":909102,"internal_node_id":"0.0-20.0"},{"result":159,"points":3,"place":0,"phase":0,"sequence":1,"prices":[159,178,170,174,176,194,173,182,185,175],"times":[1323],"next_num":1,"trial_type":"ticket-choose","trial_index":21,"time_elapsed":913498,"internal_node_id":"0.0-21.0"},{"result":165,"points":3,"place":0,"phase":0,"sequence":2,"prices":[165,187,173,177,186,196,176,191,192,181],"times":[8139],"next_num":1,"trial_type":"ticket-choose","trial_index":22,"time_elapsed":925396,"internal_node_id":"0.0-22.0"},{"result":174,"points":1,"place":2,"phase":0,"sequence":3,"prices":[175,180,170,195,179,184,178,174,166,185],"times":[1424,924,875,926,1091,1207,2022,1809],"next_num":8,"trial_type":"ticket-choose","trial_index":23,"time_elapsed":940381,"internal_node_id":"0.0-23.0"},{"result":157,"points":2,"place":1,"phase":0,"sequence":4,"prices":[188,191,179,157,181,164,166,156,175,182],"times":[1199,634,709,1190],"next_num":4,"trial_type":"ticket-choose","trial_index":24,"time_elapsed":947356,"internal_node_id":"0.0-24.0"},{"result":177,"points":1,"place":4,"phase":0,"sequence":5,"prices":[160,185,170,174,182,196,173,186,194,177],"times":[2751,719,637,767,851,856,862,939,1183,942],"next_num":10,"trial_type":"ticket-choose","trial_index":25,"time_elapsed":962942,"internal_node_id":"0.0-25.0"},{"result":177,"points":1,"place":2,"phase":0,"sequence":6,"prices":[181,179,199,188,170,172,178,187,191,177],"times":[1217,941,741,582,1801,771,806,1056,1121,976],"next_num":10,"trial_type":"ticket-choose","trial_index":26,"time_elapsed":978595,"internal_node_id":"0.0-26.0"},{"result":168,"points":2,"place":1,"phase":0,"sequence":7,"prices":[174,178,176,192,177,181,168,171,163,182],"times":[1605,1337,1268,678,934,726,1042],"next_num":7,"trial_type":"ticket-choose","trial_index":27,"time_elapsed":989801,"internal_node_id":"0.0-27.0"},{"result":165,"points":3,"place":0,"phase":0,"sequence":8,"prices":[176,180,170,194,179,183,178,173,165,184],"times":[1062,652,554,657,1101,797,873,1640,940],"next_num":9,"trial_type":"ticket-choose","trial_index":28,"time_elapsed":1010151,"internal_node_id":"0.0-28.0"},{"result":150,"points":3,"place":0,"phase":0,"sequence":9,"prices":[175,150,164,155,171,199,158,180,184,196],"times":[1203,3920],"next_num":2,"trial_type":"ticket-choose","trial_index":29,"time_elapsed":1017969,"internal_node_id":"0.0-29.0"},{"result":157,"points":3,"place":0,"phase":0,"sequence":10,"prices":[157,184,163,174,181,190,168,187,189,177],"times":[2585],"next_num":1,"trial_type":"ticket-choose","trial_index":30,"time_elapsed":1023204,"internal_node_id":"0.0-30.0"},{"result":171,"points":3,"place":0,"phase":0,"sequence":11,"prices":[193,173,175,182,179,198,181,171,176,187],"times":[1093,676,646,687,678,677,695,1765],"next_num":8,"trial_type":"ticket-choose","trial_index":31,"time_elapsed":1034052,"internal_node_id":"0.0-31.0"},{"result":169,"points":2,"place":1,"phase":0,"sequence":12,"prices":[175,179,169,193,178,182,177,172,164,183],"times":[1584,733,1696],"next_num":3,"trial_type":"ticket-choose","trial_index":32,"time_elapsed":1041053,"internal_node_id":"0.0-32.0"},{"result":166,"points":3,"place":0,"phase":0,"sequence":13,"prices":[175,180,178,195,179,184,170,174,166,185],"times":[926,539,743,750,694,723,1837,2839,741],"next_num":9,"trial_type":"ticket-choose","trial_index":33,"time_elapsed":1054714,"internal_node_id":"0.0-33.0"},{"result":174,"points":2,"place":1,"phase":0,"sequence":14,"prices":[180,175,173,177,191,190,184,196,174,181],"times":[1196,541,624,493,640,654,909,696,1157],"next_num":9,"trial_type":"ticket-choose","trial_index":34,"time_elapsed":1065535,"internal_node_id":"0.0-34.0"},{"result":166,"points":3,"place":0,"phase":0,"sequence":15,"prices":[175,180,178,195,179,184,170,174,166,185],"times":[1368,1010,1486,774,991,638,1760,798,989],"next_num":9,"trial_type":"ticket-choose","trial_index":35,"time_elapsed":1079167,"internal_node_id":"0.0-35.0"},{"result":165,"points":2,"place":1,"phase":0,"sequence":16,"prices":[179,174,172,162,202,184,165,197,185,169],"times":[967,606,724,1746,653,683,2359],"next_num":7,"trial_type":"ticket-choose","trial_index":36,"time_elapsed":1090199,"internal_node_id":"0.0-36.0"},{"result":173,"points":1,"place":2,"phase":0,"sequence":17,"prices":[176,180,170,194,179,183,178,173,165,184],"times":[799,638,543,893,685,644,767,2103],"next_num":8,"trial_type":"ticket-choose","trial_index":37,"time_elapsed":1100864,"internal_node_id":"0.0-37.0"},{"result":165,"points":2,"place":1,"phase":0,"sequence":18,"prices":[163,185,165,174,181,198,173,186,187,180],"times":[1047,684,1367],"next_num":3,"trial_type":"ticket-choose","trial_index":38,"time_elapsed":1106558,"internal_node_id":"0.0-38.0"},{"result":170,"points":2,"place":1,"phase":0,"sequence":19,"prices":[176,180,178,194,179,183,170,173,165,184],"times":[763,701,461,511,576,687,3328],"next_num":7,"trial_type":"ticket-choose","trial_index":39,"time_elapsed":1116875,"internal_node_id":"0.0-39.0"},{"result":164,"points":3,"place":0,"phase":0,"sequence":20,"prices":[175,179,169,193,178,182,177,172,164,183],"times":[802,500,454,616,639,542,566,670,1450],"next_num":9,"trial_type":"ticket-choose","trial_index":40,"time_elapsed":1127153,"internal_node_id":"0.0-40.0"},{"result":170,"points":2,"place":1,"phase":0,"sequence":21,"prices":[176,180,178,194,179,183,170,173,165,184],"times":[1406,1459,541,608,722,583,1581],"next_num":7,"trial_type":"ticket-choose","trial_index":41,"time_elapsed":1137616,"internal_node_id":"0.0-41.0"},{"result":164,"points":3,"place":0,"phase":0,"sequence":22,"prices":[173,178,176,193,177,182,168,172,164,183],"times":[1017,456,380,673,493,664,533,1088,1189],"next_num":9,"trial_type":"ticket-choose","trial_index":42,"time_elapsed":1147963,"internal_node_id":"0.0-42.0"},{"result":172,"points":1,"place":2,"phase":0,"sequence":23,"prices":[173,178,168,193,177,182,176,172,164,183],"times":[1327,885,1866,644,622,662,1038,1559],"next_num":8,"trial_type":"ticket-choose","trial_index":43,"time_elapsed":1160188,"internal_node_id":"0.0-43.0"},{"result":165,"points":3,"place":0,"phase":0,"sequence":24,"prices":[180,165,177,193,186,196,187,169,171,182],"times":[535,1265],"next_num":2,"trial_type":"ticket-choose","trial_index":44,"time_elapsed":1164108,"internal_node_id":"0.0-44.0"},{"result":165,"points":3,"place":0,"phase":0,"sequence":25,"prices":[174,179,169,194,178,183,177,173,165,184],"times":[727,556,503,623,514,677,649,1142,1111],"next_num":9,"trial_type":"ticket-choose","trial_index":45,"time_elapsed":1174340,"internal_node_id":"0.0-45.0"},{"result":165,"points":3,"place":0,"phase":0,"sequence":26,"prices":[174,179,169,194,178,183,177,173,165,184],"times":[963,662,599,667,573,471,533,573,1232],"next_num":9,"trial_type":"ticket-choose","trial_index":46,"time_elapsed":1184382,"internal_node_id":"0.0-46.0"},{"result":167,"points":3,"place":0,"phase":0,"sequence":27,"prices":[179,174,199,178,196,167,170,184,177,190],"times":[766,996,903,901,761,2107],"next_num":6,"trial_type":"ticket-choose","trial_index":47,"time_elapsed":1194153,"internal_node_id":"0.0-47.0"},{"result":164,"points":3,"place":0,"phase":0,"sequence":28,"prices":[175,179,177,193,178,182,169,172,164,183],"times":[1913,540,462,613,480,621,1668,658,1104],"next_num":9,"trial_type":"ticket-choose","trial_index":48,"time_elapsed":1205962,"internal_node_id":"0.0-48.0"},{"result":160,"points":3,"place":0,"phase":0,"sequence":29,"prices":[175,193,175,160,180,170,175,205,177,167],"times":[910,480,605,1751],"next_num":4,"trial_type":"ticket-choose","trial_index":49,"time_elapsed":1212712,"internal_node_id":"0.0-49.0"},{"result":165,"points":3,"place":0,"phase":0,"sequence":30,"prices":[174,179,177,194,178,183,169,173,165,184],"times":[3980,490,1199,548,495,311,452,582,966],"next_num":9,"trial_type":"ticket-choose","trial_index":50,"time_elapsed":1225434,"internal_node_id":"0.0-50.0"},{"result":168,"points":2,"place":1,"phase":0,"sequence":31,"prices":[189,185,169,168,167,171,180,173,174,188],"times":[1739,556,494,1167],"next_num":4,"trial_type":"ticket-choose","trial_index":51,"time_elapsed":1232585,"internal_node_id":"0.0-51.0"},{"result":175,"points":1,"place":4,"phase":0,"sequence":32,"prices":[171,180,172,174,179,188,173,183,186,175],"times":[797,662,999,782,674,788,1984,719,855,1662],"next_num":10,"trial_type":"ticket-choose","trial_index":52,"time_elapsed":1246450,"internal_node_id":"0.0-52.0"},{"result":171,"points":1,"place":2,"phase":0,"sequence":33,"prices":[195,177,197,179,171,173,175,156,163,204],"times":[1453,464,623,574,1043],"next_num":5,"trial_type":"ticket-choose","trial_index":53,"time_elapsed":1253539,"internal_node_id":"0.0-53.0"},{"result":163,"points":3,"place":0,"phase":0,"sequence":34,"prices":[174,178,168,192,177,181,176,171,163,182],"times":[910,423,381,287,390,608,1205,542,879],"next_num":9,"trial_type":"ticket-choose","trial_index":54,"time_elapsed":1263386,"internal_node_id":"0.0-54.0"},{"result":165,"points":3,"place":0,"phase":0,"sequence":35,"prices":[175,189,193,170,179,165,180,186,177,184],"times":[1019,484,424,524,523,1045],"next_num":6,"trial_type":"ticket-choose","trial_index":55,"time_elapsed":1270452,"internal_node_id":"0.0-55.0"},{"result":154,"points":3,"place":0,"phase":0,"sequence":36,"prices":[188,179,154,183,173,170,177,160,169,175],"times":[935,482,1052],"next_num":3,"trial_type":"ticket-choose","trial_index":56,"time_elapsed":1275243,"internal_node_id":"0.0-56.0"},{"result":179,"points":1,"place":4,"phase":0,"sequence":37,"prices":[170,183,172,175,180,189,174,187,188,179],"times":[494,749,471,439,547,488,644,718,646,963],"next_num":10,"trial_type":"ticket-choose","trial_index":57,"time_elapsed":1285877,"internal_node_id":"0.0-57.0"},{"result":168,"points":2,"place":1,"phase":0,"sequence":38,"prices":[174,178,176,192,177,181,168,171,163,182],"times":[1038,534,630,716,662,693,2383],"next_num":7,"trial_type":"ticket-choose","trial_index":58,"time_elapsed":1295828,"internal_node_id":"0.0-58.0"},{"result":164,"points":3,"place":0,"phase":0,"sequence":39,"prices":[173,178,176,193,177,182,168,172,164,183],"times":[1129,476,470,574,463,535,440,590,923],"next_num":9,"trial_type":"ticket-choose","trial_index":59,"time_elapsed":1305241,"internal_node_id":"0.0-59.0"},{"result":165,"points":3,"place":0,"phase":0,"sequence":40,"prices":[174,179,177,194,178,183,169,173,165,184],"times":[822,599,547,645,799,676,2222,755,1093],"next_num":9,"trial_type":"ticket-choose","trial_index":60,"time_elapsed":1317118,"internal_node_id":"0.0-60.0"},{"result":166,"points":3,"place":0,"phase":0,"sequence":41,"prices":[166,190,170,173,178,203,172,192,198,174],"times":[1623],"next_num":1,"trial_type":"ticket-choose","trial_index":61,"time_elapsed":1320855,"internal_node_id":"0.0-61.0"},{"result":177,"points":2,"place":1,"phase":0,"sequence":42,"prices":[179,186,197,201,166,187,188,193,190,177],"times":[1112,814,556,432,413,795,558,631,558,605],"next_num":11,"trial_type":"ticket-choose","trial_index":62,"time_elapsed":1335649,"internal_node_id":"0.0-62.0"},{"result":169,"points":2,"place":1,"phase":0,"sequence":43,"prices":[175,179,177,193,178,182,169,172,164,183],"times":[1070,594,582,669,558,671,2000],"next_num":7,"trial_type":"ticket-choose","trial_index":63,"time_elapsed":1345000,"internal_node_id":"0.0-63.0"},{"result":165,"points":2,"place":1,"phase":0,"sequence":44,"prices":[181,180,191,186,165,197,159,167,194,185],"times":[528,763,605,718,1087],"next_num":5,"trial_type":"ticket-choose","trial_index":64,"time_elapsed":1351564,"internal_node_id":"0.0-64.0"},{"result":168,"points":2,"place":1,"phase":0,"sequence":45,"prices":[173,178,168,193,177,182,176,172,164,183],"times":[2000,601,2323],"next_num":3,"trial_type":"ticket-choose","trial_index":65,"time_elapsed":1359056,"internal_node_id":"0.0-65.0"},{"result":153,"points":3,"place":0,"phase":0,"sequence":46,"prices":[181,175,182,168,183,173,153,170,193,179],"times":[795,709,600,1350,632,701,1120],"next_num":7,"trial_type":"ticket-choose","trial_index":66,"time_elapsed":1368234,"internal_node_id":"0.0-66.0"},{"result":176,"points":1,"place":4,"phase":0,"sequence":47,"prices":[161,180,170,174,178,198,173,182,188,176],"times":[838,1482,990,694,553,594,598,718,790,1023],"next_num":11,"trial_type":"ticket-choose","trial_index":67,"time_elapsed":1380780,"internal_node_id":"0.0-67.0"},{"result":163,"points":3,"place":0,"phase":0,"sequence":48,"prices":[174,178,168,192,177,181,176,171,163,182],"times":[4445,600,756,686,718,662,974,1063,1031],"next_num":9,"trial_type":"ticket-choose","trial_index":68,"time_elapsed":1395427,"internal_node_id":"0.0-68.0"},{"result":168,"points":3,"place":0,"phase":0,"sequence":49,"prices":[168,188,171,181,184,196,180,194,195,183],"times":[4470],"next_num":1,"trial_type":"ticket-choose","trial_index":69,"time_elapsed":1402651,"internal_node_id":"0.0-69.0"},{"responses":[{"value":0,"offby":0,"category":"$140 - $250","category_index":0},{"value":1,"offby":1,"category":"$151 - $160","category_index":1},{"value":2,"offby":-2,"category":"$161 - $170","category_index":2},{"value":12,"offby":6,"category":"$171 - $180","category_index":3},{"value":4,"offby":-3,"category":"$181 - $190","category_index":4},{"value":1,"offby":-2,"category":"$191 - $200","category_index":5},{"value":0,"offby":0,"category":"$201 - $210","category_index":6}],"phase":0,"number":1,"trial_type":"bar-choose","trial_index":70,"time_elapsed":1469664,"internal_node_id":"0.0-70.0"},{"rt":37050,"url":"\/tickets\/utils\/start2.html","trial_type":"html","trial_index":71,"time_elapsed":1507853,"internal_node_id":"0.0-71.0"},{"trial_type":"number-animation","trial_index":72,"time_elapsed":1546875,"internal_node_id":"0.0-72.0"},{"phase":1,"sequence":0,"avg":166,"response":150,"trial_type":"training_avg","trial_index":73,"time_elapsed":1558284,"internal_node_id":"0.0-73.0"},{"trial_type":"number-animation","trial_index":74,"time_elapsed":1580924,"internal_node_id":"0.0-74.0"},{"phase":1,"sequence":1,"avg":198,"response":163,"trial_type":"training_avg","trial_index":75,"time_elapsed":1590941,"internal_node_id":"0.0-75.0"},{"trial_type":"number-animation","trial_index":76,"time_elapsed":1625021,"internal_node_id":"0.0-76.0"},{"phase":1,"sequence":2,"avg":177,"response":151,"trial_type":"training_avg","trial_index":77,"time_elapsed":1635171,"internal_node_id":"0.0-77.0"},{"trial_type":"number-animation","trial_index":78,"time_elapsed":1645679,"internal_node_id":"0.0-78.0"},{"phase":1,"sequence":3,"avg":190,"response":145,"trial_type":"training_avg","trial_index":79,"time_elapsed":1652762,"internal_node_id":"0.0-79.0"},{"trial_type":"number-animation","trial_index":80,"time_elapsed":1672289,"internal_node_id":"0.0-80.0"},{"phase":1,"sequence":4,"avg":201,"response":198,"trial_type":"training_avg","trial_index":81,"time_elapsed":1680211,"internal_node_id":"0.0-81.0"},{"responses":[{"value":0,"offby":-1,"category":"$30 - $75","category_index":0},{"value":1,"offby":-1,"category":"$76 - $120","category_index":1},{"value":2,"offby":-2,"category":"$121 - $165","category_index":2},{"value":8,"offby":2,"category":"$166 - $210","category_index":3},{"value":7,"offby":1,"category":"$211 - $255","category_index":4},{"value":2,"offby":1,"category":"$256 - $300","category_index":5},{"value":0,"offby":0,"category":"$301 - $345","category_index":6}],"phase":1,"number":0,"trial_type":"bar-choose","trial_index":82,"time_elapsed":1759986,"internal_node_id":"0.0-82.0"},{"rt":20381,"url":"\/tickets\/utils\/testing2.html","trial_type":"html","trial_index":83,"time_elapsed":1781522,"internal_node_id":"0.0-83.0"},{"phase":1,"order":[23,1,29,15,11,45,18,39,28,3,14,12,31,19,37,49,40,35,7,17,25,20,46,5,8,2,38,48,27,21,36,42,33,43,13,4,0,9,26,44,41,24,10,32,34,16,47,30,6,22],"trial_type":"store_order","trial_index":84,"time_elapsed":1782528,"internal_node_id":"0.0-84.0"},{"result":100,"points":3,"place":0,"phase":1,"sequence":0,"prices":[145,170,160,245,165,190,120,141,100,195],"times":[1527,717,710,660,573,707,657,648,1079],"next_num":9,"trial_type":"ticket-choose","trial_index":85,"time_elapsed":1793632,"internal_node_id":"0.0-85.0"},{"result":101,"points":3,"place":0,"phase":1,"sequence":1,"prices":[156,175,125,245,170,190,165,140,101,196],"times":[1771,741,4130,587,576,653,800,1030,1179],"next_num":9,"trial_type":"ticket-choose","trial_index":86,"time_elapsed":1811102,"internal_node_id":"0.0-86.0"},{"result":150,"points":1,"place":4,"phase":1,"sequence":2,"prices":[111,231,131,146,171,295,141,241,271,150],"times":[3222,506,529,511,512,468,542,686,1061,774],"next_num":10,"trial_type":"ticket-choose","trial_index":87,"time_elapsed":1824131,"internal_node_id":"0.0-87.0"},{"result":110,"points":3,"place":0,"phase":1,"sequence":3,"prices":[156,181,171,256,175,200,131,150,110,206],"times":[666,557,676,660,631,851,1574,1055,966],"next_num":9,"trial_type":"ticket-choose","trial_index":88,"time_elapsed":1835411,"internal_node_id":"0.0-88.0"},{"result":111,"points":3,"place":0,"phase":1,"sequence":4,"prices":[156,181,130,255,175,200,170,150,111,205],"times":[788,499,486,551,532,614,686,552,1006],"next_num":9,"trial_type":"ticket-choose","trial_index":89,"time_elapsed":1844778,"internal_node_id":"0.0-89.0"},{"result":91,"points":3,"place":0,"phase":1,"sequence":5,"prices":[176,150,141,91,290,201,106,266,206,126],"times":[825,643,681,1020],"next_num":4,"trial_type":"ticket-choose","trial_index":90,"time_elapsed":1850661,"internal_node_id":"0.0-90.0"},{"result":100,"points":3,"place":0,"phase":1,"sequence":6,"prices":[146,171,120,245,165,191,160,140,100,196],"times":[552,574,563,635,658,643,654,887,1012],"next_num":9,"trial_type":"ticket-choose","trial_index":91,"time_elapsed":1860379,"internal_node_id":"0.0-91.0"},{"result":61,"points":3,"place":0,"phase":1,"sequence":7,"prices":[255,166,266,175,136,145,155,61,96,301],"times":[837,755,683,870,1158,1287,671,1025],"next_num":8,"trial_type":"ticket-choose","trial_index":92,"time_elapsed":1871162,"internal_node_id":"0.0-92.0"},{"result":75,"points":3,"place":0,"phase":1,"sequence":8,"prices":[75,171,131,151,161,250,145,190,206,156],"times":[2708],"next_num":1,"trial_type":"ticket-choose","trial_index":93,"time_elapsed":1876071,"internal_node_id":"0.0-93.0"},{"result":105,"points":3,"place":0,"phase":1,"sequence":9,"prices":[150,176,126,251,171,195,165,145,105,200],"times":[717,622,1743,532,670,574,622,998,1327],"next_num":9,"trial_type":"ticket-choose","trial_index":94,"time_elapsed":1888897,"internal_node_id":"0.0-94.0"},{"result":110,"points":3,"place":0,"phase":1,"sequence":10,"prices":[155,181,170,255,176,200,130,150,110,205],"times":[780,668,616,845,680,698,839,662,985],"next_num":9,"trial_type":"ticket-choose","trial_index":95,"time_elapsed":1899201,"internal_node_id":"0.0-95.0"},{"result":105,"points":3,"place":0,"phase":1,"sequence":11,"prices":[161,180,171,250,176,195,131,146,105,201],"times":[718,629,630,927,556,564,702,741,1079],"next_num":9,"trial_type":"ticket-choose","trial_index":96,"time_elapsed":1909579,"internal_node_id":"0.0-96.0"},{"result":66,"points":3,"place":0,"phase":1,"sequence":12,"prices":[66,201,96,150,185,230,121,216,225,165],"times":[1005],"next_num":1,"trial_type":"ticket-choose","trial_index":97,"time_elapsed":1912547,"internal_node_id":"0.0-97.0"},{"result":100,"points":3,"place":0,"phase":1,"sequence":13,"prices":[146,170,121,245,166,190,161,141,100,195],"times":[964,615,1735,548,838,637,777,780,1000],"next_num":9,"trial_type":"ticket-choose","trial_index":98,"time_elapsed":1924066,"internal_node_id":"0.0-98.0"},{"result":45,"points":3,"place":0,"phase":1,"sequence":14,"prices":[186,156,191,120,195,145,45,130,246,176],"times":[723,467,635,543,670,831,1176],"next_num":7,"trial_type":"ticket-choose","trial_index":99,"time_elapsed":1932321,"internal_node_id":"0.0-99.0"},{"result":106,"points":3,"place":0,"phase":1,"sequence":15,"prices":[155,225,245,130,176,106,180,211,165,200],"times":[802,665,582,701,582,1047],"next_num":6,"trial_type":"ticket-choose","trial_index":100,"time_elapsed":1939902,"internal_node_id":"0.0-100.0"},{"result":116,"points":3,"place":0,"phase":1,"sequence":16,"prices":[176,150,276,171,261,116,130,201,166,231],"times":[675,1245,2297,3108,2603,1635],"next_num":6,"trial_type":"ticket-choose","trial_index":101,"time_elapsed":1959022,"internal_node_id":"0.0-101.0"},{"result":51,"points":3,"place":0,"phase":1,"sequence":17,"prices":[221,175,51,196,146,130,166,80,126,156],"times":[600,422,1008],"next_num":3,"trial_type":"ticket-choose","trial_index":102,"time_elapsed":1963381,"internal_node_id":"0.0-102.0"},{"result":105,"points":3,"place":0,"phase":1,"sequence":18,"prices":[151,175,166,251,170,195,126,146,105,201],"times":[675,557,536,613,625,550,1272,651,1109],"next_num":9,"trial_type":"ticket-choose","trial_index":103,"time_elapsed":1973627,"internal_node_id":"0.0-103.0"},{"result":96,"points":3,"place":0,"phase":1,"sequence":19,"prices":[150,171,120,241,165,185,160,135,96,190],"times":[707,654,1262,582,725,526,556,869,969],"next_num":9,"trial_type":"ticket-choose","trial_index":104,"time_elapsed":1984145,"internal_node_id":"0.0-104.0"},{"result":106,"points":2,"place":1,"phase":1,"sequence":20,"prices":[95,205,106,151,186,271,145,210,215,181],"times":[823,3327,827],"next_num":3,"trial_type":"ticket-choose","trial_index":105,"time_elapsed":1991407,"internal_node_id":"0.0-105.0"},{"result":95,"points":3,"place":0,"phase":1,"sequence":21,"prices":[150,170,160,240,166,185,121,136,95,191],"times":[767,500,519,539,729,803,1259,745,1023],"next_num":9,"trial_type":"ticket-choose","trial_index":106,"time_elapsed":2002576,"internal_node_id":"0.0-106.0"},{"result":111,"points":3,"place":0,"phase":1,"sequence":22,"prices":[175,211,266,286,111,216,220,245,230,165],"times":[758,524,503,541,1428],"next_num":5,"trial_type":"ticket-choose","trial_index":107,"time_elapsed":2008978,"internal_node_id":"0.0-107.0"},{"result":101,"points":3,"place":0,"phase":1,"sequence":23,"prices":[156,176,165,246,171,190,126,141,101,196],"times":[1860,381,615,467,643,545,1070,558,981],"next_num":9,"trial_type":"ticket-choose","trial_index":108,"time_elapsed":2019562,"internal_node_id":"0.0-108.0"},{"result":105,"points":3,"place":0,"phase":1,"sequence":24,"prices":[161,180,131,251,175,196,171,146,105,201],"times":[722,516,990,638,557,631,593,993,1182],"next_num":9,"trial_type":"ticket-choose","trial_index":109,"time_elapsed":2030283,"internal_node_id":"0.0-109.0"},{"result":105,"points":3,"place":0,"phase":1,"sequence":25,"prices":[151,176,126,251,170,196,165,145,105,201],"times":[726,544,420,575,518,646,568,588,943],"next_num":9,"trial_type":"ticket-choose","trial_index":110,"time_elapsed":2039269,"internal_node_id":"0.0-110.0"},{"result":165,"points":1,"place":2,"phase":1,"sequence":26,"prices":[185,175,276,221,130,141,171,216,235,165],"times":[8706,3040,428,518,621,487,591,783,617,2288],"next_num":11,"trial_type":"ticket-choose","trial_index":111,"time_elapsed":2062176,"internal_node_id":"0.0-111.0"},{"result":215,"points":0,"place":7,"phase":1,"sequence":27,"prices":[246,145,155,191,176,270,185,136,160,215],"times":[852,427,488,532,592,550,654,789,690,792],"next_num":11,"trial_type":"ticket-choose","trial_index":112,"time_elapsed":2072734,"internal_node_id":"0.0-112.0"},{"result":196,"points":1,"place":4,"phase":1,"sequence":28,"prices":[120,221,135,185,200,261,181,251,255,196],"times":[509,563,581,558,744,602,693,676,742,1328],"next_num":10,"trial_type":"ticket-choose","trial_index":113,"time_elapsed":2083800,"internal_node_id":"0.0-113.0"},{"result":120,"points":2,"place":1,"phase":1,"sequence":29,"prices":[150,170,160,241,166,186,120,136,96,191],"times":[786,695,566,732,946,622,1640],"next_num":7,"trial_type":"ticket-choose","trial_index":114,"time_elapsed":2092946,"internal_node_id":"0.0-114.0"},{"result":120,"points":2,"place":1,"phase":1,"sequence":30,"prices":[226,205,125,120,115,135,180,145,150,220],"times":[693,509,1708,1668],"next_num":4,"trial_type":"ticket-choose","trial_index":115,"time_elapsed":2100199,"internal_node_id":"0.0-115.0"},{"result":115,"points":2,"place":1,"phase":1,"sequence":31,"prices":[155,245,155,81,180,130,156,306,166,115],"times":[742,618,490,486,1399,895,550,659,657,1195],"next_num":10,"trial_type":"ticket-choose","trial_index":116,"time_elapsed":2111657,"internal_node_id":"0.0-116.0"},{"result":175,"points":1,"place":4,"phase":1,"sequence":32,"prices":[130,195,141,155,181,226,150,216,221,175],"times":[821,554,714,846,583,645,678,560,622,631],"next_num":11,"trial_type":"ticket-choose","trial_index":117,"time_elapsed":2122753,"internal_node_id":"0.0-117.0"},{"result":65,"points":2,"place":1,"phase":1,"sequence":33,"prices":[220,236,176,65,185,101,110,61,156,191],"times":[1077,502,460,954],"next_num":4,"trial_type":"ticket-choose","trial_index":118,"time_elapsed":2128186,"internal_node_id":"0.0-118.0"},{"result":105,"points":3,"place":0,"phase":1,"sequence":34,"prices":[160,180,170,251,176,195,131,146,105,200],"times":[617,560,693,649,552,674,534,616,898],"next_num":9,"trial_type":"ticket-choose","trial_index":119,"time_elapsed":2137490,"internal_node_id":"0.0-119.0"},{"result":101,"points":3,"place":0,"phase":1,"sequence":35,"prices":[155,175,166,245,171,190,125,140,101,196],"times":[659,581,685,595,700,607,1441,613,968],"next_num":9,"trial_type":"ticket-choose","trial_index":120,"time_elapsed":2147786,"internal_node_id":"0.0-120.0"},{"result":100,"points":3,"place":0,"phase":1,"sequence":36,"prices":[156,175,126,246,170,190,165,140,100,196],"times":[529,599,980,533,671,587,705,614,1013],"next_num":9,"trial_type":"ticket-choose","trial_index":121,"time_elapsed":2157527,"internal_node_id":"0.0-121.0"},{"result":105,"points":3,"place":0,"phase":1,"sequence":37,"prices":[160,180,130,251,176,195,170,146,105,200],"times":[1000,665,680,780,638,516,624,1503,1079],"next_num":9,"trial_type":"ticket-choose","trial_index":122,"time_elapsed":2190908,"internal_node_id":"0.0-122.0"},{"result":105,"points":3,"place":0,"phase":1,"sequence":38,"prices":[105,216,146,165,210,260,161,235,241,185],"times":[1014],"next_num":1,"trial_type":"ticket-choose","trial_index":123,"time_elapsed":2193914,"internal_node_id":"0.0-123.0"},{"result":101,"points":1,"place":3,"phase":1,"sequence":39,"prices":[155,30,101,55,136,276,70,181,200,261],"times":[791,469,1082],"next_num":3,"trial_type":"ticket-choose","trial_index":124,"time_elapsed":2198503,"internal_node_id":"0.0-124.0"},{"result":106,"points":3,"place":0,"phase":1,"sequence":40,"prices":[180,106,166,245,211,261,215,125,135,190],"times":[704,1168],"next_num":2,"trial_type":"ticket-choose","trial_index":125,"time_elapsed":2202446,"internal_node_id":"0.0-125.0"},{"result":86,"points":3,"place":0,"phase":1,"sequence":41,"prices":[86,180,130,151,170,271,145,191,220,160],"times":[841],"next_num":1,"trial_type":"ticket-choose","trial_index":126,"time_elapsed":2204980,"internal_node_id":"0.0-126.0"},{"result":111,"points":3,"place":0,"phase":1,"sequence":42,"prices":[156,181,131,256,176,200,171,151,111,206],"times":[601,531,881,540,647,831,658,937,1440],"next_num":9,"trial_type":"ticket-choose","trial_index":127,"time_elapsed":2215577,"internal_node_id":"0.0-127.0"},{"result":155,"points":1,"place":4,"phase":1,"sequence":43,"prices":[135,180,141,151,175,220,145,196,211,155],"times":[851,666,875,709,649,727,805,750,774,983],"next_num":11,"trial_type":"ticket-choose","trial_index":128,"time_elapsed":2227753,"internal_node_id":"0.0-128.0"},{"result":106,"points":2,"place":1,"phase":1,"sequence":44,"prices":[185,180,235,210,106,266,76,115,250,205],"times":[568,555,499,569,1118],"next_num":5,"trial_type":"ticket-choose","trial_index":129,"time_elapsed":2233686,"internal_node_id":"0.0-129.0"},{"result":95,"points":3,"place":0,"phase":1,"sequence":45,"prices":[150,171,121,241,165,185,160,136,95,191],"times":[535,519,586,554,605,622,582,662,1030],"next_num":9,"trial_type":"ticket-choose","trial_index":130,"time_elapsed":2242881,"internal_node_id":"0.0-130.0"},{"result":185,"points":0,"place":5,"phase":1,"sequence":46,"prices":[181,156,145,165,236,231,201,260,150,185],"times":[725,642,607,550,649,648,789,705,834,985],"next_num":11,"trial_type":"ticket-choose","trial_index":131,"time_elapsed":2253912,"internal_node_id":"0.0-131.0"},{"result":81,"points":3,"place":0,"phase":1,"sequence":47,"prices":[81,205,130,151,191,261,145,210,250,165],"times":[1268],"next_num":1,"trial_type":"ticket-choose","trial_index":132,"time_elapsed":2256866,"internal_node_id":"0.0-132.0"},{"result":105,"points":3,"place":0,"phase":1,"sequence":48,"prices":[150,175,166,251,170,196,126,145,105,201],"times":[652,606,678,639,599,632,620,759,996],"next_num":9,"trial_type":"ticket-choose","trial_index":133,"time_elapsed":2266435,"internal_node_id":"0.0-133.0"},{"result":100,"points":3,"place":0,"phase":1,"sequence":49,"prices":[145,171,161,245,165,191,120,140,100,196],"times":[2349,869,611,568,757,618,1320,814,921],"next_num":9,"trial_type":"ticket-choose","trial_index":134,"time_elapsed":2278776,"internal_node_id":"0.0-134.0"},{"responses":[{"value":1,"offby":0,"category":"$30 - $75","category_index":0},{"value":2,"offby":0,"category":"$76 - $120","category_index":1},{"value":5,"offby":1,"category":"$121 - $165","category_index":2},{"value":6,"offby":0,"category":"$166 - $210","category_index":3},{"value":4,"offby":-2,"category":"$211 - $255","category_index":4},{"value":1,"offby":0,"category":"$256 - $300","category_index":5},{"value":0,"offby":0,"category":"$301 - $345","category_index":6}],"phase":1,"number":1,"trial_type":"bar-choose","trial_index":135,"time_elapsed":2341038,"internal_node_id":"0.0-135.0"},{"special_comment":"Ididn't see any pattern.","trial_type":"special_sequence","trial_index":136,"time_elapsed":2398785,"internal_node_id":"0.0-136.0"},{"during":"Nothing","bonus":324,"trial_type":"final","trial_index":137,"time_elapsed":2433803,"internal_node_id":"0.0-137.0"}],"bonus":324}