{"start_time":"2017-02-24 13:33:31","end_time":"2017-02-24 14:06:20","points_phase0":117,"points_phase1":110,"phase_order":1,"age":69,"gender":"f","tries":2,"during":"Nothing","worker_id":"A2A4MCD6TG88ZB","assignment_id":"3VNXK88KKDBRXDZ15TK9CT7BE9B9VE","data":[{"rt":12701,"url":"\/tickets\/utils\/consent.html","trial_type":"html","trial_index":0,"time_elapsed":15236,"internal_node_id":"0.0-0.0"},{"age":69,"gender":"f","trial_type":"age","trial_index":1,"time_elapsed":27578,"internal_node_id":"0.0-1.0"},{"worker_id":"A2A4MCD6TG88ZB","trial_type":"workerid","trial_index":2,"time_elapsed":52474,"internal_node_id":"0.0-2.0"},{"tries":2,"trial_type":"instructions_check","trial_index":3,"time_elapsed":112632,"internal_node_id":"0.0-3.0"},{"rt":18023,"url":"\/tickets\/utils\/start.html","trial_type":"html","trial_index":4,"time_elapsed":131919,"internal_node_id":"0.0-4.0"},{"trial_type":"number-animation","trial_index":5,"time_elapsed":208680,"internal_node_id":"0.0-5.0"},{"phase":0,"sequence":0,"avg":166,"response":148,"trial_type":"training_avg","trial_index":6,"time_elapsed":237049,"internal_node_id":"0.0-6.0"},{"trial_type":"number-animation","trial_index":7,"time_elapsed":286839,"internal_node_id":"0.0-7.0"},{"phase":0,"sequence":1,"avg":198,"response":197,"trial_type":"training_avg","trial_index":8,"time_elapsed":309161,"internal_node_id":"0.0-8.0"},{"trial_type":"number-animation","trial_index":9,"time_elapsed":352448,"internal_node_id":"0.0-9.0"},{"phase":0,"sequence":2,"avg":177,"response":177,"trial_type":"training_avg","trial_index":10,"time_elapsed":374360,"internal_node_id":"0.0-10.0"},{"trial_type":"number-animation","trial_index":11,"time_elapsed":415209,"internal_node_id":"0.0-11.0"},{"phase":0,"sequence":3,"avg":190,"response":190,"trial_type":"training_avg","trial_index":12,"time_elapsed":427591,"internal_node_id":"0.0-12.0"},{"trial_type":"number-animation","trial_index":13,"time_elapsed":470463,"internal_node_id":"0.0-13.0"},{"phase":0,"sequence":4,"avg":201,"response":201,"trial_type":"training_avg","trial_index":14,"time_elapsed":488431,"internal_node_id":"0.0-14.0"},{"responses":[{"value":1,"offby":0,"category":"$30 - $75","category_index":0},{"value":1,"offby":-1,"category":"$76 - $120","category_index":1},{"value":3,"offby":-1,"category":"$121 - $165","category_index":2},{"value":6,"offby":0,"category":"$166 - $210","category_index":3},{"value":7,"offby":1,"category":"$211 - $255","category_index":4},{"value":1,"offby":0,"category":"$256 - $300","category_index":5},{"value":1,"offby":1,"category":"$301 - $345","category_index":6}],"phase":0,"number":0,"trial_type":"bar-choose","trial_index":15,"time_elapsed":589475,"internal_node_id":"0.0-15.0"},{"rt":22099,"url":"\/tickets\/\/utils\/testing.html","trial_type":"html","trial_index":16,"time_elapsed":612864,"internal_node_id":"0.0-16.0"},{"phase":0,"order":[37,47,43,24,17,42,39,21,44,11,0,3,22,14,49,34,12,16,35,30,28,18,48,27,10,6,7,36,45,9,33,40,8,4,19,41,15,5,13,26,2,20,31,1,46,29,38,25,23,32],"trial_type":"store_order","trial_index":17,"time_elapsed":613865,"internal_node_id":"0.0-17.0"},{"result":165,"points":2,"place":1,"phase":0,"sequence":-1,"prices":[184,180,224,165,181,199,185,193,218,126],"times":[3642,1581,861,1936],"next_num":4,"trial_type":"ticket-choose","trial_index":18,"time_elapsed":626192,"internal_node_id":"0.0-18.0"},{"rt":26131,"url":"\/tickets\/utils\/testing_after.html","trial_type":"html","trial_index":19,"time_elapsed":653625,"internal_node_id":"0.0-19.0"},{"result":131,"points":2,"place":1,"phase":0,"sequence":0,"prices":[156,181,131,256,176,200,171,151,111,206],"times":[3821,1131,1407],"next_num":3,"trial_type":"ticket-choose","trial_index":20,"time_elapsed":664495,"internal_node_id":"0.0-20.0"},{"result":65,"points":2,"place":1,"phase":0,"sequence":1,"prices":[220,236,176,65,185,101,110,61,156,191],"times":[1941,1076,829,1462],"next_num":4,"trial_type":"ticket-choose","trial_index":21,"time_elapsed":673431,"internal_node_id":"0.0-21.0"},{"result":105,"points":3,"place":0,"phase":0,"sequence":2,"prices":[151,175,166,251,170,195,126,146,105,201],"times":[3038,693,1031,689,648,663,878,693,1230],"next_num":9,"trial_type":"ticket-choose","trial_index":22,"time_elapsed":688239,"internal_node_id":"0.0-22.0"},{"result":126,"points":2,"place":1,"phase":0,"sequence":3,"prices":[156,176,165,246,171,190,126,141,101,196],"times":[1605,789,709,693,740,782,2093],"next_num":7,"trial_type":"ticket-choose","trial_index":23,"time_elapsed":699459,"internal_node_id":"0.0-23.0"},{"result":95,"points":3,"place":0,"phase":0,"sequence":4,"prices":[95,205,106,151,186,271,145,210,215,181],"times":[1902],"next_num":1,"trial_type":"ticket-choose","trial_index":24,"time_elapsed":704183,"internal_node_id":"0.0-24.0"},{"result":75,"points":3,"place":0,"phase":0,"sequence":5,"prices":[75,171,131,151,161,250,145,190,206,156],"times":[1620],"next_num":1,"trial_type":"ticket-choose","trial_index":25,"time_elapsed":708375,"internal_node_id":"0.0-25.0"},{"result":120,"points":2,"place":1,"phase":0,"sequence":6,"prices":[145,171,161,245,165,191,120,140,100,196],"times":[1308,725,705,700,615,638,1645],"next_num":7,"trial_type":"ticket-choose","trial_index":26,"time_elapsed":718368,"internal_node_id":"0.0-26.0"},{"result":30,"points":3,"place":0,"phase":0,"sequence":7,"prices":[155,30,101,55,136,276,70,181,200,261],"times":[1571,1197],"next_num":2,"trial_type":"ticket-choose","trial_index":27,"time_elapsed":723703,"internal_node_id":"0.0-27.0"},{"result":106,"points":3,"place":0,"phase":0,"sequence":8,"prices":[155,225,245,130,176,106,180,211,165,200],"times":[2443,718,558,509,624,1276],"next_num":6,"trial_type":"ticket-choose","trial_index":28,"time_elapsed":733056,"internal_node_id":"0.0-28.0"},{"result":110,"points":3,"place":0,"phase":0,"sequence":9,"prices":[156,181,171,256,175,200,131,150,110,206],"times":[1389,968,797,789,630,822,709,727,1172],"next_num":9,"trial_type":"ticket-choose","trial_index":29,"time_elapsed":745231,"internal_node_id":"0.0-29.0"},{"result":81,"points":3,"place":0,"phase":0,"sequence":10,"prices":[155,245,155,81,180,130,156,306,166,115],"times":[2228,662,653,1255],"next_num":4,"trial_type":"ticket-choose","trial_index":30,"time_elapsed":752792,"internal_node_id":"0.0-30.0"},{"result":95,"points":3,"place":0,"phase":0,"sequence":11,"prices":[150,170,160,240,166,185,121,136,95,191],"times":[1092,662,693,679,576,674,631,604,1150],"next_num":9,"trial_type":"ticket-choose","trial_index":31,"time_elapsed":763433,"internal_node_id":"0.0-31.0"},{"result":215,"points":0,"place":7,"phase":0,"sequence":12,"prices":[246,145,155,191,176,270,185,136,160,215],"times":[1584,637,558,789,598,573,557,518,614,1983],"next_num":11,"trial_type":"ticket-choose","trial_index":32,"time_elapsed":776847,"internal_node_id":"0.0-32.0"},{"result":120,"points":2,"place":1,"phase":0,"sequence":13,"prices":[145,170,160,245,165,190,120,141,100,195],"times":[2317,725,662,670,765,765,1510],"next_num":7,"trial_type":"ticket-choose","trial_index":33,"time_elapsed":787679,"internal_node_id":"0.0-33.0"},{"result":126,"points":2,"place":1,"phase":0,"sequence":14,"prices":[150,175,166,251,170,196,126,145,105,201],"times":[1188,726,749,750,711,707,1335],"next_num":7,"trial_type":"ticket-choose","trial_index":34,"time_elapsed":797424,"internal_node_id":"0.0-34.0"},{"result":95,"points":3,"place":0,"phase":0,"sequence":15,"prices":[150,171,121,241,165,185,160,136,95,191],"times":[1083,654,671,598,646,765,775,1373,1253],"next_num":9,"trial_type":"ticket-choose","trial_index":35,"time_elapsed":809703,"internal_node_id":"0.0-35.0"},{"result":125,"points":2,"place":1,"phase":0,"sequence":16,"prices":[155,175,166,245,171,190,125,140,101,196],"times":[1852,715,831,721,675,726,1438],"next_num":7,"trial_type":"ticket-choose","trial_index":36,"time_elapsed":819911,"internal_node_id":"0.0-36.0"},{"result":105,"points":3,"place":0,"phase":0,"sequence":17,"prices":[150,176,126,251,171,195,165,145,105,200],"times":[1713,694,743,733,661,711,605,765,1269],"next_num":9,"trial_type":"ticket-choose","trial_index":37,"time_elapsed":831719,"internal_node_id":"0.0-37.0"},{"result":190,"points":0,"place":5,"phase":0,"sequence":18,"prices":[180,106,166,245,211,261,215,125,135,190],"times":[1772,748,583,621,645,662,693,909,1287,1349],"next_num":11,"trial_type":"ticket-choose","trial_index":38,"time_elapsed":845143,"internal_node_id":"0.0-38.0"},{"result":130,"points":2,"place":1,"phase":0,"sequence":19,"prices":[155,181,170,255,176,200,130,150,110,205],"times":[1874,1294,919,926,813,822,1310],"next_num":7,"trial_type":"ticket-choose","trial_index":39,"time_elapsed":856487,"internal_node_id":"0.0-39.0"},{"result":111,"points":3,"place":0,"phase":0,"sequence":20,"prices":[111,231,131,146,171,295,141,241,271,150],"times":[2403],"next_num":1,"trial_type":"ticket-choose","trial_index":40,"time_elapsed":861216,"internal_node_id":"0.0-40.0"},{"result":120,"points":2,"place":1,"phase":0,"sequence":21,"prices":[186,156,191,120,195,145,45,130,246,176],"times":[1282,757,798,1335],"next_num":4,"trial_type":"ticket-choose","trial_index":41,"time_elapsed":868128,"internal_node_id":"0.0-41.0"},{"result":111,"points":3,"place":0,"phase":0,"sequence":22,"prices":[156,181,130,255,175,200,170,150,111,205],"times":[1114,580,526,685,663,861,758,833,1308],"next_num":9,"trial_type":"ticket-choose","trial_index":42,"time_elapsed":879391,"internal_node_id":"0.0-42.0"},{"result":101,"points":3,"place":0,"phase":0,"sequence":23,"prices":[156,175,125,245,170,190,165,140,101,196],"times":[1548,991,550,622,655,677,686,1046,1109],"next_num":9,"trial_type":"ticket-choose","trial_index":43,"time_elapsed":890872,"internal_node_id":"0.0-43.0"},{"result":105,"points":3,"place":0,"phase":0,"sequence":24,"prices":[161,180,171,250,176,195,131,146,105,201],"times":[1233,685,661,566,671,727,741,1046,1046],"next_num":9,"trial_type":"ticket-choose","trial_index":44,"time_elapsed":901863,"internal_node_id":"0.0-44.0"},{"result":155,"points":1,"place":4,"phase":0,"sequence":25,"prices":[135,180,141,151,175,220,145,196,211,155],"times":[1192,693,846,672,660,837,709,727,1012,973],"next_num":10,"trial_type":"ticket-choose","trial_index":45,"time_elapsed":914975,"internal_node_id":"0.0-45.0"},{"result":136,"points":1,"place":2,"phase":0,"sequence":26,"prices":[255,166,266,175,136,145,155,61,96,301],"times":[1660,973,725,790,1223],"next_num":5,"trial_type":"ticket-choose","trial_index":46,"time_elapsed":923176,"internal_node_id":"0.0-46.0"},{"result":120,"points":3,"place":0,"phase":0,"sequence":27,"prices":[120,221,135,185,200,261,181,251,255,196],"times":[1410],"next_num":1,"trial_type":"ticket-choose","trial_index":47,"time_elapsed":927904,"internal_node_id":"0.0-47.0"},{"result":126,"points":2,"place":1,"phase":0,"sequence":28,"prices":[151,176,126,251,170,196,165,145,105,201],"times":[1272,717,1054],"next_num":3,"trial_type":"ticket-choose","trial_index":48,"time_elapsed":933415,"internal_node_id":"0.0-48.0"},{"result":120,"points":2,"place":1,"phase":0,"sequence":29,"prices":[150,170,160,241,166,186,120,136,96,191],"times":[1137,646,711,687,637,678,1351],"next_num":7,"trial_type":"ticket-choose","trial_index":49,"time_elapsed":942368,"internal_node_id":"0.0-49.0"},{"result":116,"points":3,"place":0,"phase":0,"sequence":30,"prices":[176,150,276,171,261,116,130,201,166,231],"times":[1099,779,671,694,679,1198],"next_num":6,"trial_type":"ticket-choose","trial_index":50,"time_elapsed":950487,"internal_node_id":"0.0-50.0"},{"result":126,"points":2,"place":1,"phase":0,"sequence":31,"prices":[156,175,126,246,170,190,165,140,100,196],"times":[1098,783,1198],"next_num":3,"trial_type":"ticket-choose","trial_index":51,"time_elapsed":956000,"internal_node_id":"0.0-51.0"},{"result":106,"points":2,"place":1,"phase":0,"sequence":32,"prices":[185,180,235,210,106,266,76,115,250,205],"times":[1050,670,654,675,1183],"next_num":5,"trial_type":"ticket-choose","trial_index":52,"time_elapsed":962952,"internal_node_id":"0.0-52.0"},{"result":91,"points":3,"place":0,"phase":0,"sequence":33,"prices":[176,150,141,91,290,201,106,266,206,126],"times":[850,703,615,1166],"next_num":4,"trial_type":"ticket-choose","trial_index":53,"time_elapsed":968855,"internal_node_id":"0.0-53.0"},{"result":131,"points":2,"place":1,"phase":0,"sequence":34,"prices":[160,180,170,251,176,195,131,146,105,200],"times":[1674,566,648,621,614,942,1262],"next_num":7,"trial_type":"ticket-choose","trial_index":54,"time_elapsed":978328,"internal_node_id":"0.0-54.0"},{"result":81,"points":3,"place":0,"phase":0,"sequence":35,"prices":[81,205,130,151,191,261,145,210,250,165],"times":[1778],"next_num":1,"trial_type":"ticket-choose","trial_index":55,"time_elapsed":982143,"internal_node_id":"0.0-55.0"},{"result":165,"points":1,"place":2,"phase":0,"sequence":36,"prices":[185,175,276,221,130,141,171,216,235,165],"times":[1864,661,623,542,518,717,734,743,3511,1181],"next_num":11,"trial_type":"ticket-choose","trial_index":56,"time_elapsed":997551,"internal_node_id":"0.0-56.0"},{"result":111,"points":3,"place":0,"phase":0,"sequence":37,"prices":[175,211,266,286,111,216,220,245,230,165],"times":[1128,917,774,718,1206],"next_num":5,"trial_type":"ticket-choose","trial_index":57,"time_elapsed":1005047,"internal_node_id":"0.0-57.0"},{"result":51,"points":3,"place":0,"phase":0,"sequence":38,"prices":[221,175,51,196,146,130,166,80,126,156],"times":[895,936,1095],"next_num":3,"trial_type":"ticket-choose","trial_index":58,"time_elapsed":1010288,"internal_node_id":"0.0-58.0"},{"result":100,"points":3,"place":0,"phase":0,"sequence":39,"prices":[146,171,120,245,165,191,160,140,100,196],"times":[1428,678,814,695,951,694,774,838,1158],"next_num":9,"trial_type":"ticket-choose","trial_index":59,"time_elapsed":1021983,"internal_node_id":"0.0-59.0"},{"result":96,"points":3,"place":0,"phase":0,"sequence":40,"prices":[150,171,120,241,165,185,160,135,96,190],"times":[1121,669,540,645,622,670,606,783,1202],"next_num":9,"trial_type":"ticket-choose","trial_index":60,"time_elapsed":1032624,"internal_node_id":"0.0-60.0"},{"result":100,"points":3,"place":0,"phase":0,"sequence":41,"prices":[146,170,121,245,166,190,161,141,100,195],"times":[1053,663,679,598,598,645,647,713,1238],"next_num":9,"trial_type":"ticket-choose","trial_index":61,"time_elapsed":1042992,"internal_node_id":"0.0-61.0"},{"result":150,"points":2,"place":1,"phase":0,"sequence":42,"prices":[181,156,145,165,236,231,201,260,150,185],"times":[1169,750,605,701,695,661,943,718,2014],"next_num":9,"trial_type":"ticket-choose","trial_index":62,"time_elapsed":1055151,"internal_node_id":"0.0-62.0"},{"result":175,"points":1,"place":4,"phase":0,"sequence":43,"prices":[130,195,141,155,181,226,150,216,221,175],"times":[1465,630,654,527,646,855,852,838,1030,928],"next_num":11,"trial_type":"ticket-choose","trial_index":63,"time_elapsed":1067759,"internal_node_id":"0.0-63.0"},{"result":125,"points":1,"place":2,"phase":0,"sequence":44,"prices":[226,205,125,120,115,135,180,145,150,220],"times":[1404,788,1279],"next_num":3,"trial_type":"ticket-choose","trial_index":64,"time_elapsed":1073639,"internal_node_id":"0.0-64.0"},{"result":131,"points":2,"place":1,"phase":0,"sequence":45,"prices":[161,180,131,251,175,196,171,146,105,201],"times":[936,815,1152],"next_num":3,"trial_type":"ticket-choose","trial_index":65,"time_elapsed":1078911,"internal_node_id":"0.0-65.0"},{"result":86,"points":3,"place":0,"phase":0,"sequence":46,"prices":[86,180,130,151,170,271,145,191,220,160],"times":[1128],"next_num":1,"trial_type":"ticket-choose","trial_index":66,"time_elapsed":1082191,"internal_node_id":"0.0-66.0"},{"result":105,"points":3,"place":0,"phase":0,"sequence":47,"prices":[105,216,146,165,210,260,161,235,241,185],"times":[1435],"next_num":1,"trial_type":"ticket-choose","trial_index":67,"time_elapsed":1085807,"internal_node_id":"0.0-67.0"},{"result":66,"points":3,"place":0,"phase":0,"sequence":48,"prices":[66,201,96,150,185,230,121,216,225,165],"times":[1734],"next_num":1,"trial_type":"ticket-choose","trial_index":68,"time_elapsed":1089744,"internal_node_id":"0.0-68.0"},{"result":130,"points":2,"place":1,"phase":0,"sequence":49,"prices":[160,180,130,251,176,195,170,146,105,200],"times":[1537,733,1166],"next_num":3,"trial_type":"ticket-choose","trial_index":69,"time_elapsed":1095584,"internal_node_id":"0.0-69.0"},{"responses":[{"value":3,"offby":2,"category":"$30 - $75","category_index":0},{"value":4,"offby":2,"category":"$76 - $120","category_index":1},{"value":3,"offby":-1,"category":"$121 - $165","category_index":2},{"value":6,"offby":0,"category":"$166 - $210","category_index":3},{"value":2,"offby":-4,"category":"$211 - $255","category_index":4},{"value":1,"offby":0,"category":"$256 - $300","category_index":5},{"value":1,"offby":1,"category":"$301 - $345","category_index":6}],"phase":0,"number":1,"trial_type":"bar-choose","trial_index":70,"time_elapsed":1148939,"internal_node_id":"0.0-70.0"},{"rt":7902,"url":"\/tickets\/utils\/start2.html","trial_type":"html","trial_index":71,"time_elapsed":1158112,"internal_node_id":"0.0-71.0"},{"trial_type":"number-animation","trial_index":72,"time_elapsed":1204104,"internal_node_id":"0.0-72.0"},{"phase":1,"sequence":0,"avg":180,"response":170,"trial_type":"training_avg","trial_index":73,"time_elapsed":1216079,"internal_node_id":"0.0-73.0"},{"trial_type":"number-animation","trial_index":74,"time_elapsed":1260599,"internal_node_id":"0.0-74.0"},{"phase":1,"sequence":1,"avg":178,"response":178,"trial_type":"training_avg","trial_index":75,"time_elapsed":1271632,"internal_node_id":"0.0-75.0"},{"trial_type":"number-animation","trial_index":76,"time_elapsed":1329047,"internal_node_id":"0.0-76.0"},{"phase":1,"sequence":2,"avg":176,"response":176,"trial_type":"training_avg","trial_index":77,"time_elapsed":1340575,"internal_node_id":"0.0-77.0"},{"trial_type":"number-animation","trial_index":78,"time_elapsed":1379216,"internal_node_id":"0.0-78.0"},{"phase":1,"sequence":3,"avg":178,"response":178,"trial_type":"training_avg","trial_index":79,"time_elapsed":1389423,"internal_node_id":"0.0-79.0"},{"trial_type":"number-animation","trial_index":80,"time_elapsed":1427704,"internal_node_id":"0.0-80.0"},{"phase":1,"sequence":4,"avg":179,"response":179,"trial_type":"training_avg","trial_index":81,"time_elapsed":1437607,"internal_node_id":"0.0-81.0"},{"responses":[{"value":2,"offby":2,"category":"$140 - $250","category_index":0},{"value":4,"offby":4,"category":"$151 - $160","category_index":1},{"value":7,"offby":3,"category":"$161 - $170","category_index":2},{"value":6,"offby":0,"category":"$171 - $180","category_index":3},{"value":1,"offby":-6,"category":"$181 - $190","category_index":4},{"value":0,"offby":-3,"category":"$191 - $200","category_index":5},{"value":0,"offby":0,"category":"$201 - $210","category_index":6}],"phase":1,"number":0,"trial_type":"bar-choose","trial_index":82,"time_elapsed":1511568,"internal_node_id":"0.0-82.0"},{"rt":4065,"url":"\/tickets\/utils\/testing2.html","trial_type":"html","trial_index":83,"time_elapsed":1516912,"internal_node_id":"0.0-83.0"},{"phase":1,"order":[10,43,7,5,25,28,22,44,49,15,42,20,48,23,6,16,4,3,41,14,29,37,11,1,12,32,39,27,2,21,40,0,34,45,13,30,38,46,35,18,17,19,47,33,36,8,24,26,31,9],"trial_type":"store_order","trial_index":84,"time_elapsed":1517915,"internal_node_id":"0.0-84.0"},{"result":153,"points":3,"place":0,"phase":1,"sequence":0,"prices":[181,175,182,168,183,173,153,170,193,179],"times":[2917,876,805,878,869,902,1398],"next_num":7,"trial_type":"ticket-choose","trial_index":85,"time_elapsed":1530023,"internal_node_id":"0.0-85.0"},{"result":174,"points":2,"place":1,"phase":1,"sequence":1,"prices":[180,175,173,177,191,190,184,196,174,181],"times":[1473,747,662,687,716,1054,853,740,2478],"next_num":9,"trial_type":"ticket-choose","trial_index":86,"time_elapsed":1543303,"internal_node_id":"0.0-86.0"},{"result":157,"points":2,"place":1,"phase":1,"sequence":2,"prices":[188,191,179,157,181,164,166,156,175,182],"times":[1385,799,838,1350],"next_num":4,"trial_type":"ticket-choose","trial_index":87,"time_elapsed":1550456,"internal_node_id":"0.0-87.0"},{"result":176,"points":1,"place":4,"phase":1,"sequence":3,"prices":[161,180,170,174,178,198,173,182,188,176],"times":[1598,782,749,701,709,719,1077,961,1403,2214],"next_num":11,"trial_type":"ticket-choose","trial_index":88,"time_elapsed":1565599,"internal_node_id":"0.0-88.0"},{"result":168,"points":2,"place":1,"phase":1,"sequence":4,"prices":[174,178,168,192,177,181,176,171,163,182],"times":[1182,638,1181],"next_num":3,"trial_type":"ticket-choose","trial_index":89,"time_elapsed":1570912,"internal_node_id":"0.0-89.0"},{"result":160,"points":3,"place":0,"phase":1,"sequence":5,"prices":[175,193,175,160,180,170,175,205,177,167],"times":[1510,702,781,1238],"next_num":4,"trial_type":"ticket-choose","trial_index":90,"time_elapsed":1577711,"internal_node_id":"0.0-90.0"},{"result":156,"points":3,"place":0,"phase":1,"sequence":6,"prices":[195,177,197,179,171,173,175,156,163,204],"times":[994,630,639,638,846,724,1207,1143],"next_num":8,"trial_type":"ticket-choose","trial_index":91,"time_elapsed":1587912,"internal_node_id":"0.0-91.0"},{"result":168,"points":2,"place":1,"phase":1,"sequence":7,"prices":[174,178,176,192,177,181,168,171,163,182],"times":[1143,685,581,679,679,735,1550],"next_num":7,"trial_type":"ticket-choose","trial_index":92,"time_elapsed":1597351,"internal_node_id":"0.0-92.0"},{"result":158,"points":1,"place":2,"phase":1,"sequence":8,"prices":[175,150,164,155,171,199,158,180,184,196],"times":[754,999,885,1112,949,774,2365],"next_num":7,"trial_type":"ticket-choose","trial_index":93,"time_elapsed":1608457,"internal_node_id":"0.0-93.0"},{"result":166,"points":3,"place":0,"phase":1,"sequence":9,"prices":[175,180,170,195,179,184,178,174,166,185],"times":[1193,693,702,844,727,717,693,806,1005],"next_num":9,"trial_type":"ticket-choose","trial_index":94,"time_elapsed":1619423,"internal_node_id":"0.0-94.0"},{"result":169,"points":2,"place":1,"phase":1,"sequence":10,"prices":[175,179,169,193,178,182,177,172,164,183],"times":[1528,726,1238],"next_num":3,"trial_type":"ticket-choose","trial_index":95,"time_elapsed":1625280,"internal_node_id":"0.0-95.0"},{"result":169,"points":2,"place":1,"phase":1,"sequence":11,"prices":[174,179,169,194,178,183,177,173,165,184],"times":[1118,654,1157],"next_num":3,"trial_type":"ticket-choose","trial_index":96,"time_elapsed":1630656,"internal_node_id":"0.0-96.0"},{"result":168,"points":2,"place":1,"phase":1,"sequence":12,"prices":[173,178,176,193,177,182,168,172,164,183],"times":[1067,751,817,851,728,685,1253],"next_num":7,"trial_type":"ticket-choose","trial_index":97,"time_elapsed":1639888,"internal_node_id":"0.0-97.0"},{"result":166,"points":3,"place":0,"phase":1,"sequence":13,"prices":[175,180,178,195,179,184,170,174,166,185],"times":[991,719,726,734,671,654,678,917,894],"next_num":9,"trial_type":"ticket-choose","trial_index":98,"time_elapsed":1650519,"internal_node_id":"0.0-98.0"},{"result":184,"points":0,"place":6,"phase":1,"sequence":14,"prices":[175,189,193,170,179,165,180,186,177,184],"times":[1218,661,519,484,526,498,641,550,814,890],"next_num":11,"trial_type":"ticket-choose","trial_index":99,"time_elapsed":1661359,"internal_node_id":"0.0-99.0"},{"result":165,"points":2,"place":1,"phase":1,"sequence":15,"prices":[181,180,191,186,165,197,159,167,194,185],"times":[1003,1606,685,782,1102],"next_num":5,"trial_type":"ticket-choose","trial_index":100,"time_elapsed":1669359,"internal_node_id":"0.0-100.0"},{"result":165,"points":3,"place":0,"phase":1,"sequence":16,"prices":[176,180,178,194,179,183,170,173,165,184],"times":[1289,695,664,718,651,814,751,1310,1085],"next_num":9,"trial_type":"ticket-choose","trial_index":101,"time_elapsed":1681224,"internal_node_id":"0.0-101.0"},{"result":168,"points":2,"place":1,"phase":1,"sequence":17,"prices":[174,178,168,192,177,181,176,171,163,182],"times":[1106,686,1222],"next_num":3,"trial_type":"ticket-choose","trial_index":102,"time_elapsed":1686575,"internal_node_id":"0.0-102.0"},{"result":154,"points":3,"place":0,"phase":1,"sequence":18,"prices":[188,179,154,183,173,170,177,160,169,175],"times":[940,734,1103],"next_num":3,"trial_type":"ticket-choose","trial_index":103,"time_elapsed":1691790,"internal_node_id":"0.0-103.0"},{"result":160,"points":3,"place":0,"phase":1,"sequence":19,"prices":[160,185,170,174,182,196,173,186,194,177],"times":[1870],"next_num":1,"trial_type":"ticket-choose","trial_index":104,"time_elapsed":1695822,"internal_node_id":"0.0-104.0"},{"result":159,"points":3,"place":0,"phase":1,"sequence":20,"prices":[159,178,170,174,176,194,173,182,185,175],"times":[1787],"next_num":1,"trial_type":"ticket-choose","trial_index":105,"time_elapsed":1699830,"internal_node_id":"0.0-105.0"},{"result":168,"points":2,"place":1,"phase":1,"sequence":21,"prices":[173,178,168,193,177,182,176,172,164,183],"times":[1252,813,1047],"next_num":3,"trial_type":"ticket-choose","trial_index":106,"time_elapsed":1705238,"internal_node_id":"0.0-106.0"},{"result":171,"points":3,"place":0,"phase":1,"sequence":22,"prices":[193,173,175,182,179,198,181,171,176,187],"times":[1018,846,766,733,687,710,958,1375],"next_num":8,"trial_type":"ticket-choose","trial_index":107,"time_elapsed":1715694,"internal_node_id":"0.0-107.0"},{"result":168,"points":3,"place":0,"phase":1,"sequence":23,"prices":[168,188,171,181,184,196,180,194,195,183],"times":[1368],"next_num":1,"trial_type":"ticket-choose","trial_index":108,"time_elapsed":1719046,"internal_node_id":"0.0-108.0"},{"result":170,"points":2,"place":1,"phase":1,"sequence":24,"prices":[175,180,170,195,179,184,178,174,166,185],"times":[1764,884,1244],"next_num":3,"trial_type":"ticket-choose","trial_index":109,"time_elapsed":1725831,"internal_node_id":"0.0-109.0"},{"result":169,"points":2,"place":1,"phase":1,"sequence":25,"prices":[174,179,177,194,178,183,169,173,165,184],"times":[1218,821,661,709,790,710,1133],"next_num":7,"trial_type":"ticket-choose","trial_index":110,"time_elapsed":1734942,"internal_node_id":"0.0-110.0"},{"result":169,"points":2,"place":1,"phase":1,"sequence":26,"prices":[174,179,177,194,178,183,169,173,165,184],"times":[1266,687,725,983,677,711,1126],"next_num":7,"trial_type":"ticket-choose","trial_index":111,"time_elapsed":1744206,"internal_node_id":"0.0-111.0"},{"result":169,"points":1,"place":2,"phase":1,"sequence":27,"prices":[189,185,169,168,167,171,180,173,174,188],"times":[1195,765,1158],"next_num":3,"trial_type":"ticket-choose","trial_index":112,"time_elapsed":1749783,"internal_node_id":"0.0-112.0"},{"result":162,"points":3,"place":0,"phase":1,"sequence":28,"prices":[179,174,172,162,202,184,165,197,185,169],"times":[884,647,679,1030],"next_num":4,"trial_type":"ticket-choose","trial_index":113,"time_elapsed":1755655,"internal_node_id":"0.0-113.0"},{"result":173,"points":1,"place":2,"phase":1,"sequence":29,"prices":[176,180,170,194,179,183,178,173,165,184],"times":[1220,654,646,710,757,695,933,1726],"next_num":8,"trial_type":"ticket-choose","trial_index":114,"time_elapsed":1766223,"internal_node_id":"0.0-114.0"},{"result":179,"points":1,"place":4,"phase":1,"sequence":30,"prices":[170,183,172,175,180,189,174,187,188,179],"times":[1015,691,861,710,805,615,966,934,1255,687],"next_num":11,"trial_type":"ticket-choose","trial_index":115,"time_elapsed":1778952,"internal_node_id":"0.0-115.0"},{"result":174,"points":1,"place":2,"phase":1,"sequence":31,"prices":[179,174,199,178,196,167,170,184,177,190],"times":[1019,1078],"next_num":2,"trial_type":"ticket-choose","trial_index":116,"time_elapsed":1783391,"internal_node_id":"0.0-116.0"},{"result":170,"points":2,"place":1,"phase":1,"sequence":32,"prices":[176,180,170,194,179,183,178,173,165,184],"times":[1143,781,1297],"next_num":3,"trial_type":"ticket-choose","trial_index":117,"time_elapsed":1789159,"internal_node_id":"0.0-117.0"},{"result":169,"points":2,"place":1,"phase":1,"sequence":33,"prices":[175,179,177,193,178,182,169,172,164,183],"times":[967,734,1046,743,797,742,1877],"next_num":7,"trial_type":"ticket-choose","trial_index":118,"time_elapsed":1799271,"internal_node_id":"0.0-118.0"},{"result":168,"points":2,"place":1,"phase":1,"sequence":34,"prices":[173,178,168,193,177,182,176,172,164,183],"times":[1084,670,1190],"next_num":3,"trial_type":"ticket-choose","trial_index":119,"time_elapsed":1804680,"internal_node_id":"0.0-119.0"},{"result":165,"points":3,"place":0,"phase":1,"sequence":35,"prices":[180,165,177,193,186,196,187,169,171,182],"times":[976,1220],"next_num":2,"trial_type":"ticket-choose","trial_index":120,"time_elapsed":1809167,"internal_node_id":"0.0-120.0"},{"result":170,"points":2,"place":1,"phase":1,"sequence":36,"prices":[175,180,178,195,179,184,170,174,166,185],"times":[1113,758,670,711,695,685,1222],"next_num":7,"trial_type":"ticket-choose","trial_index":121,"time_elapsed":1818088,"internal_node_id":"0.0-121.0"},{"result":169,"points":2,"place":1,"phase":1,"sequence":37,"prices":[175,179,177,193,178,182,169,172,164,183],"times":[1072,622,643,709,695,678,1188],"next_num":7,"trial_type":"ticket-choose","trial_index":122,"time_elapsed":1826936,"internal_node_id":"0.0-122.0"},{"result":170,"points":2,"place":1,"phase":1,"sequence":38,"prices":[176,180,178,194,179,183,170,173,165,184],"times":[905,631,670,644,771,951,1220],"next_num":7,"trial_type":"ticket-choose","trial_index":123,"time_elapsed":1835911,"internal_node_id":"0.0-123.0"},{"result":165,"points":3,"place":0,"phase":1,"sequence":39,"prices":[165,187,173,177,186,196,176,191,192,181],"times":[1259],"next_num":1,"trial_type":"ticket-choose","trial_index":124,"time_elapsed":1839184,"internal_node_id":"0.0-124.0"},{"result":169,"points":2,"place":1,"phase":1,"sequence":40,"prices":[174,179,169,194,178,183,177,173,165,184],"times":[1112,1134,1062],"next_num":3,"trial_type":"ticket-choose","trial_index":125,"time_elapsed":1844759,"internal_node_id":"0.0-125.0"},{"result":168,"points":2,"place":1,"phase":1,"sequence":41,"prices":[174,178,176,192,177,181,168,171,163,182],"times":[1121,685,726,693,637,685,1367],"next_num":7,"trial_type":"ticket-choose","trial_index":126,"time_elapsed":1854071,"internal_node_id":"0.0-126.0"},{"result":157,"points":3,"place":0,"phase":1,"sequence":42,"prices":[157,184,163,174,181,190,168,187,189,177],"times":[1150],"next_num":1,"trial_type":"ticket-choose","trial_index":127,"time_elapsed":1857111,"internal_node_id":"0.0-127.0"},{"result":169,"points":2,"place":1,"phase":1,"sequence":43,"prices":[175,179,169,193,178,182,177,172,164,183],"times":[1393,942,1334],"next_num":3,"trial_type":"ticket-choose","trial_index":128,"time_elapsed":1863047,"internal_node_id":"0.0-128.0"},{"result":166,"points":3,"place":0,"phase":1,"sequence":44,"prices":[179,186,197,201,166,187,188,193,190,177],"times":[889,719,700,902,1167],"next_num":5,"trial_type":"ticket-choose","trial_index":129,"time_elapsed":1870223,"internal_node_id":"0.0-129.0"},{"result":166,"points":3,"place":0,"phase":1,"sequence":45,"prices":[166,190,170,173,178,203,172,192,198,174],"times":[1222],"next_num":1,"trial_type":"ticket-choose","trial_index":130,"time_elapsed":1873487,"internal_node_id":"0.0-130.0"},{"result":177,"points":1,"place":2,"phase":1,"sequence":46,"prices":[181,179,199,188,170,172,178,187,191,177],"times":[1123,950,734,750,847,797,783,863,1124,727],"next_num":11,"trial_type":"ticket-choose","trial_index":131,"time_elapsed":1886416,"internal_node_id":"0.0-131.0"},{"result":163,"points":3,"place":0,"phase":1,"sequence":47,"prices":[163,185,165,174,181,198,173,186,187,180],"times":[1447],"next_num":1,"trial_type":"ticket-choose","trial_index":132,"time_elapsed":1889855,"internal_node_id":"0.0-132.0"},{"result":168,"points":2,"place":1,"phase":1,"sequence":48,"prices":[173,178,176,193,177,182,168,172,164,183],"times":[1442,737,675,782,845,934,1158],"next_num":7,"trial_type":"ticket-choose","trial_index":133,"time_elapsed":1899656,"internal_node_id":"0.0-133.0"},{"result":171,"points":3,"place":0,"phase":1,"sequence":49,"prices":[171,180,172,174,179,188,173,183,186,175],"times":[1504],"next_num":1,"trial_type":"ticket-choose","trial_index":134,"time_elapsed":1903431,"internal_node_id":"0.0-134.0"},{"responses":[{"value":2,"offby":2,"category":"$140 - $250","category_index":0},{"value":3,"offby":3,"category":"$151 - $160","category_index":1},{"value":5,"offby":1,"category":"$161 - $170","category_index":2},{"value":6,"offby":0,"category":"$171 - $180","category_index":3},{"value":4,"offby":-3,"category":"$181 - $190","category_index":4},{"value":0,"offby":-3,"category":"$191 - $200","category_index":5},{"value":0,"offby":0,"category":"$201 - $210","category_index":6}],"phase":1,"number":1,"trial_type":"bar-choose","trial_index":135,"time_elapsed":1930337,"internal_node_id":"0.0-135.0"},{"special_comment":"no","trial_type":"special_sequence","trial_index":136,"time_elapsed":1937761,"internal_node_id":"0.0-136.0"},{"during":"Nothing","bonus":304,"trial_type":"final","trial_index":137,"time_elapsed":1961249,"internal_node_id":"0.0-137.0"}],"bonus":304}