{"start_time":"2017-02-22 10:44:18","end_time":"2017-02-22 11:06:42","points_phase0":112,"points_phase1":119,"phase_order":1,"age":38,"gender":"f","tries":1,"during":"Nothing","worker_id":"A2AG45K4ULNBHF","assignment_id":"340UGXU9DZUPH5N434F08PUPRI5UVM","data":[{"rt":23567,"url":"\/tickets\/utils\/consent.html","trial_type":"html","trial_index":0,"time_elapsed":23733,"internal_node_id":"0.0-0.0"},{"age":38,"gender":"f","trial_type":"age","trial_index":1,"time_elapsed":28864,"internal_node_id":"0.0-1.0"},{"worker_id":"A2AG45K4ULNBHF","trial_type":"workerid","trial_index":2,"time_elapsed":33469,"internal_node_id":"0.0-2.0"},{"tries":1,"trial_type":"instructions_check","trial_index":3,"time_elapsed":71898,"internal_node_id":"0.0-3.0"},{"rt":11531,"url":"\/tickets\/utils\/start.html","trial_type":"html","trial_index":4,"time_elapsed":84575,"internal_node_id":"0.0-4.0"},{"trial_type":"number-animation","trial_index":5,"time_elapsed":99534,"internal_node_id":"0.0-5.0"},{"phase":0,"sequence":0,"avg":182,"response":170,"trial_type":"training_avg","trial_index":6,"time_elapsed":110307,"internal_node_id":"0.0-6.0"},{"trial_type":"number-animation","trial_index":7,"time_elapsed":132790,"internal_node_id":"0.0-7.0"},{"phase":0,"sequence":1,"avg":188,"response":190,"trial_type":"training_avg","trial_index":8,"time_elapsed":144313,"internal_node_id":"0.0-8.0"},{"trial_type":"number-animation","trial_index":9,"time_elapsed":166790,"internal_node_id":"0.0-9.0"},{"phase":0,"sequence":2,"avg":176,"response":140,"trial_type":"training_avg","trial_index":10,"time_elapsed":178579,"internal_node_id":"0.0-10.0"},{"trial_type":"number-animation","trial_index":11,"time_elapsed":201969,"internal_node_id":"0.0-11.0"},{"phase":0,"sequence":3,"avg":180,"response":140,"trial_type":"training_avg","trial_index":12,"time_elapsed":208746,"internal_node_id":"0.0-12.0"},{"trial_type":"number-animation","trial_index":13,"time_elapsed":227208,"internal_node_id":"0.0-13.0"},{"phase":0,"sequence":4,"avg":174,"response":140,"trial_type":"training_avg","trial_index":14,"time_elapsed":233856,"internal_node_id":"0.0-14.0"},{"responses":[{"value":0,"offby":-1,"category":"$90 - $120","category_index":0},{"value":1,"offby":-2,"category":"$121 - $145","category_index":1},{"value":4,"offby":1,"category":"$146 - $170","category_index":2},{"value":12,"offby":6,"category":"$171 - $195","category_index":3},{"value":2,"offby":-2,"category":"$196 - $220","category_index":4},{"value":1,"offby":-1,"category":"$221 - $245","category_index":5},{"value":0,"offby":-1,"category":"$246 - $270","category_index":6}],"phase":0,"number":0,"trial_type":"bar-choose","trial_index":15,"time_elapsed":295373,"internal_node_id":"0.0-15.0"},{"rt":52036,"url":"\/tickets\/\/utils\/testing.html","trial_type":"html","trial_index":16,"time_elapsed":348539,"internal_node_id":"0.0-16.0"},{"phase":0,"order":[31,19,1,20,34,2,42,5,35,26,0,18,36,14,6,47,8,45,12,25,17,41,48,10,16,13,43,27,3,28,29,30,7,4,15,32,39,23,24,37,9,49,21,11,44,46,40,38,33,22],"trial_type":"store_order","trial_index":17,"time_elapsed":349540,"internal_node_id":"0.0-17.0"},{"result":165,"points":2,"place":1,"phase":0,"sequence":-1,"prices":[184,180,224,165,181,199,185,193,218,126],"times":[4467,934,938,1701],"next_num":4,"trial_type":"ticket-choose","trial_index":18,"time_elapsed":360705,"internal_node_id":"0.0-18.0"},{"rt":12920,"url":"\/tickets\/utils\/testing_after.html","trial_type":"html","trial_index":19,"time_elapsed":374757,"internal_node_id":"0.0-19.0"},{"result":136,"points":2,"place":1,"phase":0,"sequence":0,"prices":[171,192,136,243,182,195,174,154,236,128],"times":[2275,876,1159],"next_num":3,"trial_type":"ticket-choose","trial_index":20,"time_elapsed":382211,"internal_node_id":"0.0-20.0"},{"result":143,"points":3,"place":0,"phase":0,"sequence":1,"prices":[143,206,153,194,201,267,168,208,210,196],"times":[1658],"next_num":1,"trial_type":"ticket-choose","trial_index":21,"time_elapsed":386299,"internal_node_id":"0.0-21.0"},{"result":146,"points":2,"place":1,"phase":0,"sequence":2,"prices":[170,193,146,268,178,195,172,149,126,241],"times":[1729,716,964],"next_num":3,"trial_type":"ticket-choose","trial_index":22,"time_elapsed":392491,"internal_node_id":"0.0-22.0"},{"result":154,"points":2,"place":1,"phase":0,"sequence":3,"prices":[170,190,176,251,183,192,154,157,236,131],"times":[1539,738,827,742,1429,657,1001],"next_num":7,"trial_type":"ticket-choose","trial_index":23,"time_elapsed":402907,"internal_node_id":"0.0-23.0"},{"result":158,"points":1,"place":3,"phase":0,"sequence":4,"prices":[216,206,158,145,224,185,124,149,175,162],"times":[1302,804,1525],"next_num":3,"trial_type":"ticket-choose","trial_index":24,"time_elapsed":409329,"internal_node_id":"0.0-24.0"},{"result":146,"points":2,"place":1,"phase":0,"sequence":5,"prices":[173,191,146,242,178,194,172,152,126,235],"times":[1348,605,898],"next_num":3,"trial_type":"ticket-choose","trial_index":25,"time_elapsed":414627,"internal_node_id":"0.0-25.0"},{"result":135,"points":3,"place":0,"phase":0,"sequence":6,"prices":[221,193,135,188,217,179,196,190,175,159],"times":[1248,698,1001],"next_num":3,"trial_type":"ticket-choose","trial_index":26,"time_elapsed":420139,"internal_node_id":"0.0-26.0"},{"result":136,"points":2,"place":1,"phase":0,"sequence":7,"prices":[172,194,174,243,182,193,136,150,237,126],"times":[1499,641,670,658,632,612,954],"next_num":7,"trial_type":"ticket-choose","trial_index":27,"time_elapsed":432293,"internal_node_id":"0.0-27.0"},{"result":135,"points":3,"place":0,"phase":0,"sequence":8,"prices":[135,202,150,169,183,225,160,211,220,172],"times":[1488],"next_num":1,"trial_type":"ticket-choose","trial_index":28,"time_elapsed":436011,"internal_node_id":"0.0-28.0"},{"result":105,"points":3,"place":0,"phase":0,"sequence":9,"prices":[263,165,224,214,105,230,215,185,177,193],"times":[1183,673,590,750,984],"next_num":5,"trial_type":"ticket-choose","trial_index":29,"time_elapsed":443069,"internal_node_id":"0.0-29.0"},{"result":124,"points":3,"place":0,"phase":0,"sequence":10,"prices":[219,183,227,124,176,161,140,129,171,201],"times":[1076,683,597,1064],"next_num":4,"trial_type":"ticket-choose","trial_index":30,"time_elapsed":449077,"internal_node_id":"0.0-30.0"},{"result":146,"points":2,"place":1,"phase":0,"sequence":11,"prices":[168,191,172,240,183,193,146,151,125,238],"times":[1093,617,624,652,665,687,967],"next_num":7,"trial_type":"ticket-choose","trial_index":31,"time_elapsed":457611,"internal_node_id":"0.0-31.0"},{"result":156,"points":1,"place":2,"phase":0,"sequence":12,"prices":[168,192,176,242,183,197,154,156,237,132],"times":[1018,645,655,624,618,595,1265,1269],"next_num":8,"trial_type":"ticket-choose","trial_index":32,"time_elapsed":467731,"internal_node_id":"0.0-32.0"},{"result":114,"points":3,"place":0,"phase":0,"sequence":13,"prices":[182,249,159,114,184,205,175,189,172,178],"times":[896,747,893,865],"next_num":4,"trial_type":"ticket-choose","trial_index":33,"time_elapsed":473806,"internal_node_id":"0.0-33.0"},{"result":138,"points":1,"place":2,"phase":0,"sequence":14,"prices":[181,138,118,170,190,101,146,169,175,233],"times":[905,894],"next_num":2,"trial_type":"ticket-choose","trial_index":34,"time_elapsed":477789,"internal_node_id":"0.0-34.0"},{"result":136,"points":2,"place":1,"phase":0,"sequence":15,"prices":[169,192,174,246,180,195,136,152,238,126],"times":[968,664,682,635,650,570,1611],"next_num":7,"trial_type":"ticket-choose","trial_index":35,"time_elapsed":486855,"internal_node_id":"0.0-35.0"},{"result":136,"points":2,"place":1,"phase":0,"sequence":16,"prices":[173,194,136,239,182,200,174,150,236,127],"times":[1173,708,944],"next_num":3,"trial_type":"ticket-choose","trial_index":36,"time_elapsed":491993,"internal_node_id":"0.0-36.0"},{"result":136,"points":2,"place":1,"phase":0,"sequence":17,"prices":[173,191,174,270,180,193,136,153,239,129],"times":[1064,593,638,650,594,576,948],"next_num":7,"trial_type":"ticket-choose","trial_index":37,"time_elapsed":500268,"internal_node_id":"0.0-37.0"},{"result":136,"points":2,"place":1,"phase":0,"sequence":18,"prices":[124,220,136,165,185,234,143,225,228,179],"times":[1576,687,872],"next_num":3,"trial_type":"ticket-choose","trial_index":38,"time_elapsed":505739,"internal_node_id":"0.0-38.0"},{"result":192,"points":1,"place":4,"phase":0,"sequence":19,"prices":[157,205,161,175,197,254,165,210,214,192],"times":[1338,565,635,588,577,643,614,1033,729,772],"next_num":10,"trial_type":"ticket-choose","trial_index":39,"time_elapsed":517185,"internal_node_id":"0.0-39.0"},{"result":149,"points":3,"place":0,"phase":0,"sequence":20,"prices":[244,203,196,189,154,206,197,149,171,159],"times":[929,661,641,667,1261,1513,781,1070],"next_num":8,"trial_type":"ticket-choose","trial_index":40,"time_elapsed":529422,"internal_node_id":"0.0-40.0"},{"result":119,"points":3,"place":0,"phase":0,"sequence":21,"prices":[198,119,169,141,195,233,136,208,177,217],"times":[2293,1018],"next_num":2,"trial_type":"ticket-choose","trial_index":41,"time_elapsed":535404,"internal_node_id":"0.0-41.0"},{"result":117,"points":3,"place":0,"phase":0,"sequence":22,"prices":[117,161,120,147,153,259,144,191,195,149],"times":[1146],"next_num":1,"trial_type":"ticket-choose","trial_index":42,"time_elapsed":538635,"internal_node_id":"0.0-42.0"},{"result":154,"points":2,"place":1,"phase":0,"sequence":23,"prices":[169,192,176,244,178,194,154,159,237,125],"times":[869,550,638,662,729,567,940],"next_num":7,"trial_type":"ticket-choose","trial_index":43,"time_elapsed":546742,"internal_node_id":"0.0-43.0"},{"result":131,"points":2,"place":1,"phase":0,"sequence":24,"prices":[221,234,131,136,132,149,154,90,176,173],"times":[1187,603,1068],"next_num":3,"trial_type":"ticket-choose","trial_index":44,"time_elapsed":551914,"internal_node_id":"0.0-44.0"},{"result":126,"points":3,"place":0,"phase":0,"sequence":25,"prices":[172,191,176,272,179,194,146,152,126,235],"times":[1204,579,568,603,629,603,1021,604,885],"next_num":9,"trial_type":"ticket-choose","trial_index":45,"time_elapsed":562268,"internal_node_id":"0.0-45.0"},{"result":146,"points":2,"place":1,"phase":0,"sequence":26,"prices":[168,191,146,252,183,193,172,153,126,238],"times":[1533,550,871],"next_num":3,"trial_type":"ticket-choose","trial_index":46,"time_elapsed":567614,"internal_node_id":"0.0-46.0"},{"result":155,"points":1,"place":2,"phase":0,"sequence":27,"prices":[169,191,154,268,183,197,176,155,236,133],"times":[1045,601,1042,575,597,578,600,1249],"next_num":8,"trial_type":"ticket-choose","trial_index":47,"time_elapsed":577292,"internal_node_id":"0.0-47.0"},{"result":126,"points":3,"place":0,"phase":0,"sequence":28,"prices":[170,193,176,245,178,194,154,159,236,126],"times":[777,532,581,659,625,567,500,1117,609,807],"next_num":10,"trial_type":"ticket-choose","trial_index":48,"time_elapsed":588292,"internal_node_id":"0.0-48.0"},{"result":136,"points":3,"place":0,"phase":0,"sequence":29,"prices":[240,188,273,207,250,136,217,170,171,236],"times":[1074,711,525,680,545,1013],"next_num":6,"trial_type":"ticket-choose","trial_index":49,"time_elapsed":595905,"internal_node_id":"0.0-49.0"},{"result":126,"points":3,"place":0,"phase":0,"sequence":30,"prices":[169,193,154,255,178,194,176,158,239,126],"times":[1885,704,552,579,555,568,599,655,591,1045],"next_num":10,"trial_type":"ticket-choose","trial_index":50,"time_elapsed":607745,"internal_node_id":"0.0-50.0"},{"result":146,"points":3,"place":0,"phase":0,"sequence":31,"prices":[156,218,212,216,191,210,275,146,174,152],"times":[1448,577,604,556,555,634,564,1229],"next_num":8,"trial_type":"ticket-choose","trial_index":51,"time_elapsed":617491,"internal_node_id":"0.0-51.0"},{"result":127,"points":3,"place":0,"phase":0,"sequence":32,"prices":[169,194,154,271,178,201,176,158,236,127],"times":[900,678,572,518,522,558,604,618,580,751],"next_num":10,"trial_type":"ticket-choose","trial_index":52,"time_elapsed":628381,"internal_node_id":"0.0-52.0"},{"result":136,"points":2,"place":1,"phase":0,"sequence":33,"prices":[172,190,136,270,179,192,174,152,237,129],"times":[1177,503,1333],"next_num":3,"trial_type":"ticket-choose","trial_index":53,"time_elapsed":633715,"internal_node_id":"0.0-53.0"},{"result":128,"points":3,"place":0,"phase":0,"sequence":34,"prices":[196,221,149,164,216,167,175,128,176,181],"times":[754,711,997,564,547,613,588,1001],"next_num":8,"trial_type":"ticket-choose","trial_index":54,"time_elapsed":642923,"internal_node_id":"0.0-54.0"},{"result":130,"points":2,"place":1,"phase":0,"sequence":35,"prices":[181,130,116,142,157,193,165,218,173,207],"times":[864,1012],"next_num":2,"trial_type":"ticket-choose","trial_index":55,"time_elapsed":646906,"internal_node_id":"0.0-55.0"},{"result":187,"points":0,"place":7,"phase":0,"sequence":36,"prices":[186,146,191,179,152,116,140,201,172,187],"times":[856,1512,715,636,752,617,704,622,567,1044],"next_num":10,"trial_type":"ticket-choose","trial_index":56,"time_elapsed":658945,"internal_node_id":"0.0-56.0"},{"result":136,"points":2,"place":1,"phase":0,"sequence":37,"prices":[170,192,174,242,181,196,136,153,236,128],"times":[1248,1554,657,573,533,553,1119],"next_num":7,"trial_type":"ticket-choose","trial_index":57,"time_elapsed":668244,"internal_node_id":"0.0-57.0"},{"result":162,"points":1,"place":3,"phase":0,"sequence":38,"prices":[197,153,181,215,150,155,164,247,177,162],"times":[1147,967,527,690,820,638,628,567,564,1300],"next_num":10,"trial_type":"ticket-choose","trial_index":58,"time_elapsed":679901,"internal_node_id":"0.0-58.0"},{"result":136,"points":2,"place":1,"phase":0,"sequence":39,"prices":[171,192,136,265,180,194,174,152,239,127],"times":[865,517,896],"next_num":3,"trial_type":"ticket-choose","trial_index":59,"time_elapsed":684439,"internal_node_id":"0.0-59.0"},{"result":129,"points":2,"place":1,"phase":0,"sequence":40,"prices":[155,129,164,189,210,108,187,241,174,275],"times":[1062,855],"next_num":2,"trial_type":"ticket-choose","trial_index":60,"time_elapsed":688360,"internal_node_id":"0.0-60.0"},{"result":188,"points":1,"place":4,"phase":0,"sequence":41,"prices":[142,207,171,182,190,269,180,218,256,188],"times":[817,589,637,579,578,597,693,632,893,690],"next_num":10,"trial_type":"ticket-choose","trial_index":61,"time_elapsed":698865,"internal_node_id":"0.0-61.0"},{"result":133,"points":3,"place":0,"phase":0,"sequence":42,"prices":[168,192,154,237,182,196,176,156,235,133],"times":[1064,570,774,554,608,660,606,1175,583,721],"next_num":10,"trial_type":"ticket-choose","trial_index":62,"time_elapsed":710141,"internal_node_id":"0.0-62.0"},{"result":121,"points":3,"place":0,"phase":0,"sequence":43,"prices":[121,191,128,141,166,217,129,196,202,157],"times":[1111],"next_num":1,"trial_type":"ticket-choose","trial_index":63,"time_elapsed":713256,"internal_node_id":"0.0-63.0"},{"result":128,"points":3,"place":0,"phase":0,"sequence":44,"prices":[171,195,172,242,179,196,146,150,128,235],"times":[1101,513,530,593,542,547,568,622,947],"next_num":9,"trial_type":"ticket-choose","trial_index":64,"time_elapsed":722698,"internal_node_id":"0.0-64.0"},{"result":132,"points":3,"place":0,"phase":0,"sequence":45,"prices":[132,222,144,153,190,248,151,224,228,179],"times":[1146],"next_num":1,"trial_type":"ticket-choose","trial_index":65,"time_elapsed":725730,"internal_node_id":"0.0-65.0"},{"result":127,"points":3,"place":0,"phase":0,"sequence":46,"prices":[171,191,172,268,179,194,146,150,127,239],"times":[876,551,847,558,634,627,1419,890,801],"next_num":9,"trial_type":"ticket-choose","trial_index":66,"time_elapsed":736598,"internal_node_id":"0.0-66.0"},{"result":137,"points":3,"place":0,"phase":0,"sequence":47,"prices":[137,187,152,156,166,231,155,194,202,160],"times":[929],"next_num":1,"trial_type":"ticket-choose","trial_index":67,"time_elapsed":739477,"internal_node_id":"0.0-67.0"},{"result":189,"points":1,"place":4,"phase":0,"sequence":48,"prices":[157,213,159,187,194,242,161,222,225,189],"times":[947,525,663,542,619,552,579,597,573,980],"next_num":10,"trial_type":"ticket-choose","trial_index":68,"time_elapsed":749794,"internal_node_id":"0.0-68.0"},{"result":146,"points":2,"place":1,"phase":0,"sequence":49,"prices":[169,193,146,237,180,196,172,150,129,236],"times":[977,576,886],"next_num":3,"trial_type":"ticket-choose","trial_index":69,"time_elapsed":754485,"internal_node_id":"0.0-69.0"},{"responses":[{"value":0,"offby":-1,"category":"$90 - $120","category_index":0},{"value":0,"offby":-3,"category":"$121 - $145","category_index":1},{"value":2,"offby":-1,"category":"$146 - $170","category_index":2},{"value":10,"offby":4,"category":"$171 - $195","category_index":3},{"value":6,"offby":2,"category":"$196 - $220","category_index":4},{"value":2,"offby":0,"category":"$221 - $245","category_index":5},{"value":0,"offby":-1,"category":"$246 - $270","category_index":6}],"phase":0,"number":1,"trial_type":"bar-choose","trial_index":70,"time_elapsed":802212,"internal_node_id":"0.0-70.0"},{"rt":4897,"url":"\/tickets\/utils\/start2.html","trial_type":"html","trial_index":71,"time_elapsed":808244,"internal_node_id":"0.0-71.0"},{"trial_type":"number-animation","trial_index":72,"time_elapsed":825331,"internal_node_id":"0.0-72.0"},{"phase":1,"sequence":0,"avg":181,"response":160,"trial_type":"training_avg","trial_index":73,"time_elapsed":833553,"internal_node_id":"0.0-73.0"},{"trial_type":"number-animation","trial_index":74,"time_elapsed":850975,"internal_node_id":"0.0-74.0"},{"phase":1,"sequence":1,"avg":188,"response":160,"trial_type":"training_avg","trial_index":75,"time_elapsed":861165,"internal_node_id":"0.0-75.0"},{"trial_type":"number-animation","trial_index":76,"time_elapsed":878513,"internal_node_id":"0.0-76.0"},{"phase":1,"sequence":2,"avg":188,"response":160,"trial_type":"training_avg","trial_index":77,"time_elapsed":886901,"internal_node_id":"0.0-77.0"},{"trial_type":"number-animation","trial_index":78,"time_elapsed":897930,"internal_node_id":"0.0-78.0"},{"phase":1,"sequence":3,"avg":177,"response":160,"trial_type":"training_avg","trial_index":79,"time_elapsed":903649,"internal_node_id":"0.0-79.0"},{"trial_type":"number-animation","trial_index":80,"time_elapsed":914021,"internal_node_id":"0.0-80.0"},{"phase":1,"sequence":4,"avg":182,"response":160,"trial_type":"training_avg","trial_index":81,"time_elapsed":919785,"internal_node_id":"0.0-81.0"},{"responses":[{"value":0,"offby":0,"category":"$106 - $134","category_index":0},{"value":1,"offby":0,"category":"$135 - $150","category_index":1},{"value":3,"offby":0,"category":"$151 - $165","category_index":2},{"value":11,"offby":5,"category":"$166 - $180","category_index":3},{"value":4,"offby":-2,"category":"$181 - $195","category_index":4},{"value":1,"offby":-2,"category":"$196 - $210","category_index":5},{"value":0,"offby":-1,"category":"$211 - $225","category_index":6}],"phase":1,"number":0,"trial_type":"bar-choose","trial_index":82,"time_elapsed":942835,"internal_node_id":"0.0-82.0"},{"rt":11559,"url":"\/tickets\/utils\/testing2.html","trial_type":"html","trial_index":83,"time_elapsed":955529,"internal_node_id":"0.0-83.0"},{"phase":1,"order":[17,32,3,13,37,0,43,22,30,42,47,6,12,48,44,20,18,23,26,27,45,40,31,14,41,4,2,9,15,46,10,38,11,19,36,34,49,21,39,16,35,24,8,29,5,25,7,33,28,1],"trial_type":"store_order","trial_index":84,"time_elapsed":956532,"internal_node_id":"0.0-84.0"},{"result":148,"points":3,"place":0,"phase":1,"sequence":0,"prices":[148,171,150,163,167,220,162,186,187,165],"times":[1654],"next_num":1,"trial_type":"ticket-choose","trial_index":85,"time_elapsed":960219,"internal_node_id":"0.0-85.0"},{"result":158,"points":2,"place":1,"phase":1,"sequence":1,"prices":[176,185,158,217,180,186,177,166,209,154],"times":[1107,601,897],"next_num":3,"trial_type":"ticket-choose","trial_index":86,"time_elapsed":965059,"internal_node_id":"0.0-86.0"},{"result":154,"points":3,"place":0,"phase":1,"sequence":2,"prices":[175,187,163,209,180,188,176,165,154,208],"times":[1009,550,689,644,604,554,587,981,808],"next_num":9,"trial_type":"ticket-choose","trial_index":87,"time_elapsed":975079,"internal_node_id":"0.0-87.0"},{"result":158,"points":2,"place":1,"phase":1,"sequence":3,"prices":[175,186,177,221,180,187,158,166,209,153],"times":[894,624,555,616,576,548,1042],"next_num":7,"trial_type":"ticket-choose","trial_index":88,"time_elapsed":982979,"internal_node_id":"0.0-88.0"},{"result":155,"points":2,"place":1,"phase":1,"sequence":4,"prices":[181,155,148,161,168,187,172,199,176,194],"times":[1149,861],"next_num":2,"trial_type":"ticket-choose","trial_index":89,"time_elapsed":987131,"internal_node_id":"0.0-89.0"},{"result":163,"points":2,"place":1,"phase":1,"sequence":5,"prices":[174,186,163,212,181,187,176,166,153,209],"times":[1118,545,920],"next_num":3,"trial_type":"ticket-choose","trial_index":90,"time_elapsed":991887,"internal_node_id":"0.0-90.0"},{"result":143,"points":3,"place":0,"phase":1,"sequence":6,"prices":[222,173,202,197,143,205,198,183,178,186],"times":[736,878,570,535,840],"next_num":5,"trial_type":"ticket-choose","trial_index":91,"time_elapsed":998115,"internal_node_id":"0.0-91.0"},{"result":163,"points":2,"place":1,"phase":1,"sequence":7,"prices":[175,187,176,209,180,188,163,165,154,208],"times":[817,540,563,582,572,569,1275],"next_num":7,"trial_type":"ticket-choose","trial_index":92,"time_elapsed":1006167,"internal_node_id":"0.0-92.0"},{"result":154,"points":2,"place":1,"phase":1,"sequence":8,"prices":[168,154,172,185,195,144,184,211,177,227],"times":[862,768],"next_num":2,"trial_type":"ticket-choose","trial_index":93,"time_elapsed":1009775,"internal_node_id":"0.0-93.0"},{"result":152,"points":3,"place":0,"phase":1,"sequence":9,"prices":[152,200,158,173,182,207,161,202,204,180],"times":[860],"next_num":1,"trial_type":"ticket-choose","trial_index":94,"time_elapsed":1012487,"internal_node_id":"0.0-94.0"},{"result":163,"points":2,"place":1,"phase":1,"sequence":10,"prices":[176,186,163,214,179,187,176,166,153,208],"times":[1461,520,1053],"next_num":3,"trial_type":"ticket-choose","trial_index":95,"time_elapsed":1017711,"internal_node_id":"0.0-95.0"},{"result":158,"points":2,"place":1,"phase":1,"sequence":11,"prices":[176,187,158,210,181,187,177,165,208,153],"times":[736,536,768],"next_num":3,"trial_type":"ticket-choose","trial_index":96,"time_elapsed":1021858,"internal_node_id":"0.0-96.0"},{"result":154,"points":3,"place":0,"phase":1,"sequence":12,"prices":[188,200,165,172,198,174,177,154,177,180],"times":[687,648,700,577,571,585,564,1009],"next_num":8,"trial_type":"ticket-choose","trial_index":97,"time_elapsed":1030537,"internal_node_id":"0.0-97.0"},{"result":167,"points":2,"place":1,"phase":1,"sequence":13,"prices":[175,186,178,212,179,187,167,169,209,153],"times":[2184,645,783,686,623,605,857],"next_num":7,"trial_type":"ticket-choose","trial_index":98,"time_elapsed":1039947,"internal_node_id":"0.0-98.0"},{"result":163,"points":2,"place":1,"phase":1,"sequence":14,"prices":[174,186,176,217,181,187,163,166,153,209],"times":[815,629,734,637,549,587,903],"next_num":7,"trial_type":"ticket-choose","trial_index":99,"time_elapsed":1047787,"internal_node_id":"0.0-99.0"},{"result":152,"points":3,"place":0,"phase":1,"sequence":15,"prices":[200,181,203,152,175,171,160,154,176,191],"times":[909,507,597,991],"next_num":4,"trial_type":"ticket-choose","trial_index":100,"time_elapsed":1053533,"internal_node_id":"0.0-100.0"},{"result":167,"points":2,"place":1,"phase":1,"sequence":16,"prices":[174,186,167,211,181,188,178,168,208,156],"times":[979,627,1053],"next_num":3,"trial_type":"ticket-choose","trial_index":101,"time_elapsed":1058647,"internal_node_id":"0.0-101.0"},{"result":167,"points":2,"place":1,"phase":1,"sequence":17,"prices":[212,192,188,184,167,193,189,164,176,170],"times":[725,836,515,561,906],"next_num":5,"trial_type":"ticket-choose","trial_index":102,"time_elapsed":1064794,"internal_node_id":"0.0-102.0"},{"result":156,"points":3,"place":0,"phase":1,"sequence":18,"prices":[174,186,178,217,181,188,167,168,208,156],"times":[731,646,523,564,538,539,862,844,812,703],"next_num":10,"trial_type":"ticket-choose","trial_index":103,"time_elapsed":1075668,"internal_node_id":"0.0-103.0"},{"result":156,"points":3,"place":0,"phase":1,"sequence":19,"prices":[156,201,162,166,185,214,165,202,204,179],"times":[1024],"next_num":1,"trial_type":"ticket-choose","trial_index":104,"time_elapsed":1078476,"internal_node_id":"0.0-104.0"},{"result":158,"points":2,"place":1,"phase":1,"sequence":20,"prices":[175,186,158,209,181,188,177,167,208,154],"times":[854,704,886],"next_num":3,"trial_type":"ticket-choose","trial_index":105,"time_elapsed":1083166,"internal_node_id":"0.0-105.0"},{"result":155,"points":2,"place":1,"phase":1,"sequence":21,"prices":[201,207,155,158,156,165,167,135,178,177],"times":[794,512,1118],"next_num":3,"trial_type":"ticket-choose","trial_index":106,"time_elapsed":1087840,"internal_node_id":"0.0-106.0"},{"result":147,"points":3,"place":0,"phase":1,"sequence":22,"prices":[181,215,169,147,182,193,177,184,176,179],"times":[664,596,677,862],"next_num":4,"trial_type":"ticket-choose","trial_index":107,"time_elapsed":1093080,"internal_node_id":"0.0-107.0"},{"result":153,"points":3,"place":0,"phase":1,"sequence":23,"prices":[175,186,167,225,179,187,178,169,209,153],"times":[724,630,741,537,557,543,566,923,646,643],"next_num":10,"trial_type":"ticket-choose","trial_index":108,"time_elapsed":1103558,"internal_node_id":"0.0-108.0"},{"result":158,"points":2,"place":1,"phase":1,"sequence":24,"prices":[175,186,158,211,180,187,177,166,209,153],"times":[1440,505,818],"next_num":3,"trial_type":"ticket-choose","trial_index":109,"time_elapsed":1111610,"internal_node_id":"0.0-109.0"},{"result":156,"points":3,"place":0,"phase":1,"sequence":25,"prices":[175,185,178,215,181,186,167,168,208,156],"times":[862,519,570,648,551,569,955,633,574,515],"next_num":10,"trial_type":"ticket-choose","trial_index":110,"time_elapsed":1121770,"internal_node_id":"0.0-110.0"},{"result":157,"points":3,"place":0,"phase":1,"sequence":26,"prices":[201,187,157,184,198,179,188,185,178,170],"times":[1075,590,840],"next_num":3,"trial_type":"ticket-choose","trial_index":111,"time_elapsed":1126482,"internal_node_id":"0.0-111.0"},{"result":186,"points":1,"place":4,"phase":1,"sequence":27,"prices":[168,192,171,178,188,217,172,195,197,186],"times":[6001,546,571,551,501,654,517,571,623,792],"next_num":10,"trial_type":"ticket-choose","trial_index":112,"time_elapsed":1142032,"internal_node_id":"0.0-112.0"},{"result":163,"points":2,"place":1,"phase":1,"sequence":28,"prices":[175,186,163,211,179,187,176,165,153,210],"times":[1062,583,759],"next_num":3,"trial_type":"ticket-choose","trial_index":113,"time_elapsed":1146580,"internal_node_id":"0.0-113.0"},{"result":185,"points":1,"place":4,"phase":1,"sequence":29,"prices":[169,196,170,184,187,211,171,201,202,185],"times":[866,579,751,576,586,684,584,739,573,679],"next_num":10,"trial_type":"ticket-choose","trial_index":114,"time_elapsed":1156940,"internal_node_id":"0.0-114.0"},{"result":150,"points":3,"place":0,"phase":1,"sequence":30,"prices":[150,185,154,161,173,199,155,188,191,168],"times":[1114],"next_num":1,"trial_type":"ticket-choose","trial_index":115,"time_elapsed":1159945,"internal_node_id":"0.0-115.0"},{"result":157,"points":3,"place":0,"phase":1,"sequence":31,"prices":[157,191,165,175,182,203,170,195,200,176],"times":[909],"next_num":1,"trial_type":"ticket-choose","trial_index":116,"time_elapsed":1162796,"internal_node_id":"0.0-116.0"},{"result":163,"points":2,"place":1,"phase":1,"sequence":32,"prices":[175,186,176,224,179,187,163,165,153,210],"times":[853,573,569,607,576,567,979],"next_num":7,"trial_type":"ticket-choose","trial_index":117,"time_elapsed":1170496,"internal_node_id":"0.0-117.0"},{"result":163,"points":2,"place":1,"phase":1,"sequence":33,"prices":[176,186,176,210,179,187,163,166,153,208],"times":[862,550,567,608,653,601,863],"next_num":7,"trial_type":"ticket-choose","trial_index":118,"time_elapsed":1178242,"internal_node_id":"0.0-118.0"},{"result":153,"points":3,"place":0,"phase":1,"sequence":34,"prices":[175,187,178,209,179,187,167,169,208,153],"times":[833,770,524,587,578,580,1221,943,586,579],"next_num":10,"trial_type":"ticket-choose","trial_index":119,"time_elapsed":1189143,"internal_node_id":"0.0-119.0"},{"result":161,"points":3,"place":0,"phase":1,"sequence":35,"prices":[161,193,167,187,190,224,174,194,195,188],"times":[1061],"next_num":1,"trial_type":"ticket-choose","trial_index":120,"time_elapsed":1192033,"internal_node_id":"0.0-120.0"},{"result":167,"points":2,"place":1,"phase":1,"sequence":36,"prices":[189,167,180,197,165,168,172,213,178,171],"times":[812,1123],"next_num":2,"trial_type":"ticket-choose","trial_index":121,"time_elapsed":1195969,"internal_node_id":"0.0-121.0"},{"result":158,"points":2,"place":1,"phase":1,"sequence":37,"prices":[176,185,177,218,180,186,158,166,209,154],"times":[1137,517,546,477,553,688,821],"next_num":7,"trial_type":"ticket-choose","trial_index":122,"time_elapsed":1203755,"internal_node_id":"0.0-122.0"},{"result":161,"points":3,"place":0,"phase":1,"sequence":38,"prices":[161,193,175,181,185,224,180,199,218,184],"times":[1124],"next_num":1,"trial_type":"ticket-choose","trial_index":123,"time_elapsed":1207045,"internal_node_id":"0.0-123.0"},{"result":163,"points":2,"place":1,"phase":1,"sequence":39,"prices":[198,193,169,163,202,182,152,164,177,171],"times":[883,1197,776,1308],"next_num":4,"trial_type":"ticket-choose","trial_index":124,"time_elapsed":1213669,"internal_node_id":"0.0-124.0"},{"result":168,"points":1,"place":2,"phase":1,"sequence":40,"prices":[175,185,167,224,181,186,178,168,208,156],"times":[733,496,849,652,582,594,590,1781],"next_num":8,"trial_type":"ticket-choose","trial_index":125,"time_elapsed":1223237,"internal_node_id":"0.0-125.0"},{"result":163,"points":1,"place":2,"phase":1,"sequence":41,"prices":[183,163,185,180,166,148,160,186,176,184],"times":[840,829],"next_num":2,"trial_type":"ticket-choose","trial_index":126,"time_elapsed":1226839,"internal_node_id":"0.0-126.0"},{"result":158,"points":2,"place":1,"phase":1,"sequence":42,"prices":[175,186,177,209,181,188,158,167,208,154],"times":[756,618,495,510,551,495,879],"next_num":7,"trial_type":"ticket-choose","trial_index":127,"time_elapsed":1234185,"internal_node_id":"0.0-127.0"},{"result":153,"points":3,"place":0,"phase":1,"sequence":43,"prices":[175,187,167,212,179,187,178,169,208,153],"times":[741,664,1037,533,548,579,521,783,580,826],"next_num":10,"trial_type":"ticket-choose","trial_index":128,"time_elapsed":1244779,"internal_node_id":"0.0-128.0"},{"result":141,"points":3,"place":0,"phase":1,"sequence":44,"prices":[180,159,149,175,185,141,163,174,178,207],"times":[1346,431,533,650,585,914],"next_num":6,"trial_type":"ticket-choose","trial_index":129,"time_elapsed":1252145,"internal_node_id":"0.0-129.0"},{"result":158,"points":3,"place":0,"phase":1,"sequence":45,"prices":[210,184,226,193,215,158,199,175,176,208],"times":[1340,633,515,794,601,908],"next_num":6,"trial_type":"ticket-choose","trial_index":130,"time_elapsed":1259753,"internal_node_id":"0.0-130.0"},{"result":150,"points":3,"place":0,"phase":1,"sequence":46,"prices":[189,150,175,160,188,207,158,194,178,199],"times":[987,896],"next_num":2,"trial_type":"ticket-choose","trial_index":131,"time_elapsed":1263621,"internal_node_id":"0.0-131.0"},{"result":163,"points":3,"place":0,"phase":1,"sequence":47,"prices":[168,199,196,198,185,195,227,163,177,166],"times":[916,730,667,535,676,656,790,941],"next_num":8,"trial_type":"ticket-choose","trial_index":132,"time_elapsed":1272873,"internal_node_id":"0.0-132.0"},{"result":159,"points":3,"place":0,"phase":1,"sequence":48,"prices":[159,183,166,168,173,205,167,187,191,170],"times":[1089],"next_num":1,"trial_type":"ticket-choose","trial_index":133,"time_elapsed":1275786,"internal_node_id":"0.0-133.0"},{"result":158,"points":2,"place":1,"phase":1,"sequence":49,"prices":[176,187,177,225,181,187,158,165,208,153],"times":[881,557,535,539,623,557,869],"next_num":7,"trial_type":"ticket-choose","trial_index":134,"time_elapsed":1283405,"internal_node_id":"0.0-134.0"},{"responses":[{"value":0,"offby":0,"category":"$106 - $134","category_index":0},{"value":0,"offby":-1,"category":"$135 - $150","category_index":1},{"value":2,"offby":-1,"category":"$151 - $165","category_index":2},{"value":6,"offby":0,"category":"$166 - $180","category_index":3},{"value":8,"offby":2,"category":"$181 - $195","category_index":4},{"value":3,"offby":0,"category":"$196 - $210","category_index":5},{"value":1,"offby":0,"category":"$211 - $225","category_index":6}],"phase":1,"number":1,"trial_type":"bar-choose","trial_index":135,"time_elapsed":1320267,"internal_node_id":"0.0-135.0"},{"special_comment":"No","trial_type":"special_sequence","trial_index":136,"time_elapsed":1326309,"internal_node_id":"0.0-136.0"},{"during":"Nothing","bonus":308,"trial_type":"final","trial_index":137,"time_elapsed":1341277,"internal_node_id":"0.0-137.0"}],"bonus":308}