{"start_time":"2017-02-22 10:35:40","end_time":"2017-02-22 10:57:23","points_phase0":104,"points_phase1":110,"phase_order":1,"age":37,"gender":"m","tries":1,"during":"Nothing","worker_id":"A2AJ5QFNC9KF43","assignment_id":"3VHP9MDGROD4ZEKEHYPWWX5XWOBCF7","data":[{"rt":9179,"url":"\/tickets\/utils\/consent.html","trial_type":"html","trial_index":0,"time_elapsed":9279,"internal_node_id":"0.0-0.0"},{"age":37,"gender":"m","trial_type":"age","trial_index":1,"time_elapsed":14671,"internal_node_id":"0.0-1.0"},{"worker_id":"A2AJ5QFNC9KF43","trial_type":"workerid","trial_index":2,"time_elapsed":25494,"internal_node_id":"0.0-2.0"},{"tries":1,"trial_type":"instructions_check","trial_index":3,"time_elapsed":40989,"internal_node_id":"0.0-3.0"},{"rt":3265,"url":"\/tickets\/utils\/start.html","trial_type":"html","trial_index":4,"time_elapsed":45365,"internal_node_id":"0.0-4.0"},{"trial_type":"number-animation","trial_index":5,"time_elapsed":69196,"internal_node_id":"0.0-5.0"},{"phase":0,"sequence":0,"avg":182,"response":150,"trial_type":"training_avg","trial_index":6,"time_elapsed":75108,"internal_node_id":"0.0-6.0"},{"trial_type":"number-animation","trial_index":7,"time_elapsed":87915,"internal_node_id":"0.0-7.0"},{"phase":0,"sequence":1,"avg":188,"response":180,"trial_type":"training_avg","trial_index":8,"time_elapsed":94627,"internal_node_id":"0.0-8.0"},{"trial_type":"number-animation","trial_index":9,"time_elapsed":106819,"internal_node_id":"0.0-9.0"},{"phase":0,"sequence":2,"avg":176,"response":165,"trial_type":"training_avg","trial_index":10,"time_elapsed":113202,"internal_node_id":"0.0-10.0"},{"trial_type":"number-animation","trial_index":11,"time_elapsed":124065,"internal_node_id":"0.0-11.0"},{"phase":0,"sequence":3,"avg":180,"response":189,"trial_type":"training_avg","trial_index":12,"time_elapsed":130777,"internal_node_id":"0.0-12.0"},{"trial_type":"number-animation","trial_index":13,"time_elapsed":141808,"internal_node_id":"0.0-13.0"},{"phase":0,"sequence":4,"avg":174,"response":175,"trial_type":"training_avg","trial_index":14,"time_elapsed":147296,"internal_node_id":"0.0-14.0"},{"responses":[{"value":0,"offby":-1,"category":"$90 - $120","category_index":0},{"value":2,"offby":-1,"category":"$121 - $145","category_index":1},{"value":4,"offby":1,"category":"$146 - $170","category_index":2},{"value":8,"offby":2,"category":"$171 - $195","category_index":3},{"value":4,"offby":0,"category":"$196 - $220","category_index":4},{"value":2,"offby":0,"category":"$221 - $245","category_index":5},{"value":0,"offby":-1,"category":"$246 - $270","category_index":6}],"phase":0,"number":0,"trial_type":"bar-choose","trial_index":15,"time_elapsed":182560,"internal_node_id":"0.0-15.0"},{"rt":250977,"url":"\/tickets\/\/utils\/testing.html","trial_type":"html","trial_index":16,"time_elapsed":434669,"internal_node_id":"0.0-16.0"},{"phase":0,"order":[36,14,47,23,38,2,13,4,12,49,22,32,31,0,19,1,6,39,34,42,40,9,17,8,48,24,25,20,10,35,43,5,18,11,21,7,44,41,33,29,37,28,16,15,30,45,27,26,46,3],"trial_type":"store_order","trial_index":17,"time_elapsed":435670,"internal_node_id":"0.0-17.0"},{"result":126,"points":3,"place":0,"phase":0,"sequence":-1,"prices":[184,180,224,165,181,199,185,193,218,126],"times":[3006,1485,800,1310,688,601,605,638,534,824],"next_num":10,"trial_type":"ticket-choose","trial_index":18,"time_elapsed":450325,"internal_node_id":"0.0-18.0"},{"rt":3498,"url":"\/tickets\/utils\/testing_after.html","trial_type":"html","trial_index":19,"time_elapsed":454949,"internal_node_id":"0.0-19.0"},{"result":136,"points":2,"place":1,"phase":0,"sequence":0,"prices":[169,192,174,246,180,195,136,152,238,126],"times":[1929,742,805,672,942,846,1135],"next_num":7,"trial_type":"ticket-choose","trial_index":20,"time_elapsed":478411,"internal_node_id":"0.0-20.0"},{"result":136,"points":2,"place":1,"phase":0,"sequence":1,"prices":[173,194,136,239,182,200,174,150,236,127],"times":[1511,558,990],"next_num":3,"trial_type":"ticket-choose","trial_index":21,"time_elapsed":483811,"internal_node_id":"0.0-21.0"},{"result":189,"points":1,"place":4,"phase":0,"sequence":2,"prices":[157,213,159,187,194,242,161,222,225,189],"times":[1089,607,617,549,543,567,744,567,551,589],"next_num":10,"trial_type":"ticket-choose","trial_index":22,"time_elapsed":494411,"internal_node_id":"0.0-22.0"},{"result":154,"points":2,"place":1,"phase":0,"sequence":3,"prices":[168,192,176,242,183,197,154,156,237,132],"times":[706,550,551,519,615,574,910],"next_num":7,"trial_type":"ticket-choose","trial_index":23,"time_elapsed":502107,"internal_node_id":"0.0-23.0"},{"result":143,"points":3,"place":0,"phase":0,"sequence":4,"prices":[143,206,153,194,201,267,168,208,210,196],"times":[2080],"next_num":1,"trial_type":"ticket-choose","trial_index":24,"time_elapsed":506410,"internal_node_id":"0.0-24.0"},{"result":156,"points":1,"place":2,"phase":0,"sequence":5,"prices":[156,218,212,216,191,210,275,146,174,152],"times":[960],"next_num":1,"trial_type":"ticket-choose","trial_index":25,"time_elapsed":509378,"internal_node_id":"0.0-25.0"},{"result":152,"points":1,"place":2,"phase":0,"sequence":6,"prices":[172,190,136,270,179,192,174,152,237,129],"times":[1577,495,494,724,584,559,583,879],"next_num":8,"trial_type":"ticket-choose","trial_index":26,"time_elapsed":518731,"internal_node_id":"0.0-26.0"},{"result":146,"points":2,"place":1,"phase":0,"sequence":7,"prices":[169,193,146,237,180,196,172,150,129,236],"times":[751,591,808],"next_num":3,"trial_type":"ticket-choose","trial_index":27,"time_elapsed":523074,"internal_node_id":"0.0-27.0"},{"result":119,"points":3,"place":0,"phase":0,"sequence":8,"prices":[198,119,169,141,195,233,136,208,177,217],"times":[4537,864],"next_num":2,"trial_type":"ticket-choose","trial_index":28,"time_elapsed":530433,"internal_node_id":"0.0-28.0"},{"result":136,"points":2,"place":1,"phase":0,"sequence":9,"prices":[172,194,174,243,182,193,136,150,237,126],"times":[1327,527,774,592,576,526,840],"next_num":7,"trial_type":"ticket-choose","trial_index":29,"time_elapsed":538665,"internal_node_id":"0.0-29.0"},{"result":131,"points":2,"place":1,"phase":0,"sequence":10,"prices":[221,234,131,136,132,149,154,90,176,173],"times":[833,582,831],"next_num":3,"trial_type":"ticket-choose","trial_index":30,"time_elapsed":543065,"internal_node_id":"0.0-30.0"},{"result":154,"points":2,"place":1,"phase":0,"sequence":11,"prices":[168,192,154,237,182,196,176,156,235,133],"times":[728,558,758],"next_num":3,"trial_type":"ticket-choose","trial_index":31,"time_elapsed":547393,"internal_node_id":"0.0-31.0"},{"result":136,"points":2,"place":1,"phase":0,"sequence":12,"prices":[170,192,174,242,181,196,136,153,236,128],"times":[760,558,575,501,536,576,855],"next_num":7,"trial_type":"ticket-choose","trial_index":32,"time_elapsed":554896,"internal_node_id":"0.0-32.0"},{"result":146,"points":1,"place":2,"phase":0,"sequence":13,"prices":[186,146,191,179,152,116,140,201,172,187],"times":[680,775],"next_num":2,"trial_type":"ticket-choose","trial_index":33,"time_elapsed":558224,"internal_node_id":"0.0-33.0"},{"result":154,"points":2,"place":1,"phase":0,"sequence":14,"prices":[170,190,176,251,183,192,154,157,236,131],"times":[592,561,583,534,558,543,1119],"next_num":7,"trial_type":"ticket-choose","trial_index":34,"time_elapsed":565824,"internal_node_id":"0.0-34.0"},{"result":129,"points":2,"place":1,"phase":0,"sequence":15,"prices":[155,129,164,189,210,108,187,241,174,275],"times":[2192,783],"next_num":2,"trial_type":"ticket-choose","trial_index":35,"time_elapsed":570800,"internal_node_id":"0.0-35.0"},{"result":121,"points":3,"place":0,"phase":0,"sequence":16,"prices":[121,191,128,141,166,217,129,196,202,157],"times":[745],"next_num":1,"trial_type":"ticket-choose","trial_index":36,"time_elapsed":573464,"internal_node_id":"0.0-36.0"},{"result":124,"points":3,"place":0,"phase":0,"sequence":17,"prices":[124,220,136,165,185,234,143,225,228,179],"times":[1064],"next_num":1,"trial_type":"ticket-choose","trial_index":37,"time_elapsed":576281,"internal_node_id":"0.0-37.0"},{"result":130,"points":2,"place":1,"phase":0,"sequence":18,"prices":[181,130,116,142,157,193,165,218,173,207],"times":[972,784],"next_num":2,"trial_type":"ticket-choose","trial_index":38,"time_elapsed":579968,"internal_node_id":"0.0-38.0"},{"result":158,"points":1,"place":2,"phase":0,"sequence":19,"prices":[169,194,154,271,178,201,176,158,236,127],"times":[759,609,1206,526,552,534,568,1054],"next_num":8,"trial_type":"ticket-choose","trial_index":39,"time_elapsed":589031,"internal_node_id":"0.0-39.0"},{"result":142,"points":3,"place":0,"phase":0,"sequence":20,"prices":[142,207,171,182,190,269,180,218,256,188],"times":[1056],"next_num":1,"trial_type":"ticket-choose","trial_index":40,"time_elapsed":591999,"internal_node_id":"0.0-40.0"},{"result":154,"points":2,"place":1,"phase":0,"sequence":21,"prices":[244,203,196,189,154,206,197,149,171,159],"times":[687,527,630,583,992],"next_num":5,"trial_type":"ticket-choose","trial_index":41,"time_elapsed":598215,"internal_node_id":"0.0-41.0"},{"result":146,"points":2,"place":1,"phase":0,"sequence":22,"prices":[172,191,176,272,179,194,146,152,126,235],"times":[1169,528,783,511,527,559,784],"next_num":7,"trial_type":"ticket-choose","trial_index":42,"time_elapsed":606255,"internal_node_id":"0.0-42.0"},{"result":146,"points":2,"place":1,"phase":0,"sequence":23,"prices":[173,191,146,242,178,194,172,152,126,235],"times":[744,471,832],"next_num":3,"trial_type":"ticket-choose","trial_index":43,"time_elapsed":610552,"internal_node_id":"0.0-43.0"},{"result":154,"points":2,"place":1,"phase":0,"sequence":24,"prices":[170,193,176,245,178,194,154,159,236,126],"times":[3002,526,510,535,528,520,816],"next_num":7,"trial_type":"ticket-choose","trial_index":44,"time_elapsed":620391,"internal_node_id":"0.0-44.0"},{"result":136,"points":3,"place":0,"phase":0,"sequence":25,"prices":[240,188,273,207,250,136,217,170,171,236],"times":[673,535,535,575,551,863],"next_num":6,"trial_type":"ticket-choose","trial_index":45,"time_elapsed":627007,"internal_node_id":"0.0-45.0"},{"result":136,"points":2,"place":1,"phase":0,"sequence":26,"prices":[171,192,136,243,182,195,174,154,236,128],"times":[647,488,783],"next_num":3,"trial_type":"ticket-choose","trial_index":46,"time_elapsed":631271,"internal_node_id":"0.0-46.0"},{"result":154,"points":2,"place":1,"phase":0,"sequence":27,"prices":[169,192,176,244,178,194,154,159,237,125],"times":[641,535,527,511,511,519,815],"next_num":7,"trial_type":"ticket-choose","trial_index":47,"time_elapsed":638486,"internal_node_id":"0.0-47.0"},{"result":136,"points":2,"place":1,"phase":0,"sequence":28,"prices":[173,191,174,270,180,193,136,153,239,129],"times":[1488,503,542,487,520,535,832],"next_num":7,"trial_type":"ticket-choose","trial_index":48,"time_elapsed":646431,"internal_node_id":"0.0-48.0"},{"result":117,"points":3,"place":0,"phase":0,"sequence":29,"prices":[117,161,120,147,153,259,144,191,195,149],"times":[855],"next_num":1,"trial_type":"ticket-choose","trial_index":49,"time_elapsed":649167,"internal_node_id":"0.0-49.0"},{"result":146,"points":2,"place":1,"phase":0,"sequence":30,"prices":[171,195,172,242,179,196,146,150,128,235],"times":[631,504,543,576,520,527,808],"next_num":7,"trial_type":"ticket-choose","trial_index":50,"time_elapsed":656398,"internal_node_id":"0.0-50.0"},{"result":146,"points":2,"place":1,"phase":0,"sequence":31,"prices":[170,193,146,268,178,195,172,149,126,241],"times":[1296,502,856],"next_num":3,"trial_type":"ticket-choose","trial_index":51,"time_elapsed":661223,"internal_node_id":"0.0-51.0"},{"result":155,"points":1,"place":2,"phase":0,"sequence":32,"prices":[169,191,154,268,183,197,176,155,236,133],"times":[647,518,928,462,510,504,519,1902],"next_num":8,"trial_type":"ticket-choose","trial_index":52,"time_elapsed":670654,"internal_node_id":"0.0-52.0"},{"result":149,"points":2,"place":1,"phase":0,"sequence":33,"prices":[196,221,149,164,216,167,175,128,176,181],"times":[1196,511,951],"next_num":3,"trial_type":"ticket-choose","trial_index":53,"time_elapsed":675645,"internal_node_id":"0.0-53.0"},{"result":146,"points":2,"place":1,"phase":0,"sequence":34,"prices":[168,191,146,252,183,193,172,153,126,238],"times":[589,535,744],"next_num":3,"trial_type":"ticket-choose","trial_index":54,"time_elapsed":679957,"internal_node_id":"0.0-54.0"},{"result":124,"points":3,"place":0,"phase":0,"sequence":35,"prices":[219,183,227,124,176,161,140,129,171,201],"times":[600,551,455,823],"next_num":4,"trial_type":"ticket-choose","trial_index":55,"time_elapsed":684893,"internal_node_id":"0.0-55.0"},{"result":138,"points":1,"place":2,"phase":0,"sequence":36,"prices":[181,138,118,170,190,101,146,169,175,233],"times":[641,759],"next_num":2,"trial_type":"ticket-choose","trial_index":56,"time_elapsed":688292,"internal_node_id":"0.0-56.0"},{"result":192,"points":1,"place":4,"phase":0,"sequence":37,"prices":[157,205,161,175,197,254,165,210,214,192],"times":[672,471,510,519,479,494,678,567,592,574],"next_num":10,"trial_type":"ticket-choose","trial_index":57,"time_elapsed":697612,"internal_node_id":"0.0-57.0"},{"result":136,"points":2,"place":1,"phase":0,"sequence":38,"prices":[171,192,136,265,180,194,174,152,239,127],"times":[1016,543,799],"next_num":3,"trial_type":"ticket-choose","trial_index":58,"time_elapsed":702268,"internal_node_id":"0.0-58.0"},{"result":146,"points":2,"place":1,"phase":0,"sequence":39,"prices":[171,191,172,268,179,194,146,150,127,239],"times":[576,502,504,463,512,576,863],"next_num":7,"trial_type":"ticket-choose","trial_index":59,"time_elapsed":709405,"internal_node_id":"0.0-59.0"},{"result":145,"points":2,"place":1,"phase":0,"sequence":40,"prices":[216,206,158,145,224,185,124,149,175,162],"times":[615,464,511,815],"next_num":4,"trial_type":"ticket-choose","trial_index":60,"time_elapsed":714467,"internal_node_id":"0.0-60.0"},{"result":162,"points":1,"place":3,"phase":0,"sequence":41,"prices":[197,153,181,215,150,155,164,247,177,162],"times":[601,2463,464,473,486,773,535,552,550,494],"next_num":10,"trial_type":"ticket-choose","trial_index":61,"time_elapsed":725739,"internal_node_id":"0.0-61.0"},{"result":137,"points":3,"place":0,"phase":0,"sequence":42,"prices":[137,187,152,156,166,231,155,194,202,160],"times":[816],"next_num":1,"trial_type":"ticket-choose","trial_index":62,"time_elapsed":728523,"internal_node_id":"0.0-62.0"},{"result":146,"points":2,"place":1,"phase":0,"sequence":43,"prices":[168,191,172,240,183,193,146,151,125,238],"times":[618,494,504,519,543,552,766],"next_num":7,"trial_type":"ticket-choose","trial_index":63,"time_elapsed":735627,"internal_node_id":"0.0-63.0"},{"result":132,"points":3,"place":0,"phase":0,"sequence":44,"prices":[132,222,144,153,190,248,151,224,228,179],"times":[655],"next_num":1,"trial_type":"ticket-choose","trial_index":64,"time_elapsed":737995,"internal_node_id":"0.0-64.0"},{"result":135,"points":3,"place":0,"phase":0,"sequence":45,"prices":[221,193,135,188,217,179,196,190,175,159],"times":[642,526,768],"next_num":3,"trial_type":"ticket-choose","trial_index":65,"time_elapsed":742195,"internal_node_id":"0.0-65.0"},{"result":114,"points":3,"place":0,"phase":0,"sequence":46,"prices":[182,249,159,114,184,205,175,189,172,178],"times":[693,511,655,783],"next_num":4,"trial_type":"ticket-choose","trial_index":66,"time_elapsed":747370,"internal_node_id":"0.0-66.0"},{"result":135,"points":3,"place":0,"phase":0,"sequence":47,"prices":[135,202,150,169,183,225,160,211,220,172],"times":[817],"next_num":1,"trial_type":"ticket-choose","trial_index":67,"time_elapsed":749938,"internal_node_id":"0.0-67.0"},{"result":158,"points":1,"place":2,"phase":0,"sequence":48,"prices":[169,193,154,255,178,194,176,158,239,126],"times":[617,551,878,487,520,496,583,927],"next_num":8,"trial_type":"ticket-choose","trial_index":68,"time_elapsed":758434,"internal_node_id":"0.0-68.0"},{"result":105,"points":3,"place":0,"phase":0,"sequence":49,"prices":[263,165,224,214,105,230,215,185,177,193],"times":[679,535,519,486,863],"next_num":5,"trial_type":"ticket-choose","trial_index":69,"time_elapsed":764146,"internal_node_id":"0.0-69.0"},{"responses":[{"value":0,"offby":-1,"category":"$90 - $120","category_index":0},{"value":2,"offby":-1,"category":"$121 - $145","category_index":1},{"value":3,"offby":0,"category":"$146 - $170","category_index":2},{"value":7,"offby":1,"category":"$171 - $195","category_index":3},{"value":5,"offby":1,"category":"$196 - $220","category_index":4},{"value":3,"offby":1,"category":"$221 - $245","category_index":5},{"value":0,"offby":-1,"category":"$246 - $270","category_index":6}],"phase":0,"number":1,"trial_type":"bar-choose","trial_index":70,"time_elapsed":798506,"internal_node_id":"0.0-70.0"},{"rt":15831,"url":"\/tickets\/utils\/start2.html","trial_type":"html","trial_index":71,"time_elapsed":815440,"internal_node_id":"0.0-71.0"},{"trial_type":"number-animation","trial_index":72,"time_elapsed":824360,"internal_node_id":"0.0-72.0"},{"phase":1,"sequence":0,"avg":181,"response":175,"trial_type":"training_avg","trial_index":73,"time_elapsed":830088,"internal_node_id":"0.0-73.0"},{"trial_type":"number-animation","trial_index":74,"time_elapsed":837392,"internal_node_id":"0.0-74.0"},{"phase":1,"sequence":1,"avg":188,"response":185,"trial_type":"training_avg","trial_index":75,"time_elapsed":842936,"internal_node_id":"0.0-75.0"},{"trial_type":"number-animation","trial_index":76,"time_elapsed":854983,"internal_node_id":"0.0-76.0"},{"phase":1,"sequence":2,"avg":188,"response":186,"trial_type":"training_avg","trial_index":77,"time_elapsed":860183,"internal_node_id":"0.0-77.0"},{"trial_type":"number-animation","trial_index":78,"time_elapsed":867229,"internal_node_id":"0.0-78.0"},{"phase":1,"sequence":3,"avg":177,"response":172,"trial_type":"training_avg","trial_index":79,"time_elapsed":871326,"internal_node_id":"0.0-79.0"},{"trial_type":"number-animation","trial_index":80,"time_elapsed":878221,"internal_node_id":"0.0-80.0"},{"phase":1,"sequence":4,"avg":182,"response":183,"trial_type":"training_avg","trial_index":81,"time_elapsed":882870,"internal_node_id":"0.0-81.0"},{"responses":[{"value":0,"offby":0,"category":"$106 - $134","category_index":0},{"value":1,"offby":0,"category":"$135 - $150","category_index":1},{"value":3,"offby":0,"category":"$151 - $165","category_index":2},{"value":4,"offby":-2,"category":"$166 - $180","category_index":3},{"value":5,"offby":-1,"category":"$181 - $195","category_index":4},{"value":4,"offby":1,"category":"$196 - $210","category_index":5},{"value":3,"offby":2,"category":"$211 - $225","category_index":6}],"phase":1,"number":0,"trial_type":"bar-choose","trial_index":82,"time_elapsed":907997,"internal_node_id":"0.0-82.0"},{"rt":7187,"url":"\/tickets\/utils\/testing2.html","trial_type":"html","trial_index":83,"time_elapsed":916292,"internal_node_id":"0.0-83.0"},{"phase":1,"order":[20,18,28,12,32,38,19,1,40,22,41,8,21,49,13,35,29,26,34,11,24,45,4,0,15,46,17,14,23,31,5,3,9,36,2,47,44,27,16,7,37,39,33,6,25,43,48,30,10,42],"trial_type":"store_order","trial_index":84,"time_elapsed":917294,"internal_node_id":"0.0-84.0"},{"result":165,"points":2,"place":1,"phase":1,"sequence":0,"prices":[188,200,165,172,198,174,177,154,177,180],"times":[1711,837,1583],"next_num":3,"trial_type":"ticket-choose","trial_index":85,"time_elapsed":923844,"internal_node_id":"0.0-85.0"},{"result":167,"points":2,"place":1,"phase":1,"sequence":1,"prices":[175,186,178,212,179,187,167,169,209,153],"times":[1014,542,758,553,599,590,887],"next_num":7,"trial_type":"ticket-choose","trial_index":86,"time_elapsed":931892,"internal_node_id":"0.0-86.0"},{"result":152,"points":3,"place":0,"phase":1,"sequence":2,"prices":[200,181,203,152,175,171,160,154,176,191],"times":[871,559,519,879],"next_num":4,"trial_type":"ticket-choose","trial_index":87,"time_elapsed":937164,"internal_node_id":"0.0-87.0"},{"result":158,"points":2,"place":1,"phase":1,"sequence":3,"prices":[176,185,177,218,180,186,158,166,209,154],"times":[984,1543,663,583,608,646,799],"next_num":7,"trial_type":"ticket-choose","trial_index":88,"time_elapsed":945988,"internal_node_id":"0.0-88.0"},{"result":168,"points":1,"place":2,"phase":1,"sequence":4,"prices":[168,199,196,198,185,195,227,163,177,166],"times":[2614],"next_num":1,"trial_type":"ticket-choose","trial_index":89,"time_elapsed":950419,"internal_node_id":"0.0-89.0"},{"result":166,"points":1,"place":2,"phase":1,"sequence":5,"prices":[174,186,163,212,181,187,176,166,153,209],"times":[680,567,1008,544,535,551,567,1200],"next_num":8,"trial_type":"ticket-choose","trial_index":90,"time_elapsed":959403,"internal_node_id":"0.0-90.0"},{"result":167,"points":2,"place":1,"phase":1,"sequence":6,"prices":[175,185,178,215,181,186,167,168,208,156],"times":[839,488,574,543,542,568,871],"next_num":7,"trial_type":"ticket-choose","trial_index":91,"time_elapsed":966930,"internal_node_id":"0.0-91.0"},{"result":163,"points":2,"place":1,"phase":1,"sequence":7,"prices":[176,186,176,210,179,187,163,166,153,208],"times":[696,541,542,526,527,510,878],"next_num":7,"trial_type":"ticket-choose","trial_index":92,"time_elapsed":974194,"internal_node_id":"0.0-92.0"},{"result":156,"points":3,"place":0,"phase":1,"sequence":8,"prices":[174,186,178,217,181,188,167,168,208,156],"times":[799,599,583,1072,2279,575,736,583,558,584],"next_num":10,"trial_type":"ticket-choose","trial_index":93,"time_elapsed":986211,"internal_node_id":"0.0-93.0"},{"result":163,"points":1,"place":2,"phase":1,"sequence":9,"prices":[183,163,185,180,166,148,160,186,176,184],"times":[622,1309],"next_num":2,"trial_type":"ticket-choose","trial_index":94,"time_elapsed":990202,"internal_node_id":"0.0-94.0"},{"result":158,"points":2,"place":1,"phase":1,"sequence":10,"prices":[176,187,177,225,181,187,158,165,208,153],"times":[3782,3928,543,606,807,552,825],"next_num":7,"trial_type":"ticket-choose","trial_index":95,"time_elapsed":1004786,"internal_node_id":"0.0-95.0"},{"result":161,"points":3,"place":0,"phase":1,"sequence":11,"prices":[161,193,167,187,190,224,174,194,195,188],"times":[1128],"next_num":1,"trial_type":"ticket-choose","trial_index":96,"time_elapsed":1007715,"internal_node_id":"0.0-96.0"},{"result":148,"points":3,"place":0,"phase":1,"sequence":12,"prices":[148,171,150,163,167,220,162,186,187,165],"times":[879],"next_num":1,"trial_type":"ticket-choose","trial_index":97,"time_elapsed":1010345,"internal_node_id":"0.0-97.0"},{"result":163,"points":2,"place":1,"phase":1,"sequence":13,"prices":[176,186,163,214,179,187,176,166,153,208],"times":[1451,495,1255],"next_num":3,"trial_type":"ticket-choose","trial_index":98,"time_elapsed":1016193,"internal_node_id":"0.0-98.0"},{"result":158,"points":2,"place":1,"phase":1,"sequence":14,"prices":[176,185,158,217,180,186,177,166,209,154],"times":[625,446,791],"next_num":3,"trial_type":"ticket-choose","trial_index":99,"time_elapsed":1020138,"internal_node_id":"0.0-99.0"},{"result":165,"points":1,"place":2,"phase":1,"sequence":15,"prices":[175,187,163,209,180,188,176,165,154,208],"times":[4218,519,1126,478,502,471,561,757],"next_num":8,"trial_type":"ticket-choose","trial_index":100,"time_elapsed":1032064,"internal_node_id":"0.0-100.0"},{"result":163,"points":2,"place":1,"phase":1,"sequence":16,"prices":[174,186,176,217,181,187,163,166,153,209],"times":[696,479,504,511,512,576,751],"next_num":7,"trial_type":"ticket-choose","trial_index":101,"time_elapsed":1039031,"internal_node_id":"0.0-101.0"},{"result":165,"points":3,"place":0,"phase":1,"sequence":17,"prices":[189,167,180,197,165,168,172,213,178,171],"times":[647,720,463,551,983],"next_num":5,"trial_type":"ticket-choose","trial_index":102,"time_elapsed":1045119,"internal_node_id":"0.0-102.0"},{"result":155,"points":2,"place":1,"phase":1,"sequence":18,"prices":[181,155,148,161,168,187,172,199,176,194],"times":[647,809],"next_num":2,"trial_type":"ticket-choose","trial_index":103,"time_elapsed":1048478,"internal_node_id":"0.0-103.0"},{"result":143,"points":3,"place":0,"phase":1,"sequence":19,"prices":[222,173,202,197,143,205,198,183,178,186],"times":[785,526,503,551,880],"next_num":5,"trial_type":"ticket-choose","trial_index":104,"time_elapsed":1054238,"internal_node_id":"0.0-104.0"},{"result":150,"points":3,"place":0,"phase":1,"sequence":20,"prices":[189,150,175,160,188,207,158,194,178,199],"times":[623,928],"next_num":2,"trial_type":"ticket-choose","trial_index":105,"time_elapsed":1057662,"internal_node_id":"0.0-105.0"},{"result":156,"points":3,"place":0,"phase":1,"sequence":21,"prices":[175,185,167,224,181,186,178,168,208,156],"times":[1025,584,1046,479,495,533,527,3008,518,657],"next_num":10,"trial_type":"ticket-choose","trial_index":106,"time_elapsed":1070214,"internal_node_id":"0.0-106.0"},{"result":158,"points":2,"place":1,"phase":1,"sequence":22,"prices":[175,186,158,209,181,188,177,167,208,154],"times":[1054,542,1174],"next_num":3,"trial_type":"ticket-choose","trial_index":107,"time_elapsed":1075230,"internal_node_id":"0.0-107.0"},{"result":156,"points":3,"place":0,"phase":1,"sequence":23,"prices":[174,186,167,211,181,188,178,168,208,156],"times":[655,551,478,512,496,485,543,1248,510,646],"next_num":10,"trial_type":"ticket-choose","trial_index":108,"time_elapsed":1085045,"internal_node_id":"0.0-108.0"},{"result":147,"points":3,"place":0,"phase":1,"sequence":24,"prices":[181,215,169,147,182,193,177,184,176,179],"times":[628,536,542,936],"next_num":4,"trial_type":"ticket-choose","trial_index":109,"time_elapsed":1090125,"internal_node_id":"0.0-109.0"},{"result":184,"points":1,"place":4,"phase":1,"sequence":25,"prices":[161,193,175,181,185,224,180,199,218,184],"times":[791,495,456,486,543,559,567,624,529,605],"next_num":10,"trial_type":"ticket-choose","trial_index":110,"time_elapsed":1099518,"internal_node_id":"0.0-110.0"},{"result":156,"points":3,"place":0,"phase":1,"sequence":26,"prices":[156,201,162,166,185,214,165,202,204,179],"times":[728],"next_num":1,"trial_type":"ticket-choose","trial_index":111,"time_elapsed":1101967,"internal_node_id":"0.0-111.0"},{"result":158,"points":2,"place":1,"phase":1,"sequence":27,"prices":[175,186,177,221,180,187,158,166,209,153],"times":[566,502,535,597,544,511,902],"next_num":7,"trial_type":"ticket-choose","trial_index":112,"time_elapsed":1109141,"internal_node_id":"0.0-112.0"},{"result":167,"points":2,"place":1,"phase":1,"sequence":28,"prices":[175,186,167,225,179,187,178,169,209,153],"times":[784,534,1375],"next_num":3,"trial_type":"ticket-choose","trial_index":113,"time_elapsed":1114229,"internal_node_id":"0.0-113.0"},{"result":168,"points":1,"place":2,"phase":1,"sequence":29,"prices":[168,154,172,185,195,144,184,211,177,227],"times":[1322],"next_num":1,"trial_type":"ticket-choose","trial_index":114,"time_elapsed":1117221,"internal_node_id":"0.0-114.0"},{"result":157,"points":3,"place":0,"phase":1,"sequence":30,"prices":[201,187,157,184,198,179,188,185,178,170],"times":[714,575,974],"next_num":3,"trial_type":"ticket-choose","trial_index":115,"time_elapsed":1121605,"internal_node_id":"0.0-115.0"},{"result":163,"points":2,"place":1,"phase":1,"sequence":31,"prices":[175,187,176,209,180,188,163,165,154,208],"times":[640,542,639,536,527,526,920],"next_num":7,"trial_type":"ticket-choose","trial_index":116,"time_elapsed":1128997,"internal_node_id":"0.0-116.0"},{"result":158,"points":2,"place":1,"phase":1,"sequence":32,"prices":[176,187,158,210,181,187,177,165,208,153],"times":[670,559,855],"next_num":3,"trial_type":"ticket-choose","trial_index":117,"time_elapsed":1133396,"internal_node_id":"0.0-117.0"},{"result":167,"points":2,"place":1,"phase":1,"sequence":33,"prices":[175,187,167,212,179,187,178,169,208,153],"times":[760,553,3493],"next_num":3,"trial_type":"ticket-choose","trial_index":118,"time_elapsed":1140604,"internal_node_id":"0.0-118.0"},{"result":158,"points":2,"place":1,"phase":1,"sequence":34,"prices":[175,186,177,209,181,188,158,167,208,154],"times":[705,537,510,518,535,575,760],"next_num":7,"trial_type":"ticket-choose","trial_index":119,"time_elapsed":1147798,"internal_node_id":"0.0-119.0"},{"result":163,"points":2,"place":1,"phase":1,"sequence":35,"prices":[175,186,176,224,179,187,163,165,153,210],"times":[734,542,622,623,510,551,782],"next_num":7,"trial_type":"ticket-choose","trial_index":120,"time_elapsed":1155212,"internal_node_id":"0.0-120.0"},{"result":159,"points":1,"place":2,"phase":1,"sequence":36,"prices":[180,159,149,175,185,141,163,174,178,207],"times":[622,950],"next_num":2,"trial_type":"ticket-choose","trial_index":121,"time_elapsed":1158732,"internal_node_id":"0.0-121.0"},{"result":155,"points":2,"place":1,"phase":1,"sequence":37,"prices":[201,207,155,158,156,165,167,135,178,177],"times":[640,526,775],"next_num":3,"trial_type":"ticket-choose","trial_index":122,"time_elapsed":1162819,"internal_node_id":"0.0-122.0"},{"result":159,"points":3,"place":0,"phase":1,"sequence":38,"prices":[159,183,166,168,173,205,167,187,191,170],"times":[751],"next_num":1,"trial_type":"ticket-choose","trial_index":123,"time_elapsed":1165283,"internal_node_id":"0.0-123.0"},{"result":150,"points":3,"place":0,"phase":1,"sequence":39,"prices":[150,185,154,161,173,199,155,188,191,168],"times":[735],"next_num":1,"trial_type":"ticket-choose","trial_index":124,"time_elapsed":1167715,"internal_node_id":"0.0-124.0"},{"result":163,"points":2,"place":1,"phase":1,"sequence":40,"prices":[198,193,169,163,202,182,152,164,177,171],"times":[636,573,887,887],"next_num":4,"trial_type":"ticket-choose","trial_index":125,"time_elapsed":1173092,"internal_node_id":"0.0-125.0"},{"result":185,"points":1,"place":4,"phase":1,"sequence":41,"prices":[169,196,170,184,187,211,171,201,202,185],"times":[694,576,503,527,576,526,503,503,496,711],"next_num":10,"trial_type":"ticket-choose","trial_index":126,"time_elapsed":1182331,"internal_node_id":"0.0-126.0"},{"result":158,"points":2,"place":1,"phase":1,"sequence":42,"prices":[175,186,158,211,180,187,177,166,209,153],"times":[680,525,799],"next_num":3,"trial_type":"ticket-choose","trial_index":127,"time_elapsed":1186466,"internal_node_id":"0.0-127.0"},{"result":167,"points":2,"place":1,"phase":1,"sequence":43,"prices":[175,187,178,209,179,187,167,169,208,153],"times":[615,559,550,583,535,542,910],"next_num":7,"trial_type":"ticket-choose","trial_index":128,"time_elapsed":1193842,"internal_node_id":"0.0-128.0"},{"result":157,"points":3,"place":0,"phase":1,"sequence":44,"prices":[157,191,165,175,182,203,170,195,200,176],"times":[807],"next_num":1,"trial_type":"ticket-choose","trial_index":129,"time_elapsed":1196474,"internal_node_id":"0.0-129.0"},{"result":167,"points":2,"place":1,"phase":1,"sequence":45,"prices":[212,192,188,184,167,193,189,164,176,170],"times":[600,535,527,535,737],"next_num":5,"trial_type":"ticket-choose","trial_index":130,"time_elapsed":1201970,"internal_node_id":"0.0-130.0"},{"result":168,"points":3,"place":0,"phase":1,"sequence":46,"prices":[168,192,171,178,188,217,172,195,197,186],"times":[1015],"next_num":1,"trial_type":"ticket-choose","trial_index":131,"time_elapsed":1204762,"internal_node_id":"0.0-131.0"},{"result":152,"points":3,"place":0,"phase":1,"sequence":47,"prices":[152,200,158,173,182,207,161,202,204,180],"times":[737],"next_num":1,"trial_type":"ticket-choose","trial_index":132,"time_elapsed":1207281,"internal_node_id":"0.0-132.0"},{"result":158,"points":3,"place":0,"phase":1,"sequence":48,"prices":[210,184,226,193,215,158,199,175,176,208],"times":[582,535,582,495,569,742],"next_num":6,"trial_type":"ticket-choose","trial_index":133,"time_elapsed":1213642,"internal_node_id":"0.0-133.0"},{"result":163,"points":2,"place":1,"phase":1,"sequence":49,"prices":[175,186,163,211,179,187,176,165,153,210],"times":[1160,502,783],"next_num":3,"trial_type":"ticket-choose","trial_index":134,"time_elapsed":1218504,"internal_node_id":"0.0-134.0"},{"responses":[{"value":1,"offby":1,"category":"$106 - $134","category_index":0},{"value":1,"offby":0,"category":"$135 - $150","category_index":1},{"value":2,"offby":-1,"category":"$151 - $165","category_index":2},{"value":4,"offby":-2,"category":"$166 - $180","category_index":3},{"value":5,"offby":-1,"category":"$181 - $195","category_index":4},{"value":4,"offby":1,"category":"$196 - $210","category_index":5},{"value":3,"offby":2,"category":"$211 - $225","category_index":6}],"phase":1,"number":1,"trial_type":"bar-choose","trial_index":135,"time_elapsed":1253017,"internal_node_id":"0.0-135.0"},{"special_comment":"Justthat the smallest one in each batch was usually in the 155-169 range","trial_type":"special_sequence","trial_index":136,"time_elapsed":1277160,"internal_node_id":"0.0-136.0"},{"during":"Nothing","bonus":284,"trial_type":"final","trial_index":137,"time_elapsed":1301119,"internal_node_id":"0.0-137.0"}],"bonus":284}