{"start_time":"2017-02-03 15:31:39","end_time":"2017-02-03 16:20:10","points_phase0":115,"points_phase1":110,"phase_order":0,"age":42,"gender":"f","tries":1,"during":"Nothing","worker_id":"A2AMQX0BQZXG9N","assignment_id":"3Q8GYXHFEQVCXHRPBMCNALEK5WCC55","data":[{"rt":38575,"url":"\/tickets\/utils\/consent.html","trial_type":"html","trial_index":0,"time_elapsed":38673,"internal_node_id":"0.0-0.0"},{"age":42,"gender":"f","trial_type":"age","trial_index":1,"time_elapsed":44641,"internal_node_id":"0.0-1.0"},{"worker_id":"A2AMQX0BQZXG9N","trial_type":"workerid","trial_index":2,"time_elapsed":55859,"internal_node_id":"0.0-2.0"},{"tries":1,"trial_type":"instructions_check","trial_index":3,"time_elapsed":110658,"internal_node_id":"0.0-3.0"},{"rt":66646,"url":"\/tickets\/utils\/start.html","trial_type":"html","trial_index":4,"time_elapsed":178411,"internal_node_id":"0.0-4.0"},{"trial_type":"number-animation","trial_index":5,"time_elapsed":284864,"internal_node_id":"0.0-5.0"},{"phase":0,"sequence":0,"avg":181,"response":180,"trial_type":"training_avg","trial_index":6,"time_elapsed":344800,"internal_node_id":"0.0-6.0"},{"trial_type":"number-animation","trial_index":7,"time_elapsed":436005,"internal_node_id":"0.0-7.0"},{"phase":0,"sequence":1,"avg":188,"response":188,"trial_type":"training_avg","trial_index":8,"time_elapsed":500587,"internal_node_id":"0.0-8.0"},{"trial_type":"number-animation","trial_index":9,"time_elapsed":585646,"internal_node_id":"0.0-9.0"},{"phase":0,"sequence":2,"avg":188,"response":188,"trial_type":"training_avg","trial_index":10,"time_elapsed":746461,"internal_node_id":"0.0-10.0"},{"trial_type":"number-animation","trial_index":11,"time_elapsed":857569,"internal_node_id":"0.0-11.0"},{"phase":0,"sequence":3,"avg":177,"response":177,"trial_type":"training_avg","trial_index":12,"time_elapsed":903580,"internal_node_id":"0.0-12.0"},{"trial_type":"number-animation","trial_index":13,"time_elapsed":983935,"internal_node_id":"0.0-13.0"},{"phase":0,"sequence":4,"avg":182,"response":182,"trial_type":"training_avg","trial_index":14,"time_elapsed":1037396,"internal_node_id":"0.0-14.0"},{"responses":[{"value":1,"offby":1,"category":"$106 - $134","category_index":0},{"value":1,"offby":0,"category":"$135 - $150","category_index":1},{"value":5,"offby":2,"category":"$151 - $165","category_index":2},{"value":9,"offby":3,"category":"$166 - $180","category_index":3},{"value":0,"offby":-6,"category":"$181 - $195","category_index":4},{"value":3,"offby":0,"category":"$196 - $210","category_index":5},{"value":1,"offby":0,"category":"$211 - $225","category_index":6}],"phase":0,"number":0,"trial_type":"bar-choose","trial_index":15,"time_elapsed":1166351,"internal_node_id":"0.0-15.0"},{"rt":36233,"url":"\/tickets\/\/utils\/testing.html","trial_type":"html","trial_index":16,"time_elapsed":1203683,"internal_node_id":"0.0-16.0"},{"phase":0,"order":[11,40,31,28,32,39,46,29,17,45,6,49,26,5,36,16,42,22,33,9,1,4,41,38,30,13,44,23,12,37,2,21,48,19,10,7,20,3,34,35,24,8,0,43,15,27,47,25,18,14],"trial_type":"store_order","trial_index":17,"time_elapsed":1204684,"internal_node_id":"0.0-17.0"},{"result":165,"points":2,"place":1,"phase":0,"sequence":-1,"times":[3256,2008,1298,19165],"next_num":4,"trial_type":"ticket-choose","trial_index":18,"time_elapsed":1234213,"internal_node_id":"0.0-18.0"},{"rt":43122,"url":"\/tickets\/utils\/testing_after.html","trial_type":"html","trial_index":19,"time_elapsed":1278440,"internal_node_id":"0.0-19.0"},{"result":167,"points":2,"place":1,"phase":0,"sequence":0,"times":[14347,2251,3189,2782,3049,2299,1869],"next_num":7,"trial_type":"ticket-choose","trial_index":20,"time_elapsed":1313966,"internal_node_id":"0.0-20.0"},{"result":150,"points":3,"place":0,"phase":0,"sequence":1,"times":[12262,4097],"next_num":2,"trial_type":"ticket-choose","trial_index":21,"time_elapsed":1335132,"internal_node_id":"0.0-21.0"},{"result":162,"points":1,"place":2,"phase":0,"sequence":2,"times":[2104],"next_num":1,"trial_type":"ticket-choose","trial_index":22,"time_elapsed":1340718,"internal_node_id":"0.0-22.0"},{"result":161,"points":3,"place":0,"phase":0,"sequence":3,"times":[1254],"next_num":1,"trial_type":"ticket-choose","trial_index":23,"time_elapsed":1345219,"internal_node_id":"0.0-23.0"},{"result":146,"points":3,"place":0,"phase":0,"sequence":4,"times":[2714,1259,1167],"next_num":3,"trial_type":"ticket-choose","trial_index":24,"time_elapsed":1353342,"internal_node_id":"0.0-24.0"},{"result":171,"points":1,"place":3,"phase":0,"sequence":5,"times":[5360,4836,1071,963,10961,1143,1097,1205,985,2025],"next_num":10,"trial_type":"ticket-choose","trial_index":25,"time_elapsed":1388530,"internal_node_id":"0.0-25.0"},{"result":158,"points":3,"place":0,"phase":0,"sequence":6,"times":[1558,869,651,743,680,1167],"next_num":6,"trial_type":"ticket-choose","trial_index":26,"time_elapsed":1397880,"internal_node_id":"0.0-26.0"},{"result":159,"points":3,"place":0,"phase":0,"sequence":7,"times":[3767],"next_num":1,"trial_type":"ticket-choose","trial_index":27,"time_elapsed":1404232,"internal_node_id":"0.0-27.0"},{"result":169,"points":1,"place":4,"phase":0,"sequence":8,"times":[4123],"next_num":1,"trial_type":"ticket-choose","trial_index":28,"time_elapsed":1412224,"internal_node_id":"0.0-28.0"},{"result":167,"points":2,"place":1,"phase":0,"sequence":9,"times":[4986,955,759,1121,1126],"next_num":5,"trial_type":"ticket-choose","trial_index":29,"time_elapsed":1424282,"internal_node_id":"0.0-29.0"},{"result":165,"points":2,"place":1,"phase":0,"sequence":10,"times":[1608,806,1055],"next_num":3,"trial_type":"ticket-choose","trial_index":30,"time_elapsed":1430408,"internal_node_id":"0.0-30.0"},{"result":163,"points":1,"place":2,"phase":0,"sequence":11,"times":[1437,1003],"next_num":2,"trial_type":"ticket-choose","trial_index":31,"time_elapsed":1435314,"internal_node_id":"0.0-31.0"},{"result":157,"points":3,"place":0,"phase":0,"sequence":12,"times":[1134],"next_num":1,"trial_type":"ticket-choose","trial_index":32,"time_elapsed":1438962,"internal_node_id":"0.0-32.0"},{"result":150,"points":2,"place":1,"phase":0,"sequence":13,"times":[1708,557,1012],"next_num":3,"trial_type":"ticket-choose","trial_index":33,"time_elapsed":1444752,"internal_node_id":"0.0-33.0"},{"result":165,"points":2,"place":1,"phase":0,"sequence":14,"times":[1465,766,1112],"next_num":3,"trial_type":"ticket-choose","trial_index":34,"time_elapsed":1464534,"internal_node_id":"0.0-34.0"},{"result":167,"points":1,"place":3,"phase":0,"sequence":15,"times":[5321,705,1409],"next_num":3,"trial_type":"ticket-choose","trial_index":35,"time_elapsed":1474800,"internal_node_id":"0.0-35.0"},{"result":143,"points":3,"place":0,"phase":0,"sequence":16,"times":[1145,651,805,634,987],"next_num":5,"trial_type":"ticket-choose","trial_index":36,"time_elapsed":1482339,"internal_node_id":"0.0-36.0"},{"result":152,"points":3,"place":0,"phase":0,"sequence":17,"times":[3178],"next_num":1,"trial_type":"ticket-choose","trial_index":37,"time_elapsed":1488152,"internal_node_id":"0.0-37.0"},{"result":155,"points":3,"place":0,"phase":0,"sequence":18,"times":[1945,876],"next_num":2,"trial_type":"ticket-choose","trial_index":38,"time_elapsed":1493666,"internal_node_id":"0.0-38.0"},{"result":167,"points":1,"place":2,"phase":0,"sequence":19,"times":[1253,839,2345,635,807,1149,2315],"next_num":7,"trial_type":"ticket-choose","trial_index":39,"time_elapsed":1506644,"internal_node_id":"0.0-39.0"},{"result":162,"points":2,"place":1,"phase":0,"sequence":20,"times":[1792,588,972],"next_num":3,"trial_type":"ticket-choose","trial_index":40,"time_elapsed":1512752,"internal_node_id":"0.0-40.0"},{"result":140,"points":3,"place":0,"phase":0,"sequence":21,"times":[985,573,556,681,620,605,969,877,847,1119],"next_num":10,"trial_type":"ticket-choose","trial_index":41,"time_elapsed":1524886,"internal_node_id":"0.0-41.0"},{"result":155,"points":2,"place":1,"phase":0,"sequence":22,"times":[1407,774,1432],"next_num":3,"trial_type":"ticket-choose","trial_index":42,"time_elapsed":1531089,"internal_node_id":"0.0-42.0"},{"result":163,"points":3,"place":0,"phase":0,"sequence":23,"times":[1929,580,595,611,619,642,759,1339],"next_num":8,"trial_type":"ticket-choose","trial_index":43,"time_elapsed":1541854,"internal_node_id":"0.0-43.0"},{"result":138,"points":3,"place":0,"phase":0,"sequence":24,"times":[1716,1314,627,681,589,1181],"next_num":6,"trial_type":"ticket-choose","trial_index":44,"time_elapsed":1551230,"internal_node_id":"0.0-44.0"},{"result":154,"points":2,"place":1,"phase":0,"sequence":25,"times":[1555,704,8303,642,611,611,1167],"next_num":7,"trial_type":"ticket-choose","trial_index":45,"time_elapsed":1568366,"internal_node_id":"0.0-45.0"},{"result":159,"points":1,"place":2,"phase":0,"sequence":26,"times":[1300,1987],"next_num":2,"trial_type":"ticket-choose","trial_index":46,"time_elapsed":1573961,"internal_node_id":"0.0-46.0"},{"result":186,"points":1,"place":4,"phase":0,"sequence":27,"times":[1884,596,571,606,718,606,649,572,595,1363],"next_num":10,"trial_type":"ticket-choose","trial_index":47,"time_elapsed":1586711,"internal_node_id":"0.0-47.0"},{"result":148,"points":3,"place":0,"phase":0,"sequence":28,"times":[4253,721,586,589,549,611,571,1073,940],"next_num":9,"trial_type":"ticket-choose","trial_index":48,"time_elapsed":1600875,"internal_node_id":"0.0-48.0"},{"result":163,"points":2,"place":1,"phase":0,"sequence":29,"times":[1189,586,824,1096],"next_num":4,"trial_type":"ticket-choose","trial_index":49,"time_elapsed":1607297,"internal_node_id":"0.0-49.0"},{"result":153,"points":3,"place":0,"phase":0,"sequence":30,"times":[1201,632,535,571,479,534,582,674,689,799],"next_num":10,"trial_type":"ticket-choose","trial_index":50,"time_elapsed":1618297,"internal_node_id":"0.0-50.0"},{"result":156,"points":3,"place":0,"phase":0,"sequence":31,"times":[1351],"next_num":1,"trial_type":"ticket-choose","trial_index":51,"time_elapsed":1621993,"internal_node_id":"0.0-51.0"},{"result":147,"points":3,"place":0,"phase":0,"sequence":32,"times":[1203,581,914,947],"next_num":4,"trial_type":"ticket-choose","trial_index":52,"time_elapsed":1628859,"internal_node_id":"0.0-52.0"},{"result":158,"points":3,"place":0,"phase":0,"sequence":33,"times":[1224,641,525,838,652,698,1042,972,1275],"next_num":9,"trial_type":"ticket-choose","trial_index":53,"time_elapsed":1640640,"internal_node_id":"0.0-53.0"},{"result":161,"points":1,"place":3,"phase":0,"sequence":34,"times":[4931,610,1010],"next_num":3,"trial_type":"ticket-choose","trial_index":54,"time_elapsed":1650336,"internal_node_id":"0.0-54.0"},{"result":155,"points":3,"place":0,"phase":0,"sequence":35,"times":[1243,572,627,674,563,626,558,720,729,899],"next_num":10,"trial_type":"ticket-choose","trial_index":55,"time_elapsed":1662021,"internal_node_id":"0.0-55.0"},{"result":161,"points":3,"place":0,"phase":0,"sequence":36,"times":[5761],"next_num":1,"trial_type":"ticket-choose","trial_index":56,"time_elapsed":1670014,"internal_node_id":"0.0-56.0"},{"result":154,"points":2,"place":1,"phase":0,"sequence":37,"times":[1381,627,900],"next_num":3,"trial_type":"ticket-choose","trial_index":57,"time_elapsed":1675536,"internal_node_id":"0.0-57.0"},{"result":155,"points":2,"place":1,"phase":0,"sequence":38,"times":[1280,939],"next_num":2,"trial_type":"ticket-choose","trial_index":58,"time_elapsed":1680092,"internal_node_id":"0.0-58.0"},{"result":154,"points":2,"place":1,"phase":0,"sequence":39,"times":[3221,892],"next_num":2,"trial_type":"ticket-choose","trial_index":59,"time_elapsed":1686442,"internal_node_id":"0.0-59.0"},{"result":185,"points":1,"place":4,"phase":0,"sequence":40,"times":[1494,548,533,588,533,735,480,581,587,1761],"next_num":10,"trial_type":"ticket-choose","trial_index":60,"time_elapsed":1698802,"internal_node_id":"0.0-60.0"},{"result":167,"points":2,"place":1,"phase":0,"sequence":41,"times":[1285,784,992],"next_num":3,"trial_type":"ticket-choose","trial_index":61,"time_elapsed":1704248,"internal_node_id":"0.0-61.0"},{"result":158,"points":2,"place":1,"phase":0,"sequence":42,"times":[1043,541,954],"next_num":3,"trial_type":"ticket-choose","trial_index":62,"time_elapsed":1709208,"internal_node_id":"0.0-62.0"},{"result":157,"points":3,"place":0,"phase":0,"sequence":43,"times":[1508,643,971],"next_num":3,"trial_type":"ticket-choose","trial_index":63,"time_elapsed":1714888,"internal_node_id":"0.0-63.0"},{"result":166,"points":2,"place":1,"phase":0,"sequence":44,"times":[1329,750,626,2517,985,987,1062],"next_num":7,"trial_type":"ticket-choose","trial_index":64,"time_elapsed":1726535,"internal_node_id":"0.0-64.0"},{"result":148,"points":3,"place":0,"phase":0,"sequence":45,"times":[1116],"next_num":1,"trial_type":"ticket-choose","trial_index":65,"time_elapsed":1729630,"internal_node_id":"0.0-65.0"},{"result":152,"points":3,"place":0,"phase":0,"sequence":46,"times":[1727,691,649,1220],"next_num":4,"trial_type":"ticket-choose","trial_index":66,"time_elapsed":1736653,"internal_node_id":"0.0-66.0"},{"result":150,"points":3,"place":0,"phase":0,"sequence":47,"times":[1239],"next_num":1,"trial_type":"ticket-choose","trial_index":67,"time_elapsed":1739903,"internal_node_id":"0.0-67.0"},{"result":138,"points":3,"place":0,"phase":0,"sequence":48,"times":[1108,612,524,774,626,627,634,735,1103],"next_num":9,"trial_type":"ticket-choose","trial_index":68,"time_elapsed":1750326,"internal_node_id":"0.0-68.0"},{"result":163,"points":3,"place":0,"phase":0,"sequence":49,"times":[1219,517,557,643,563,650,790,555,995],"next_num":9,"trial_type":"ticket-choose","trial_index":69,"time_elapsed":1760732,"internal_node_id":"0.0-69.0"},{"responses":[{"value":0,"offby":0,"category":"$106 - $134","category_index":0},{"value":1,"offby":0,"category":"$135 - $150","category_index":1},{"value":5,"offby":2,"category":"$151 - $165","category_index":2},{"value":5,"offby":-1,"category":"$166 - $180","category_index":3},{"value":5,"offby":-1,"category":"$181 - $195","category_index":4},{"value":4,"offby":1,"category":"$196 - $210","category_index":5},{"value":0,"offby":-1,"category":"$211 - $225","category_index":6}],"phase":0,"number":1,"trial_type":"bar-choose","trial_index":70,"time_elapsed":1850966,"internal_node_id":"0.0-70.0"},{"rt":13323,"url":"\/tickets\/utils\/start2.html","trial_type":"html","trial_index":71,"time_elapsed":1865396,"internal_node_id":"0.0-71.0"},{"trial_type":"number-animation","trial_index":72,"time_elapsed":1903766,"internal_node_id":"0.0-72.0"},{"phase":1,"sequence":0,"avg":184,"response":184,"trial_type":"training_avg","trial_index":73,"time_elapsed":1948174,"internal_node_id":"0.0-73.0"},{"trial_type":"number-animation","trial_index":74,"time_elapsed":2222216,"internal_node_id":"0.0-74.0"},{"phase":1,"sequence":1,"avg":199,"response":199,"trial_type":"training_avg","trial_index":75,"time_elapsed":2256820,"internal_node_id":"0.0-75.0"},{"trial_type":"number-animation","trial_index":76,"time_elapsed":2292915,"internal_node_id":"0.0-76.0"},{"phase":1,"sequence":2,"avg":199,"response":193,"trial_type":"training_avg","trial_index":77,"time_elapsed":2305697,"internal_node_id":"0.0-77.0"},{"trial_type":"number-animation","trial_index":78,"time_elapsed":2338181,"internal_node_id":"0.0-78.0"},{"phase":1,"sequence":3,"avg":210,"response":210,"trial_type":"training_avg","trial_index":79,"time_elapsed":2380681,"internal_node_id":"0.0-79.0"},{"trial_type":"number-animation","trial_index":80,"time_elapsed":2408393,"internal_node_id":"0.0-80.0"},{"phase":1,"sequence":4,"avg":202,"response":198,"trial_type":"training_avg","trial_index":81,"time_elapsed":2425056,"internal_node_id":"0.0-81.0"},{"responses":[{"value":0,"offby":-1,"category":"$105 - $130","category_index":0},{"value":2,"offby":0,"category":"$131 - $155","category_index":1},{"value":3,"offby":1,"category":"$156 - $180","category_index":2},{"value":6,"offby":1,"category":"$181 - $205","category_index":3},{"value":7,"offby":2,"category":"$206 - $230","category_index":4},{"value":2,"offby":-1,"category":"$231 - $255","category_index":5},{"value":0,"offby":-2,"category":"$256 - $280","category_index":6}],"phase":1,"number":0,"trial_type":"bar-choose","trial_index":82,"time_elapsed":2485104,"internal_node_id":"0.0-82.0"},{"rt":2910,"url":"\/tickets\/utils\/testing2.html","trial_type":"html","trial_index":83,"time_elapsed":2489120,"internal_node_id":"0.0-83.0"},{"phase":1,"order":[21,27,46,42,17,49,9,5,15,24,3,11,10,20,25,2,33,19,26,14,23,7,32,39,48,22,44,38,12,1,29,43,35,30,37,36,31,18,47,41,0,13,4,28,40,45,6,16,8,34],"trial_type":"store_order","trial_index":84,"time_elapsed":2490121,"internal_node_id":"0.0-84.0"},{"result":198,"points":1,"place":4,"phase":1,"sequence":0,"times":[2607,876,597,555,518,517,627,594,565,939],"next_num":10,"trial_type":"ticket-choose","trial_index":85,"time_elapsed":2503681,"internal_node_id":"0.0-85.0"},{"result":137,"points":3,"place":0,"phase":1,"sequence":1,"times":[2161],"next_num":1,"trial_type":"ticket-choose","trial_index":86,"time_elapsed":2508025,"internal_node_id":"0.0-86.0"},{"result":156,"points":3,"place":0,"phase":1,"sequence":2,"times":[1293,853,495,533,478,972],"next_num":6,"trial_type":"ticket-choose","trial_index":87,"time_elapsed":2515689,"internal_node_id":"0.0-87.0"},{"result":126,"points":3,"place":0,"phase":1,"sequence":3,"times":[2419,471,532,455,1120],"next_num":5,"trial_type":"ticket-choose","trial_index":88,"time_elapsed":2523501,"internal_node_id":"0.0-88.0"},{"result":140,"points":2,"place":1,"phase":1,"sequence":4,"times":[1062,581,502,557,573,642,899],"next_num":7,"trial_type":"ticket-choose","trial_index":89,"time_elapsed":2531571,"internal_node_id":"0.0-89.0"},{"result":136,"points":3,"place":0,"phase":1,"sequence":5,"times":[1019,877,523,496,509,1089],"next_num":6,"trial_type":"ticket-choose","trial_index":90,"time_elapsed":2539064,"internal_node_id":"0.0-90.0"},{"result":170,"points":3,"place":0,"phase":1,"sequence":6,"times":[1052,516,431,369,510,454,571,519,635,705],"next_num":10,"trial_type":"ticket-choose","trial_index":91,"time_elapsed":2549948,"internal_node_id":"0.0-91.0"},{"result":126,"points":3,"place":0,"phase":1,"sequence":7,"times":[1300,478,470,462,461,535,471,555,573,729],"next_num":10,"trial_type":"ticket-choose","trial_index":92,"time_elapsed":2560166,"internal_node_id":"0.0-92.0"},{"result":144,"points":3,"place":0,"phase":1,"sequence":8,"times":[1166,619,1017,493,604,533,540,744,893],"next_num":9,"trial_type":"ticket-choose","trial_index":93,"time_elapsed":2570276,"internal_node_id":"0.0-93.0"},{"result":210,"points":1,"place":4,"phase":1,"sequence":9,"times":[971,602,494,557,595,517,589,587,619,1462],"next_num":10,"trial_type":"ticket-choose","trial_index":94,"time_elapsed":2581002,"internal_node_id":"0.0-94.0"},{"result":148,"points":2,"place":1,"phase":1,"sequence":10,"times":[1070,704,885],"next_num":3,"trial_type":"ticket-choose","trial_index":95,"time_elapsed":2585892,"internal_node_id":"0.0-95.0"},{"result":139,"points":3,"place":0,"phase":1,"sequence":11,"times":[967,571,471,494,501,503,1087,1159,977],"next_num":9,"trial_type":"ticket-choose","trial_index":96,"time_elapsed":2596472,"internal_node_id":"0.0-96.0"},{"result":162,"points":1,"place":3,"phase":1,"sequence":12,"times":[1359,566,893],"next_num":3,"trial_type":"ticket-choose","trial_index":97,"time_elapsed":2601821,"internal_node_id":"0.0-97.0"},{"result":208,"points":1,"place":4,"phase":1,"sequence":13,"times":[1173,533,660,487,539,488,557,540,696,799],"next_num":10,"trial_type":"ticket-choose","trial_index":98,"time_elapsed":2612251,"internal_node_id":"0.0-98.0"},{"result":141,"points":3,"place":0,"phase":1,"sequence":14,"times":[1142],"next_num":1,"trial_type":"ticket-choose","trial_index":99,"time_elapsed":2615501,"internal_node_id":"0.0-99.0"},{"result":147,"points":3,"place":0,"phase":1,"sequence":15,"times":[915,627,594,540,519,525,720,570,611,1340],"next_num":10,"trial_type":"ticket-choose","trial_index":100,"time_elapsed":2626447,"internal_node_id":"0.0-100.0"},{"result":151,"points":3,"place":0,"phase":1,"sequence":16,"times":[1088,993],"next_num":2,"trial_type":"ticket-choose","trial_index":101,"time_elapsed":2630673,"internal_node_id":"0.0-101.0"},{"result":156,"points":3,"place":0,"phase":1,"sequence":17,"times":[720,503,571,503,603,534,953,660,845],"next_num":9,"trial_type":"ticket-choose","trial_index":102,"time_elapsed":2640181,"internal_node_id":"0.0-102.0"},{"result":154,"points":3,"place":0,"phase":1,"sequence":18,"times":[1142],"next_num":1,"trial_type":"ticket-choose","trial_index":103,"time_elapsed":2643071,"internal_node_id":"0.0-103.0"},{"result":166,"points":3,"place":0,"phase":1,"sequence":19,"times":[723,487,534,572,479,533,650,934,1259],"next_num":9,"trial_type":"ticket-choose","trial_index":104,"time_elapsed":2652689,"internal_node_id":"0.0-104.0"},{"result":212,"points":1,"place":4,"phase":1,"sequence":20,"times":[723,565,476,504,486,485,856,555,628,815],"next_num":10,"trial_type":"ticket-choose","trial_index":105,"time_elapsed":2662510,"internal_node_id":"0.0-105.0"},{"result":184,"points":1,"place":2,"phase":1,"sequence":21,"times":[1059,479,901,485,635,869,1486],"next_num":7,"trial_type":"ticket-choose","trial_index":106,"time_elapsed":2671642,"internal_node_id":"0.0-106.0"},{"result":133,"points":3,"place":0,"phase":1,"sequence":22,"times":[886,485,1105],"next_num":3,"trial_type":"ticket-choose","trial_index":107,"time_elapsed":2676338,"internal_node_id":"0.0-107.0"},{"result":183,"points":1,"place":3,"phase":1,"sequence":23,"times":[719,1018,500,503,547,528,744,615,572,696],"next_num":10,"trial_type":"ticket-choose","trial_index":108,"time_elapsed":2686908,"internal_node_id":"0.0-108.0"},{"result":159,"points":2,"place":1,"phase":1,"sequence":24,"times":[993,471,454,470,572,485,767,628,1011],"next_num":9,"trial_type":"ticket-choose","trial_index":109,"time_elapsed":2696300,"internal_node_id":"0.0-109.0"},{"result":145,"points":3,"place":0,"phase":1,"sequence":25,"times":[1024],"next_num":1,"trial_type":"ticket-choose","trial_index":110,"time_elapsed":2699113,"internal_node_id":"0.0-110.0"},{"result":158,"points":1,"place":2,"phase":1,"sequence":26,"times":[1081,829],"next_num":2,"trial_type":"ticket-choose","trial_index":111,"time_elapsed":2703198,"internal_node_id":"0.0-111.0"},{"result":167,"points":3,"place":0,"phase":1,"sequence":27,"times":[751,533,549,508,541,531,525,941],"next_num":8,"trial_type":"ticket-choose","trial_index":112,"time_elapsed":2711268,"internal_node_id":"0.0-112.0"},{"result":180,"points":2,"place":1,"phase":1,"sequence":28,"times":[822,650,751,542,495,555,2040],"next_num":7,"trial_type":"ticket-choose","trial_index":113,"time_elapsed":2720205,"internal_node_id":"0.0-113.0"},{"result":165,"points":2,"place":1,"phase":1,"sequence":29,"times":[994,578,938],"next_num":3,"trial_type":"ticket-choose","trial_index":114,"time_elapsed":2725055,"internal_node_id":"0.0-114.0"},{"result":158,"points":3,"place":0,"phase":1,"sequence":30,"times":[845],"next_num":1,"trial_type":"ticket-choose","trial_index":115,"time_elapsed":2727665,"internal_node_id":"0.0-115.0"},{"result":169,"points":2,"place":1,"phase":1,"sequence":31,"times":[658,486,480,541,468,527,532,954,948],"next_num":9,"trial_type":"ticket-choose","trial_index":116,"time_elapsed":2736611,"internal_node_id":"0.0-116.0"},{"result":149,"points":2,"place":1,"phase":1,"sequence":32,"times":[690,729],"next_num":2,"trial_type":"ticket-choose","trial_index":117,"time_elapsed":2740049,"internal_node_id":"0.0-117.0"},{"result":116,"points":3,"place":0,"phase":1,"sequence":33,"times":[550,541,485,496,509,901],"next_num":6,"trial_type":"ticket-choose","trial_index":118,"time_elapsed":2746484,"internal_node_id":"0.0-118.0"},{"result":167,"points":2,"place":1,"phase":1,"sequence":34,"times":[973,478,628,861],"next_num":4,"trial_type":"ticket-choose","trial_index":119,"time_elapsed":2751845,"internal_node_id":"0.0-119.0"},{"result":148,"points":3,"place":0,"phase":1,"sequence":35,"times":[734,495,595,556,477,511,619,854],"next_num":8,"trial_type":"ticket-choose","trial_index":120,"time_elapsed":2760111,"internal_node_id":"0.0-120.0"},{"result":165,"points":1,"place":2,"phase":1,"sequence":36,"times":[1074],"next_num":1,"trial_type":"ticket-choose","trial_index":121,"time_elapsed":2762977,"internal_node_id":"0.0-121.0"},{"result":170,"points":2,"place":1,"phase":1,"sequence":37,"times":[963,464,485,519,509,494,821],"next_num":7,"trial_type":"ticket-choose","trial_index":122,"time_elapsed":2770304,"internal_node_id":"0.0-122.0"},{"result":144,"points":3,"place":0,"phase":1,"sequence":38,"times":[737,523,510,767],"next_num":4,"trial_type":"ticket-choose","trial_index":123,"time_elapsed":2775313,"internal_node_id":"0.0-123.0"},{"result":151,"points":2,"place":1,"phase":1,"sequence":39,"times":[894,549,893],"next_num":3,"trial_type":"ticket-choose","trial_index":124,"time_elapsed":2779719,"internal_node_id":"0.0-124.0"},{"result":163,"points":1,"place":2,"phase":1,"sequence":40,"times":[682,548,478,579,512,509,876],"next_num":7,"trial_type":"ticket-choose","trial_index":125,"time_elapsed":2786891,"internal_node_id":"0.0-125.0"},{"result":148,"points":2,"place":1,"phase":1,"sequence":41,"times":[765,533,503,517,487,546,822],"next_num":7,"trial_type":"ticket-choose","trial_index":126,"time_elapsed":2794132,"internal_node_id":"0.0-126.0"},{"result":245,"points":0,"place":8,"phase":1,"sequence":42,"times":[1009,516,551,461,713,556,1790,604,1176],"next_num":9,"trial_type":"ticket-choose","trial_index":127,"time_elapsed":2805688,"internal_node_id":"0.0-127.0"},{"result":217,"points":1,"place":4,"phase":1,"sequence":43,"times":[1362,471,494,524,517,511,718,634,541,619],"next_num":10,"trial_type":"ticket-choose","trial_index":128,"time_elapsed":2816071,"internal_node_id":"0.0-128.0"},{"result":140,"points":3,"place":0,"phase":1,"sequence":44,"times":[1141,856],"next_num":2,"trial_type":"ticket-choose","trial_index":129,"time_elapsed":2820032,"internal_node_id":"0.0-129.0"},{"result":169,"points":3,"place":0,"phase":1,"sequence":45,"times":[1121,448,847,447,610,549,680,877],"next_num":8,"trial_type":"ticket-choose","trial_index":130,"time_elapsed":2828977,"internal_node_id":"0.0-130.0"},{"result":180,"points":1,"place":2,"phase":1,"sequence":46,"times":[704,493,527,601,509,479,964],"next_num":7,"trial_type":"ticket-choose","trial_index":131,"time_elapsed":2836291,"internal_node_id":"0.0-131.0"},{"result":165,"points":2,"place":1,"phase":1,"sequence":47,"times":[710,524,517,642,807,594,892],"next_num":7,"trial_type":"ticket-choose","trial_index":132,"time_elapsed":2843992,"internal_node_id":"0.0-132.0"},{"result":134,"points":3,"place":0,"phase":1,"sequence":48,"times":[700,556,494,500,597,485,510,861,566,885],"next_num":10,"trial_type":"ticket-choose","trial_index":133,"time_elapsed":2854087,"internal_node_id":"0.0-133.0"},{"result":150,"points":2,"place":1,"phase":1,"sequence":49,"times":[817,1159],"next_num":2,"trial_type":"ticket-choose","trial_index":134,"time_elapsed":2858009,"internal_node_id":"0.0-134.0"},{"responses":[{"value":0,"offby":-1,"category":"$105 - $130","category_index":0},{"value":2,"offby":0,"category":"$131 - $155","category_index":1},{"value":4,"offby":2,"category":"$156 - $180","category_index":2},{"value":7,"offby":2,"category":"$181 - $205","category_index":3},{"value":6,"offby":1,"category":"$206 - $230","category_index":4},{"value":1,"offby":-2,"category":"$231 - $255","category_index":5},{"value":0,"offby":-2,"category":"$256 - $280","category_index":6}],"phase":1,"number":1,"trial_type":"bar-choose","trial_index":135,"time_elapsed":2887728,"internal_node_id":"0.0-135.0"},{"during":"Nothing","bonus":300,"trial_type":"final","trial_index":136,"time_elapsed":2909413,"internal_node_id":"0.0-136.0"}],"bonus":300}