{"start_time":"2017-02-14 16:20:15","end_time":"2017-02-14 16:37:52","points_phase0":100,"points_phase1":103,"phase_order":0,"age":26,"gender":"m","tries":1,"during":"Nothing","worker_id":"A2CEUCPDECS6U3","assignment_id":"32RIADZISTXA8FCLU3JDKYCOS574SV","data":[{"rt":5135,"url":"\/tickets\/utils\/consent.html","trial_type":"html","trial_index":0,"time_elapsed":5204,"internal_node_id":"0.0-0.0"},{"age":26,"gender":"m","trial_type":"age","trial_index":1,"time_elapsed":9230,"internal_node_id":"0.0-1.0"},{"worker_id":"A2CEUCPDECS6U3","trial_type":"workerid","trial_index":2,"time_elapsed":14389,"internal_node_id":"0.0-2.0"},{"tries":1,"trial_type":"instructions_check","trial_index":3,"time_elapsed":25740,"internal_node_id":"0.0-3.0"},{"rt":5349,"url":"\/tickets\/utils\/start.html","trial_type":"html","trial_index":4,"time_elapsed":32155,"internal_node_id":"0.0-4.0"},{"trial_type":"number-animation","trial_index":5,"time_elapsed":49253,"internal_node_id":"0.0-5.0"},{"phase":0,"sequence":0,"avg":181,"response":172,"trial_type":"training_avg","trial_index":6,"time_elapsed":57415,"internal_node_id":"0.0-6.0"},{"trial_type":"number-animation","trial_index":7,"time_elapsed":72589,"internal_node_id":"0.0-7.0"},{"phase":0,"sequence":1,"avg":188,"response":176,"trial_type":"training_avg","trial_index":8,"time_elapsed":79239,"internal_node_id":"0.0-8.0"},{"trial_type":"number-animation","trial_index":9,"time_elapsed":91332,"internal_node_id":"0.0-9.0"},{"phase":0,"sequence":2,"avg":188,"response":183,"trial_type":"training_avg","trial_index":10,"time_elapsed":97421,"internal_node_id":"0.0-10.0"},{"trial_type":"number-animation","trial_index":11,"time_elapsed":110453,"internal_node_id":"0.0-11.0"},{"phase":0,"sequence":3,"avg":177,"response":183,"trial_type":"training_avg","trial_index":12,"time_elapsed":115935,"internal_node_id":"0.0-12.0"},{"trial_type":"number-animation","trial_index":13,"time_elapsed":128244,"internal_node_id":"0.0-13.0"},{"phase":0,"sequence":4,"avg":182,"response":180,"trial_type":"training_avg","trial_index":14,"time_elapsed":134402,"internal_node_id":"0.0-14.0"},{"responses":[{"value":0,"offby":0,"category":"$106 - $134","category_index":0},{"value":0,"offby":-1,"category":"$135 - $150","category_index":1},{"value":0,"offby":-3,"category":"$151 - $165","category_index":2},{"value":12,"offby":6,"category":"$166 - $180","category_index":3},{"value":4,"offby":-2,"category":"$181 - $195","category_index":4},{"value":4,"offby":1,"category":"$196 - $210","category_index":5},{"value":0,"offby":-1,"category":"$211 - $225","category_index":6}],"phase":0,"number":0,"trial_type":"bar-choose","trial_index":15,"time_elapsed":160665,"internal_node_id":"0.0-15.0"},{"rt":8144,"url":"\/tickets\/\/utils\/testing.html","trial_type":"html","trial_index":16,"time_elapsed":170168,"internal_node_id":"0.0-16.0"},{"phase":0,"order":[22,7,39,42,45,48,33,47,18,6,10,12,21,20,49,24,9,40,28,16,36,32,0,25,1,26,4,15,8,17,14,43,27,23,46,30,13,37,35,31,44,41,5,2,19,3,29,34,11,38],"trial_type":"store_order","trial_index":17,"time_elapsed":171169,"internal_node_id":"0.0-17.0"},{"result":126,"points":3,"place":0,"phase":0,"sequence":-1,"times":[1644,813,534,952,399,464,439,495,439,1424],"next_num":10,"trial_type":"ticket-choose","trial_index":18,"time_elapsed":182754,"internal_node_id":"0.0-18.0"},{"rt":8782,"url":"\/tickets\/utils\/testing_after.html","trial_type":"html","trial_index":19,"time_elapsed":192595,"internal_node_id":"0.0-19.0"},{"result":158,"points":2,"place":1,"phase":0,"sequence":0,"times":[1579,440,487,438,495,487,1325],"next_num":7,"trial_type":"ticket-choose","trial_index":20,"time_elapsed":201792,"internal_node_id":"0.0-20.0"},{"result":163,"points":2,"place":1,"phase":0,"sequence":1,"times":[1183,374,631,487,558,504,2200],"next_num":7,"trial_type":"ticket-choose","trial_index":21,"time_elapsed":210904,"internal_node_id":"0.0-21.0"},{"result":171,"points":1,"place":3,"phase":0,"sequence":2,"times":[510,287,447,407,1213,352,423,870,750,796],"next_num":10,"trial_type":"ticket-choose","trial_index":22,"time_elapsed":221223,"internal_node_id":"0.0-22.0"},{"result":143,"points":3,"place":0,"phase":0,"sequence":3,"times":[927,263,286,455,1069],"next_num":5,"trial_type":"ticket-choose","trial_index":23,"time_elapsed":227063,"internal_node_id":"0.0-23.0"},{"result":167,"points":2,"place":1,"phase":0,"sequence":4,"times":[391,518,367,527,1263],"next_num":5,"trial_type":"ticket-choose","trial_index":24,"time_elapsed":232856,"internal_node_id":"0.0-24.0"},{"result":179,"points":1,"place":4,"phase":0,"sequence":5,"times":[474,279,589,351,440,567,487,767,760,780],"next_num":10,"trial_type":"ticket-choose","trial_index":25,"time_elapsed":242325,"internal_node_id":"0.0-25.0"},{"result":167,"points":1,"place":2,"phase":0,"sequence":6,"times":[361,430,644,455,495,424,1431],"next_num":7,"trial_type":"ticket-choose","trial_index":26,"time_elapsed":249581,"internal_node_id":"0.0-26.0"},{"result":152,"points":3,"place":0,"phase":0,"sequence":7,"times":[299,429,422,962],"next_num":4,"trial_type":"ticket-choose","trial_index":27,"time_elapsed":254206,"internal_node_id":"0.0-27.0"},{"result":165,"points":1,"place":2,"phase":0,"sequence":8,"times":[321,534,439,391,615,463,583,922],"next_num":8,"trial_type":"ticket-choose","trial_index":28,"time_elapsed":261712,"internal_node_id":"0.0-28.0"},{"result":166,"points":1,"place":2,"phase":0,"sequence":9,"times":[296,503,791,440,535,1030,461,907],"next_num":8,"trial_type":"ticket-choose","trial_index":29,"time_elapsed":269926,"internal_node_id":"0.0-29.0"},{"result":167,"points":2,"place":1,"phase":0,"sequence":10,"times":[1646,366,906],"next_num":3,"trial_type":"ticket-choose","trial_index":30,"time_elapsed":275032,"internal_node_id":"0.0-30.0"},{"result":167,"points":2,"place":1,"phase":0,"sequence":11,"times":[529,831,455,551,504,502,925],"next_num":7,"trial_type":"ticket-choose","trial_index":31,"time_elapsed":282331,"internal_node_id":"0.0-31.0"},{"result":158,"points":2,"place":1,"phase":0,"sequence":12,"times":[412,502,464,550,448,488,1196],"next_num":7,"trial_type":"ticket-choose","trial_index":32,"time_elapsed":289544,"internal_node_id":"0.0-32.0"},{"result":158,"points":2,"place":1,"phase":0,"sequence":13,"times":[7313,373,529,453,692,496,778],"next_num":7,"trial_type":"ticket-choose","trial_index":33,"time_elapsed":303905,"internal_node_id":"0.0-33.0"},{"result":184,"points":0,"place":7,"phase":0,"sequence":14,"times":[645,231,688,461,655,375,768,606,655,541],"next_num":10,"trial_type":"ticket-choose","trial_index":34,"time_elapsed":313154,"internal_node_id":"0.0-34.0"},{"result":184,"points":1,"place":4,"phase":0,"sequence":15,"times":[309,525,671,446,688,735,710,551,399,1063],"next_num":10,"trial_type":"ticket-choose","trial_index":35,"time_elapsed":322921,"internal_node_id":"0.0-35.0"},{"result":167,"points":2,"place":1,"phase":0,"sequence":16,"times":[366,447,929],"next_num":3,"trial_type":"ticket-choose","trial_index":36,"time_elapsed":326832,"internal_node_id":"0.0-36.0"},{"result":150,"points":3,"place":0,"phase":0,"sequence":17,"times":[327,1410],"next_num":2,"trial_type":"ticket-choose","trial_index":37,"time_elapsed":330701,"internal_node_id":"0.0-37.0"},{"result":185,"points":1,"place":4,"phase":0,"sequence":18,"times":[513,671,487,519,622,543,367,423,629,671],"next_num":10,"trial_type":"ticket-choose","trial_index":38,"time_elapsed":339678,"internal_node_id":"0.0-38.0"},{"result":158,"points":2,"place":1,"phase":0,"sequence":19,"times":[584,447,832],"next_num":3,"trial_type":"ticket-choose","trial_index":39,"time_elapsed":343678,"internal_node_id":"0.0-39.0"},{"result":165,"points":2,"place":1,"phase":0,"sequence":20,"times":[330,809,771],"next_num":3,"trial_type":"ticket-choose","trial_index":40,"time_elapsed":347697,"internal_node_id":"0.0-40.0"},{"result":161,"points":3,"place":0,"phase":0,"sequence":21,"times":[900],"next_num":1,"trial_type":"ticket-choose","trial_index":41,"time_elapsed":350424,"internal_node_id":"0.0-41.0"},{"result":163,"points":2,"place":1,"phase":0,"sequence":22,"times":[895,430,831],"next_num":3,"trial_type":"ticket-choose","trial_index":42,"time_elapsed":354679,"internal_node_id":"0.0-42.0"},{"result":156,"points":3,"place":0,"phase":0,"sequence":23,"times":[2415],"next_num":1,"trial_type":"ticket-choose","trial_index":43,"time_elapsed":359175,"internal_node_id":"0.0-43.0"},{"result":163,"points":2,"place":1,"phase":0,"sequence":24,"times":[1975,439,896],"next_num":3,"trial_type":"ticket-choose","trial_index":44,"time_elapsed":364679,"internal_node_id":"0.0-44.0"},{"result":152,"points":3,"place":0,"phase":0,"sequence":25,"times":[838],"next_num":1,"trial_type":"ticket-choose","trial_index":45,"time_elapsed":367183,"internal_node_id":"0.0-45.0"},{"result":163,"points":2,"place":1,"phase":0,"sequence":26,"times":[768,494,503,471,669,591,922],"next_num":7,"trial_type":"ticket-choose","trial_index":46,"time_elapsed":374541,"internal_node_id":"0.0-46.0"},{"result":167,"points":2,"place":1,"phase":0,"sequence":27,"times":[666,606,551,519,528,598,844],"next_num":7,"trial_type":"ticket-choose","trial_index":47,"time_elapsed":381909,"internal_node_id":"0.0-47.0"},{"result":167,"points":2,"place":1,"phase":0,"sequence":28,"times":[641,470,1111],"next_num":3,"trial_type":"ticket-choose","trial_index":48,"time_elapsed":386331,"internal_node_id":"0.0-48.0"},{"result":158,"points":2,"place":1,"phase":0,"sequence":29,"times":[1180,495,822],"next_num":3,"trial_type":"ticket-choose","trial_index":49,"time_elapsed":390918,"internal_node_id":"0.0-49.0"},{"result":167,"points":2,"place":1,"phase":0,"sequence":30,"times":[681,415,703,631,567,671,948],"next_num":7,"trial_type":"ticket-choose","trial_index":50,"time_elapsed":398494,"internal_node_id":"0.0-50.0"},{"result":157,"points":3,"place":0,"phase":0,"sequence":31,"times":[578,503,900],"next_num":3,"trial_type":"ticket-choose","trial_index":51,"time_elapsed":402646,"internal_node_id":"0.0-51.0"},{"result":178,"points":1,"place":3,"phase":0,"sequence":32,"times":[935,687,511,925],"next_num":4,"trial_type":"ticket-choose","trial_index":52,"time_elapsed":407966,"internal_node_id":"0.0-52.0"},{"result":158,"points":2,"place":1,"phase":0,"sequence":33,"times":[802,718,687,422,423,695,1215],"next_num":7,"trial_type":"ticket-choose","trial_index":53,"time_elapsed":415963,"internal_node_id":"0.0-53.0"},{"result":158,"points":3,"place":0,"phase":0,"sequence":34,"times":[797,542,407,488,439,840],"next_num":6,"trial_type":"ticket-choose","trial_index":54,"time_elapsed":424168,"internal_node_id":"0.0-54.0"},{"result":157,"points":3,"place":0,"phase":0,"sequence":35,"times":[2149],"next_num":1,"trial_type":"ticket-choose","trial_index":55,"time_elapsed":428446,"internal_node_id":"0.0-55.0"},{"result":175,"points":1,"place":3,"phase":0,"sequence":36,"times":[1292],"next_num":1,"trial_type":"ticket-choose","trial_index":56,"time_elapsed":431489,"internal_node_id":"0.0-56.0"},{"result":169,"points":1,"place":3,"phase":0,"sequence":37,"times":[447,511,905],"next_num":3,"trial_type":"ticket-choose","trial_index":57,"time_elapsed":435563,"internal_node_id":"0.0-57.0"},{"result":154,"points":2,"place":1,"phase":0,"sequence":38,"times":[957,772],"next_num":2,"trial_type":"ticket-choose","trial_index":58,"time_elapsed":439192,"internal_node_id":"0.0-58.0"},{"result":148,"points":3,"place":0,"phase":0,"sequence":39,"times":[1157],"next_num":1,"trial_type":"ticket-choose","trial_index":59,"time_elapsed":442645,"internal_node_id":"0.0-59.0"},{"result":159,"points":1,"place":2,"phase":0,"sequence":40,"times":[1489,884],"next_num":2,"trial_type":"ticket-choose","trial_index":60,"time_elapsed":446923,"internal_node_id":"0.0-60.0"},{"result":155,"points":2,"place":1,"phase":0,"sequence":41,"times":[908,392,1162],"next_num":3,"trial_type":"ticket-choose","trial_index":61,"time_elapsed":451560,"internal_node_id":"0.0-61.0"},{"result":163,"points":2,"place":1,"phase":0,"sequence":42,"times":[769,446,511,482,583,535,893],"next_num":7,"trial_type":"ticket-choose","trial_index":62,"time_elapsed":458947,"internal_node_id":"0.0-62.0"},{"result":163,"points":2,"place":1,"phase":0,"sequence":43,"times":[678,430,1327],"next_num":3,"trial_type":"ticket-choose","trial_index":63,"time_elapsed":464097,"internal_node_id":"0.0-63.0"},{"result":158,"points":2,"place":1,"phase":0,"sequence":44,"times":[813,455,903],"next_num":3,"trial_type":"ticket-choose","trial_index":64,"time_elapsed":468411,"internal_node_id":"0.0-64.0"},{"result":163,"points":2,"place":1,"phase":0,"sequence":45,"times":[990,446,1675],"next_num":3,"trial_type":"ticket-choose","trial_index":65,"time_elapsed":473676,"internal_node_id":"0.0-65.0"},{"result":150,"points":3,"place":0,"phase":0,"sequence":46,"times":[1746],"next_num":1,"trial_type":"ticket-choose","trial_index":66,"time_elapsed":477262,"internal_node_id":"0.0-66.0"},{"result":155,"points":2,"place":1,"phase":0,"sequence":47,"times":[1041,1041],"next_num":2,"trial_type":"ticket-choose","trial_index":67,"time_elapsed":481468,"internal_node_id":"0.0-67.0"},{"result":153,"points":3,"place":0,"phase":0,"sequence":48,"times":[1731,431,487,381,520,672,834,796,638,725],"next_num":10,"trial_type":"ticket-choose","trial_index":68,"time_elapsed":492344,"internal_node_id":"0.0-68.0"},{"result":163,"points":3,"place":0,"phase":0,"sequence":49,"times":[2696,478,495,575,542,495,607,1343],"next_num":8,"trial_type":"ticket-choose","trial_index":69,"time_elapsed":502939,"internal_node_id":"0.0-69.0"},{"responses":[{"value":0,"offby":0,"category":"$106 - $134","category_index":0},{"value":0,"offby":-1,"category":"$135 - $150","category_index":1},{"value":0,"offby":-3,"category":"$151 - $165","category_index":2},{"value":10,"offby":4,"category":"$166 - $180","category_index":3},{"value":5,"offby":-1,"category":"$181 - $195","category_index":4},{"value":5,"offby":2,"category":"$196 - $210","category_index":5},{"value":0,"offby":-1,"category":"$211 - $225","category_index":6}],"phase":0,"number":1,"trial_type":"bar-choose","trial_index":70,"time_elapsed":523169,"internal_node_id":"0.0-70.0"},{"rt":2956,"url":"\/tickets\/utils\/start2.html","trial_type":"html","trial_index":71,"time_elapsed":527188,"internal_node_id":"0.0-71.0"},{"trial_type":"number-animation","trial_index":72,"time_elapsed":540381,"internal_node_id":"0.0-72.0"},{"phase":1,"sequence":0,"avg":182,"response":159,"trial_type":"training_avg","trial_index":73,"time_elapsed":547925,"internal_node_id":"0.0-73.0"},{"trial_type":"number-animation","trial_index":74,"time_elapsed":559942,"internal_node_id":"0.0-74.0"},{"phase":1,"sequence":1,"avg":188,"response":186,"trial_type":"training_avg","trial_index":75,"time_elapsed":566307,"internal_node_id":"0.0-75.0"},{"trial_type":"number-animation","trial_index":76,"time_elapsed":578933,"internal_node_id":"0.0-76.0"},{"phase":1,"sequence":2,"avg":176,"response":176,"trial_type":"training_avg","trial_index":77,"time_elapsed":585600,"internal_node_id":"0.0-77.0"},{"trial_type":"number-animation","trial_index":78,"time_elapsed":596845,"internal_node_id":"0.0-78.0"},{"phase":1,"sequence":3,"avg":180,"response":179,"trial_type":"training_avg","trial_index":79,"time_elapsed":601763,"internal_node_id":"0.0-79.0"},{"trial_type":"number-animation","trial_index":80,"time_elapsed":613437,"internal_node_id":"0.0-80.0"},{"phase":1,"sequence":4,"avg":174,"response":178,"trial_type":"training_avg","trial_index":81,"time_elapsed":620298,"internal_node_id":"0.0-81.0"},{"responses":[{"value":0,"offby":-1,"category":"$90 - $120","category_index":0},{"value":0,"offby":-3,"category":"$121 - $145","category_index":1},{"value":3,"offby":0,"category":"$146 - $170","category_index":2},{"value":8,"offby":2,"category":"$171 - $195","category_index":3},{"value":9,"offby":5,"category":"$196 - $220","category_index":4},{"value":0,"offby":-2,"category":"$221 - $245","category_index":5},{"value":0,"offby":-1,"category":"$246 - $270","category_index":6}],"phase":1,"number":0,"trial_type":"bar-choose","trial_index":82,"time_elapsed":640618,"internal_node_id":"0.0-82.0"},{"rt":3258,"url":"\/tickets\/utils\/testing2.html","trial_type":"html","trial_index":83,"time_elapsed":645448,"internal_node_id":"0.0-83.0"},{"phase":1,"order":[41,5,15,26,18,23,0,22,14,25,17,49,29,12,33,20,31,46,34,36,38,35,19,28,16,3,27,32,7,4,44,9,1,10,11,43,8,40,47,30,39,48,2,42,13,45,37,6,21,24],"trial_type":"store_order","trial_index":84,"time_elapsed":646603,"internal_node_id":"0.0-84.0"},{"result":131,"points":2,"place":1,"phase":1,"sequence":0,"times":[1738,838,960],"next_num":3,"trial_type":"ticket-choose","trial_index":85,"time_elapsed":652424,"internal_node_id":"0.0-85.0"},{"result":146,"points":2,"place":1,"phase":1,"sequence":1,"times":[1110,465,488,426,431,527,785],"next_num":7,"trial_type":"ticket-choose","trial_index":86,"time_elapsed":659671,"internal_node_id":"0.0-86.0"},{"result":154,"points":2,"place":1,"phase":1,"sequence":2,"times":[624,408,479,424,566,568,928],"next_num":7,"trial_type":"ticket-choose","trial_index":87,"time_elapsed":666751,"internal_node_id":"0.0-87.0"},{"result":136,"points":2,"place":1,"phase":1,"sequence":3,"times":[377,432,863],"next_num":3,"trial_type":"ticket-choose","trial_index":88,"time_elapsed":670563,"internal_node_id":"0.0-88.0"},{"result":136,"points":2,"place":1,"phase":1,"sequence":4,"times":[869,1782,1030],"next_num":3,"trial_type":"ticket-choose","trial_index":89,"time_elapsed":676388,"internal_node_id":"0.0-89.0"},{"result":136,"points":2,"place":1,"phase":1,"sequence":5,"times":[1875,431,439,764,577,520,927],"next_num":7,"trial_type":"ticket-choose","trial_index":90,"time_elapsed":685461,"internal_node_id":"0.0-90.0"},{"result":152,"points":1,"place":2,"phase":1,"sequence":6,"times":[1410,447,367,390,486,424,462,853],"next_num":8,"trial_type":"ticket-choose","trial_index":91,"time_elapsed":694486,"internal_node_id":"0.0-91.0"},{"result":136,"points":2,"place":1,"phase":1,"sequence":7,"times":[681,406,510,710,470,543,831],"next_num":7,"trial_type":"ticket-choose","trial_index":92,"time_elapsed":701846,"internal_node_id":"0.0-92.0"},{"result":154,"points":2,"place":1,"phase":1,"sequence":8,"times":[4312,829,507,455,431,616,767],"next_num":7,"trial_type":"ticket-choose","trial_index":93,"time_elapsed":713179,"internal_node_id":"0.0-93.0"},{"result":132,"points":3,"place":0,"phase":1,"sequence":9,"times":[1296],"next_num":1,"trial_type":"ticket-choose","trial_index":94,"time_elapsed":716266,"internal_node_id":"0.0-94.0"},{"result":136,"points":2,"place":1,"phase":1,"sequence":10,"times":[1134,429,896],"next_num":3,"trial_type":"ticket-choose","trial_index":95,"time_elapsed":720849,"internal_node_id":"0.0-95.0"},{"result":146,"points":1,"place":2,"phase":1,"sequence":11,"times":[639,943],"next_num":2,"trial_type":"ticket-choose","trial_index":96,"time_elapsed":724414,"internal_node_id":"0.0-96.0"},{"result":121,"points":3,"place":0,"phase":1,"sequence":12,"times":[1078],"next_num":1,"trial_type":"ticket-choose","trial_index":97,"time_elapsed":727245,"internal_node_id":"0.0-97.0"},{"result":132,"points":3,"place":0,"phase":1,"sequence":13,"times":[860,413,462,520,623,528,1366,782,438,759],"next_num":10,"trial_type":"ticket-choose","trial_index":98,"time_elapsed":737596,"internal_node_id":"0.0-98.0"},{"result":160,"points":1,"place":4,"phase":1,"sequence":14,"times":[945,638,567,519,599,439,646,488,422,829],"next_num":10,"trial_type":"ticket-choose","trial_index":99,"time_elapsed":747293,"internal_node_id":"0.0-99.0"},{"result":136,"points":2,"place":1,"phase":1,"sequence":15,"times":[890,486,1478,479,607,568,1306],"next_num":7,"trial_type":"ticket-choose","trial_index":100,"time_elapsed":756058,"internal_node_id":"0.0-100.0"},{"result":117,"points":3,"place":0,"phase":1,"sequence":16,"times":[1178],"next_num":1,"trial_type":"ticket-choose","trial_index":101,"time_elapsed":759504,"internal_node_id":"0.0-101.0"},{"result":136,"points":3,"place":0,"phase":1,"sequence":17,"times":[887,471,518,486,456,948],"next_num":6,"trial_type":"ticket-choose","trial_index":102,"time_elapsed":766515,"internal_node_id":"0.0-102.0"},{"result":130,"points":2,"place":1,"phase":1,"sequence":18,"times":[930,1013],"next_num":2,"trial_type":"ticket-choose","trial_index":103,"time_elapsed":770784,"internal_node_id":"0.0-103.0"},{"result":164,"points":1,"place":2,"phase":1,"sequence":19,"times":[1223,599,1090,1248],"next_num":4,"trial_type":"ticket-choose","trial_index":104,"time_elapsed":776180,"internal_node_id":"0.0-104.0"},{"result":146,"points":3,"place":0,"phase":1,"sequence":20,"times":[1273,382,430,454,446,431,439,959],"next_num":8,"trial_type":"ticket-choose","trial_index":105,"time_elapsed":784142,"internal_node_id":"0.0-105.0"},{"result":129,"points":2,"place":1,"phase":1,"sequence":21,"times":[946,891],"next_num":2,"trial_type":"ticket-choose","trial_index":106,"time_elapsed":787934,"internal_node_id":"0.0-106.0"},{"result":136,"points":2,"place":1,"phase":1,"sequence":22,"times":[1183,1740,1204],"next_num":3,"trial_type":"ticket-choose","trial_index":107,"time_elapsed":794293,"internal_node_id":"0.0-107.0"},{"result":189,"points":1,"place":4,"phase":1,"sequence":23,"times":[3043,367,724,395,407,376,671,431,442,561],"next_num":10,"trial_type":"ticket-choose","trial_index":108,"time_elapsed":806395,"internal_node_id":"0.0-108.0"},{"result":136,"points":2,"place":1,"phase":1,"sequence":24,"times":[568,383,904],"next_num":3,"trial_type":"ticket-choose","trial_index":109,"time_elapsed":810706,"internal_node_id":"0.0-109.0"},{"result":146,"points":2,"place":1,"phase":1,"sequence":25,"times":[557,446,745],"next_num":3,"trial_type":"ticket-choose","trial_index":110,"time_elapsed":814544,"internal_node_id":"0.0-110.0"},{"result":192,"points":1,"place":4,"phase":1,"sequence":26,"times":[600,405,463,423,542,416,446,511,390,1038],"next_num":10,"trial_type":"ticket-choose","trial_index":111,"time_elapsed":823415,"internal_node_id":"0.0-111.0"},{"result":143,"points":3,"place":0,"phase":1,"sequence":27,"times":[1702],"next_num":1,"trial_type":"ticket-choose","trial_index":112,"time_elapsed":827255,"internal_node_id":"0.0-112.0"},{"result":146,"points":2,"place":1,"phase":1,"sequence":28,"times":[4125,1027,812,439,711,455,1017],"next_num":7,"trial_type":"ticket-choose","trial_index":113,"time_elapsed":838794,"internal_node_id":"0.0-113.0"},{"result":146,"points":2,"place":1,"phase":1,"sequence":29,"times":[507,494,712,445,655,528,1167],"next_num":7,"trial_type":"ticket-choose","trial_index":114,"time_elapsed":846298,"internal_node_id":"0.0-114.0"},{"result":138,"points":1,"place":2,"phase":1,"sequence":30,"times":[868,1033],"next_num":2,"trial_type":"ticket-choose","trial_index":115,"time_elapsed":850179,"internal_node_id":"0.0-115.0"},{"result":154,"points":2,"place":1,"phase":1,"sequence":31,"times":[923,585,902],"next_num":3,"trial_type":"ticket-choose","trial_index":116,"time_elapsed":854768,"internal_node_id":"0.0-116.0"},{"result":146,"points":2,"place":1,"phase":1,"sequence":32,"times":[1224,398,1094],"next_num":3,"trial_type":"ticket-choose","trial_index":117,"time_elapsed":859622,"internal_node_id":"0.0-117.0"},{"result":126,"points":3,"place":0,"phase":1,"sequence":33,"times":[626,437,431,350,488,461,647,894,803,748],"next_num":10,"trial_type":"ticket-choose","trial_index":118,"time_elapsed":870460,"internal_node_id":"0.0-118.0"},{"result":154,"points":2,"place":1,"phase":1,"sequence":34,"times":[2246,475,1179],"next_num":3,"trial_type":"ticket-choose","trial_index":119,"time_elapsed":876631,"internal_node_id":"0.0-119.0"},{"result":135,"points":3,"place":0,"phase":1,"sequence":35,"times":[1614,510,3228],"next_num":3,"trial_type":"ticket-choose","trial_index":120,"time_elapsed":884475,"internal_node_id":"0.0-120.0"},{"result":154,"points":2,"place":1,"phase":1,"sequence":36,"times":[1908,542,847],"next_num":3,"trial_type":"ticket-choose","trial_index":121,"time_elapsed":890247,"internal_node_id":"0.0-121.0"},{"result":119,"points":3,"place":0,"phase":1,"sequence":37,"times":[1917,1370],"next_num":2,"trial_type":"ticket-choose","trial_index":122,"time_elapsed":895624,"internal_node_id":"0.0-122.0"},{"result":124,"points":3,"place":0,"phase":1,"sequence":38,"times":[1588,470,414,1277],"next_num":4,"trial_type":"ticket-choose","trial_index":123,"time_elapsed":901852,"internal_node_id":"0.0-123.0"},{"result":150,"points":2,"place":1,"phase":1,"sequence":39,"times":[1156,403,4364],"next_num":3,"trial_type":"ticket-choose","trial_index":124,"time_elapsed":910002,"internal_node_id":"0.0-124.0"},{"result":153,"points":2,"place":1,"phase":1,"sequence":40,"times":[1901,1648],"next_num":2,"trial_type":"ticket-choose","trial_index":125,"time_elapsed":915670,"internal_node_id":"0.0-125.0"},{"result":178,"points":1,"place":4,"phase":1,"sequence":41,"times":[1517,559,623,360,558,558,600,583,776,730],"next_num":10,"trial_type":"ticket-choose","trial_index":126,"time_elapsed":926653,"internal_node_id":"0.0-126.0"},{"result":238,"points":0,"place":8,"phase":1,"sequence":42,"times":[1539,478,546,516,701,453,590,805,415,1545],"next_num":11,"trial_type":"ticket-choose","trial_index":127,"time_elapsed":939591,"internal_node_id":"0.0-127.0"},{"result":105,"points":3,"place":0,"phase":1,"sequence":43,"times":[1753,4459,515,513,926],"next_num":5,"trial_type":"ticket-choose","trial_index":128,"time_elapsed":950574,"internal_node_id":"0.0-128.0"},{"result":154,"points":2,"place":1,"phase":1,"sequence":44,"times":[1551,1974,453,400,486,464,894],"next_num":7,"trial_type":"ticket-choose","trial_index":129,"time_elapsed":959835,"internal_node_id":"0.0-129.0"},{"result":154,"points":2,"place":1,"phase":1,"sequence":45,"times":[642,2088,478,542,1143],"next_num":5,"trial_type":"ticket-choose","trial_index":130,"time_elapsed":967361,"internal_node_id":"0.0-130.0"},{"result":145,"points":2,"place":1,"phase":1,"sequence":46,"times":[919,399,797,885],"next_num":4,"trial_type":"ticket-choose","trial_index":131,"time_elapsed":972728,"internal_node_id":"0.0-131.0"},{"result":146,"points":2,"place":1,"phase":1,"sequence":47,"times":[1491,767,438,447,454,663,985],"next_num":7,"trial_type":"ticket-choose","trial_index":132,"time_elapsed":981017,"internal_node_id":"0.0-132.0"},{"result":136,"points":2,"place":1,"phase":1,"sequence":48,"times":[803,509,534,456,526,480,999],"next_num":7,"trial_type":"ticket-choose","trial_index":133,"time_elapsed":988383,"internal_node_id":"0.0-133.0"},{"result":142,"points":3,"place":0,"phase":1,"sequence":49,"times":[2935],"next_num":1,"trial_type":"ticket-choose","trial_index":134,"time_elapsed":996380,"internal_node_id":"0.0-134.0"},{"responses":[{"value":0,"offby":-1,"category":"$90 - $120","category_index":0},{"value":8,"offby":5,"category":"$121 - $145","category_index":1},{"value":3,"offby":0,"category":"$146 - $170","category_index":2},{"value":6,"offby":0,"category":"$171 - $195","category_index":3},{"value":3,"offby":-1,"category":"$196 - $220","category_index":4},{"value":0,"offby":-2,"category":"$221 - $245","category_index":5},{"value":0,"offby":-1,"category":"$246 - $270","category_index":6}],"phase":1,"number":1,"trial_type":"bar-choose","trial_index":135,"time_elapsed":1022734,"internal_node_id":"0.0-135.0"},{"special_comment":"No","trial_type":"special_sequence","trial_index":136,"time_elapsed":1027631,"internal_node_id":"0.0-136.0"},{"during":"Nothing","bonus":272,"trial_type":"final","trial_index":137,"time_elapsed":1055485,"internal_node_id":"0.0-137.0"}],"bonus":272}