{"start_time":"2017-02-22 10:43:36","end_time":"2017-02-22 11:17:15","points_phase0":108,"points_phase1":106,"phase_order":1,"age":54,"gender":"m","tries":1,"during":"Nothing","worker_id":"A2CF2BD4Q0ZDJN","assignment_id":"35DR22AR5EDXM0FGOZKH911AUGTX3K","data":[{"rt":14284,"url":"\/tickets\/utils\/consent.html","trial_type":"html","trial_index":0,"time_elapsed":14538,"internal_node_id":"0.0-0.0"},{"age":54,"gender":"m","trial_type":"age","trial_index":1,"time_elapsed":19920,"internal_node_id":"0.0-1.0"},{"worker_id":"A2CF2BD4Q0ZDJN","trial_type":"workerid","trial_index":2,"time_elapsed":32007,"internal_node_id":"0.0-2.0"},{"tries":1,"trial_type":"instructions_check","trial_index":3,"time_elapsed":130832,"internal_node_id":"0.0-3.0"},{"rt":9822,"url":"\/tickets\/utils\/start.html","trial_type":"html","trial_index":4,"time_elapsed":141798,"internal_node_id":"0.0-4.0"},{"trial_type":"number-animation","trial_index":5,"time_elapsed":204598,"internal_node_id":"0.0-5.0"},{"phase":0,"sequence":0,"avg":182,"response":165,"trial_type":"training_avg","trial_index":6,"time_elapsed":236399,"internal_node_id":"0.0-6.0"},{"trial_type":"number-animation","trial_index":7,"time_elapsed":286486,"internal_node_id":"0.0-7.0"},{"phase":0,"sequence":1,"avg":188,"response":172,"trial_type":"training_avg","trial_index":8,"time_elapsed":314518,"internal_node_id":"0.0-8.0"},{"trial_type":"number-animation","trial_index":9,"time_elapsed":379717,"internal_node_id":"0.0-9.0"},{"phase":0,"sequence":2,"avg":176,"response":160,"trial_type":"training_avg","trial_index":10,"time_elapsed":393837,"internal_node_id":"0.0-10.0"},{"trial_type":"number-animation","trial_index":11,"time_elapsed":481741,"internal_node_id":"0.0-11.0"},{"phase":0,"sequence":3,"avg":180,"response":187,"trial_type":"training_avg","trial_index":12,"time_elapsed":499413,"internal_node_id":"0.0-12.0"},{"trial_type":"number-animation","trial_index":13,"time_elapsed":578453,"internal_node_id":"0.0-13.0"},{"phase":0,"sequence":4,"avg":174,"response":195,"trial_type":"training_avg","trial_index":14,"time_elapsed":609829,"internal_node_id":"0.0-14.0"},{"responses":[{"value":0,"offby":-1,"category":"$90 - $120","category_index":0},{"value":3,"offby":0,"category":"$121 - $145","category_index":1},{"value":6,"offby":3,"category":"$146 - $170","category_index":2},{"value":7,"offby":1,"category":"$171 - $195","category_index":3},{"value":3,"offby":-1,"category":"$196 - $220","category_index":4},{"value":1,"offby":-1,"category":"$221 - $245","category_index":5},{"value":0,"offby":-1,"category":"$246 - $270","category_index":6}],"phase":0,"number":0,"trial_type":"bar-choose","trial_index":15,"time_elapsed":687012,"internal_node_id":"0.0-15.0"},{"rt":20671,"url":"\/tickets\/\/utils\/testing.html","trial_type":"html","trial_index":16,"time_elapsed":708804,"internal_node_id":"0.0-16.0"},{"phase":0,"order":[14,28,49,13,10,0,24,33,37,46,38,34,17,32,18,3,5,9,6,21,47,16,48,44,43,20,40,22,15,4,12,45,19,29,36,31,2,8,11,30,7,42,35,23,1,39,41,25,26,27],"trial_type":"store_order","trial_index":17,"time_elapsed":709805,"internal_node_id":"0.0-17.0"},{"result":126,"points":3,"place":0,"phase":0,"sequence":-1,"prices":[184,180,224,165,181,199,185,193,218,126],"times":[4705,1974,1189,2605,1678,790,901,919,1283,1438],"next_num":10,"trial_type":"ticket-choose","trial_index":18,"time_elapsed":731828,"internal_node_id":"0.0-18.0"},{"rt":11609,"url":"\/tickets\/utils\/testing_after.html","trial_type":"html","trial_index":19,"time_elapsed":744563,"internal_node_id":"0.0-19.0"},{"result":132,"points":3,"place":0,"phase":0,"sequence":0,"prices":[132,222,144,153,190,248,151,224,228,179],"times":[1919],"next_num":1,"trial_type":"ticket-choose","trial_index":20,"time_elapsed":750572,"internal_node_id":"0.0-20.0"},{"result":136,"points":2,"place":1,"phase":0,"sequence":1,"prices":[173,194,136,239,182,200,174,150,236,127],"times":[1344,733,1381],"next_num":3,"trial_type":"ticket-choose","trial_index":21,"time_elapsed":757292,"internal_node_id":"0.0-21.0"},{"result":188,"points":1,"place":4,"phase":0,"sequence":2,"prices":[142,207,171,182,190,269,180,218,256,188],"times":[2385,717,695,677,774,750,1374,871,926,1262],"next_num":10,"trial_type":"ticket-choose","trial_index":22,"time_elapsed":772603,"internal_node_id":"0.0-22.0"},{"result":124,"points":3,"place":0,"phase":0,"sequence":3,"prices":[124,220,136,165,185,234,143,225,228,179],"times":[1260],"next_num":1,"trial_type":"ticket-choose","trial_index":23,"time_elapsed":776884,"internal_node_id":"0.0-23.0"},{"result":131,"points":2,"place":1,"phase":0,"sequence":4,"prices":[221,234,131,136,132,149,154,90,176,173],"times":[1088,644,1343],"next_num":3,"trial_type":"ticket-choose","trial_index":24,"time_elapsed":782707,"internal_node_id":"0.0-24.0"},{"result":121,"points":3,"place":0,"phase":0,"sequence":5,"prices":[121,191,128,141,166,217,129,196,202,157],"times":[1194],"next_num":1,"trial_type":"ticket-choose","trial_index":25,"time_elapsed":786419,"internal_node_id":"0.0-25.0"},{"result":154,"points":2,"place":1,"phase":0,"sequence":6,"prices":[170,190,176,251,183,192,154,157,236,131],"times":[1440,694,776,778,832,757,1542],"next_num":7,"trial_type":"ticket-choose","trial_index":26,"time_elapsed":796891,"internal_node_id":"0.0-26.0"},{"result":146,"points":2,"place":1,"phase":0,"sequence":7,"prices":[173,191,146,242,178,194,172,152,126,235],"times":[4184,735,1462],"next_num":3,"trial_type":"ticket-choose","trial_index":27,"time_elapsed":805980,"internal_node_id":"0.0-27.0"},{"result":124,"points":3,"place":0,"phase":0,"sequence":8,"prices":[219,183,227,124,176,161,140,129,171,201],"times":[6425,1023,639,1198],"next_num":4,"trial_type":"ticket-choose","trial_index":28,"time_elapsed":818012,"internal_node_id":"0.0-28.0"},{"result":146,"points":2,"place":1,"phase":0,"sequence":9,"prices":[171,195,172,242,179,196,146,150,128,235],"times":[1327,710,829,735,771,782,1366],"next_num":7,"trial_type":"ticket-choose","trial_index":29,"time_elapsed":827875,"internal_node_id":"0.0-29.0"},{"result":146,"points":2,"place":1,"phase":0,"sequence":10,"prices":[168,191,172,240,183,193,146,151,125,238],"times":[9455,670,735,718,751,694,1239],"next_num":7,"trial_type":"ticket-choose","trial_index":30,"time_elapsed":845452,"internal_node_id":"0.0-30.0"},{"result":145,"points":2,"place":1,"phase":0,"sequence":11,"prices":[216,206,158,145,224,185,124,149,175,162],"times":[1336,694,1495,1206],"next_num":4,"trial_type":"ticket-choose","trial_index":31,"time_elapsed":852947,"internal_node_id":"0.0-31.0"},{"result":155,"points":1,"place":2,"phase":0,"sequence":12,"prices":[169,191,154,268,183,197,176,155,236,133],"times":[1361,3278,478,671,694,656,685,1479],"next_num":8,"trial_type":"ticket-choose","trial_index":32,"time_elapsed":865946,"internal_node_id":"0.0-32.0"},{"result":135,"points":3,"place":0,"phase":0,"sequence":13,"prices":[135,202,150,169,183,225,160,211,220,172],"times":[1512],"next_num":1,"trial_type":"ticket-choose","trial_index":33,"time_elapsed":869603,"internal_node_id":"0.0-33.0"},{"result":114,"points":3,"place":0,"phase":0,"sequence":14,"prices":[182,249,159,114,184,205,175,189,172,178],"times":[1304,609,622,1229],"next_num":4,"trial_type":"ticket-choose","trial_index":34,"time_elapsed":876123,"internal_node_id":"0.0-34.0"},{"result":128,"points":3,"place":0,"phase":0,"sequence":15,"prices":[196,221,149,164,216,167,175,128,176,181],"times":[1295,797,565,734,671,794,720,1167],"next_num":8,"trial_type":"ticket-choose","trial_index":35,"time_elapsed":886571,"internal_node_id":"0.0-35.0"},{"result":136,"points":2,"place":1,"phase":0,"sequence":16,"prices":[172,194,174,243,182,193,136,150,237,126],"times":[1104,646,708,685,725,693,1247],"next_num":7,"trial_type":"ticket-choose","trial_index":36,"time_elapsed":895779,"internal_node_id":"0.0-36.0"},{"result":150,"points":3,"place":0,"phase":0,"sequence":17,"prices":[197,153,181,215,150,155,164,247,177,162],"times":[955,1551,739,754,1539],"next_num":5,"trial_type":"ticket-choose","trial_index":37,"time_elapsed":904499,"internal_node_id":"0.0-37.0"},{"result":156,"points":1,"place":2,"phase":0,"sequence":18,"prices":[156,218,212,216,191,210,275,146,174,152],"times":[4991],"next_num":1,"trial_type":"ticket-choose","trial_index":38,"time_elapsed":911515,"internal_node_id":"0.0-38.0"},{"result":117,"points":3,"place":0,"phase":0,"sequence":19,"prices":[117,161,120,147,153,259,144,191,195,149],"times":[1400],"next_num":1,"trial_type":"ticket-choose","trial_index":39,"time_elapsed":914877,"internal_node_id":"0.0-39.0"},{"result":154,"points":2,"place":1,"phase":0,"sequence":20,"prices":[168,192,176,242,183,197,154,156,237,132],"times":[1039,502,647,702,718,685,1222],"next_num":7,"trial_type":"ticket-choose","trial_index":40,"time_elapsed":923876,"internal_node_id":"0.0-40.0"},{"result":146,"points":1,"place":2,"phase":0,"sequence":21,"prices":[186,146,191,179,152,116,140,201,172,187],"times":[1342,1345],"next_num":2,"trial_type":"ticket-choose","trial_index":41,"time_elapsed":928963,"internal_node_id":"0.0-41.0"},{"result":127,"points":3,"place":0,"phase":0,"sequence":22,"prices":[169,194,154,271,178,201,176,158,236,127],"times":[1919,687,1806,677,798,766,789,1269,766,1008],"next_num":10,"trial_type":"ticket-choose","trial_index":42,"time_elapsed":943347,"internal_node_id":"0.0-42.0"},{"result":157,"points":3,"place":0,"phase":0,"sequence":23,"prices":[157,213,159,187,194,242,161,222,225,189],"times":[2438],"next_num":1,"trial_type":"ticket-choose","trial_index":43,"time_elapsed":948155,"internal_node_id":"0.0-43.0"},{"result":154,"points":2,"place":1,"phase":0,"sequence":24,"prices":[244,203,196,189,154,206,197,149,171,159],"times":[1025,685,782,764,1991],"next_num":5,"trial_type":"ticket-choose","trial_index":44,"time_elapsed":956380,"internal_node_id":"0.0-44.0"},{"result":146,"points":2,"place":1,"phase":0,"sequence":25,"prices":[168,191,146,252,183,193,172,153,126,238],"times":[1197,709,1398],"next_num":3,"trial_type":"ticket-choose","trial_index":45,"time_elapsed":962203,"internal_node_id":"0.0-45.0"},{"result":136,"points":2,"place":1,"phase":0,"sequence":26,"prices":[171,192,136,243,182,195,174,154,236,128],"times":[1272,767,1190],"next_num":3,"trial_type":"ticket-choose","trial_index":46,"time_elapsed":967786,"internal_node_id":"0.0-46.0"},{"result":192,"points":1,"place":4,"phase":0,"sequence":27,"prices":[157,205,161,175,197,254,165,210,214,192],"times":[2159,527,702,630,663,645,991,725,807,1006],"next_num":10,"trial_type":"ticket-choose","trial_index":47,"time_elapsed":980675,"internal_node_id":"0.0-47.0"},{"result":136,"points":2,"place":1,"phase":0,"sequence":28,"prices":[171,192,136,265,180,194,174,152,239,127],"times":[1564,767,1196],"next_num":3,"trial_type":"ticket-choose","trial_index":48,"time_elapsed":986627,"internal_node_id":"0.0-48.0"},{"result":136,"points":2,"place":1,"phase":0,"sequence":29,"prices":[169,192,174,246,180,195,136,152,238,126],"times":[3655,678,686,686,717,710,1239],"next_num":7,"trial_type":"ticket-choose","trial_index":49,"time_elapsed":998466,"internal_node_id":"0.0-49.0"},{"result":129,"points":2,"place":1,"phase":0,"sequence":30,"prices":[155,129,164,189,210,108,187,241,174,275],"times":[1592,1205],"next_num":2,"trial_type":"ticket-choose","trial_index":50,"time_elapsed":1003554,"internal_node_id":"0.0-50.0"},{"result":130,"points":2,"place":1,"phase":0,"sequence":31,"prices":[181,130,116,142,157,193,165,218,173,207],"times":[1227,1179],"next_num":2,"trial_type":"ticket-choose","trial_index":51,"time_elapsed":1008162,"internal_node_id":"0.0-51.0"},{"result":154,"points":2,"place":1,"phase":0,"sequence":32,"prices":[170,193,176,245,178,194,154,159,236,126],"times":[831,735,742,751,735,733,1255],"next_num":7,"trial_type":"ticket-choose","trial_index":52,"time_elapsed":1017357,"internal_node_id":"0.0-52.0"},{"result":158,"points":1,"place":2,"phase":0,"sequence":33,"prices":[169,193,154,255,178,194,176,158,239,126],"times":[1182,1102,1598,774,1015,742,1518,1485],"next_num":8,"trial_type":"ticket-choose","trial_index":53,"time_elapsed":1030498,"internal_node_id":"0.0-53.0"},{"result":136,"points":3,"place":0,"phase":0,"sequence":34,"prices":[240,188,273,207,250,136,217,170,171,236],"times":[2585,949,845,893,799,1165],"next_num":6,"trial_type":"ticket-choose","trial_index":54,"time_elapsed":1040882,"internal_node_id":"0.0-54.0"},{"result":105,"points":3,"place":0,"phase":0,"sequence":35,"prices":[263,165,224,214,105,230,215,185,177,193],"times":[1720,1278,670,749,1109],"next_num":5,"trial_type":"ticket-choose","trial_index":55,"time_elapsed":1049209,"internal_node_id":"0.0-55.0"},{"result":146,"points":2,"place":1,"phase":0,"sequence":36,"prices":[172,191,176,272,179,194,146,152,126,235],"times":[1169,813,1606,846,935,741,1279],"next_num":7,"trial_type":"ticket-choose","trial_index":56,"time_elapsed":1059907,"internal_node_id":"0.0-56.0"},{"result":136,"points":2,"place":1,"phase":0,"sequence":37,"prices":[173,191,174,270,180,193,136,153,239,129],"times":[1309,1307,902,709,843,739,1125],"next_num":7,"trial_type":"ticket-choose","trial_index":57,"time_elapsed":1070171,"internal_node_id":"0.0-57.0"},{"result":138,"points":1,"place":2,"phase":0,"sequence":38,"prices":[181,138,118,170,190,101,146,169,175,233],"times":[1078,1173],"next_num":2,"trial_type":"ticket-choose","trial_index":58,"time_elapsed":1074802,"internal_node_id":"0.0-58.0"},{"result":119,"points":3,"place":0,"phase":0,"sequence":39,"prices":[198,119,169,141,195,233,136,208,177,217],"times":[982,1182],"next_num":2,"trial_type":"ticket-choose","trial_index":59,"time_elapsed":1079201,"internal_node_id":"0.0-59.0"},{"result":196,"points":1,"place":4,"phase":0,"sequence":40,"prices":[143,206,153,194,201,267,168,208,210,196],"times":[1231,726,654,720,700,723,1085,751,781,1088],"next_num":10,"trial_type":"ticket-choose","trial_index":60,"time_elapsed":1091666,"internal_node_id":"0.0-60.0"},{"result":135,"points":3,"place":0,"phase":0,"sequence":41,"prices":[221,193,135,188,217,179,196,190,175,159],"times":[1283,917,1134],"next_num":3,"trial_type":"ticket-choose","trial_index":61,"time_elapsed":1097866,"internal_node_id":"0.0-61.0"},{"result":146,"points":2,"place":1,"phase":0,"sequence":42,"prices":[169,193,146,237,180,196,172,150,129,236],"times":[1414,1174,1318],"next_num":3,"trial_type":"ticket-choose","trial_index":62,"time_elapsed":1104193,"internal_node_id":"0.0-62.0"},{"result":136,"points":2,"place":1,"phase":0,"sequence":43,"prices":[170,192,174,242,181,196,136,153,236,128],"times":[9515,798,781,862,1829,8862,990],"next_num":7,"trial_type":"ticket-choose","trial_index":63,"time_elapsed":1131241,"internal_node_id":"0.0-63.0"},{"result":136,"points":2,"place":1,"phase":0,"sequence":44,"prices":[172,190,136,270,179,192,174,152,237,129],"times":[1258,797,1238],"next_num":3,"trial_type":"ticket-choose","trial_index":64,"time_elapsed":1137081,"internal_node_id":"0.0-64.0"},{"result":146,"points":2,"place":1,"phase":0,"sequence":45,"prices":[170,193,146,268,178,195,172,149,126,241],"times":[1392,733,1830],"next_num":3,"trial_type":"ticket-choose","trial_index":65,"time_elapsed":1143617,"internal_node_id":"0.0-65.0"},{"result":137,"points":3,"place":0,"phase":0,"sequence":46,"prices":[137,187,152,156,166,231,155,194,202,160],"times":[1130],"next_num":1,"trial_type":"ticket-choose","trial_index":66,"time_elapsed":1146913,"internal_node_id":"0.0-66.0"},{"result":146,"points":2,"place":1,"phase":0,"sequence":47,"prices":[171,191,172,268,179,194,146,150,127,239],"times":[1575,654,923,761,774,742,1230],"next_num":7,"trial_type":"ticket-choose","trial_index":67,"time_elapsed":1156970,"internal_node_id":"0.0-67.0"},{"result":154,"points":2,"place":1,"phase":0,"sequence":48,"prices":[169,192,176,244,178,194,154,159,237,125],"times":[1688,758,1094,733,798,796,1231],"next_num":7,"trial_type":"ticket-choose","trial_index":68,"time_elapsed":1167377,"internal_node_id":"0.0-68.0"},{"result":154,"points":2,"place":1,"phase":0,"sequence":49,"prices":[168,192,154,237,182,196,176,156,235,133],"times":[3158,695,1391],"next_num":3,"trial_type":"ticket-choose","trial_index":69,"time_elapsed":1175305,"internal_node_id":"0.0-69.0"},{"responses":[{"value":0,"offby":-1,"category":"$90 - $120","category_index":0},{"value":2,"offby":-1,"category":"$121 - $145","category_index":1},{"value":6,"offby":3,"category":"$146 - $170","category_index":2},{"value":8,"offby":2,"category":"$171 - $195","category_index":3},{"value":3,"offby":-1,"category":"$196 - $220","category_index":4},{"value":1,"offby":-1,"category":"$221 - $245","category_index":5},{"value":0,"offby":-1,"category":"$246 - $270","category_index":6}],"phase":0,"number":1,"trial_type":"bar-choose","trial_index":70,"time_elapsed":1219618,"internal_node_id":"0.0-70.0"},{"rt":11323,"url":"\/tickets\/utils\/start2.html","trial_type":"html","trial_index":71,"time_elapsed":1232065,"internal_node_id":"0.0-71.0"},{"trial_type":"number-animation","trial_index":72,"time_elapsed":1330825,"internal_node_id":"0.0-72.0"},{"phase":1,"sequence":0,"avg":181,"response":175,"trial_type":"training_avg","trial_index":73,"time_elapsed":1353450,"internal_node_id":"0.0-73.0"},{"trial_type":"number-animation","trial_index":74,"time_elapsed":1399489,"internal_node_id":"0.0-74.0"},{"phase":1,"sequence":1,"avg":188,"response":185,"trial_type":"training_avg","trial_index":75,"time_elapsed":1408536,"internal_node_id":"0.0-75.0"},{"trial_type":"number-animation","trial_index":76,"time_elapsed":1449176,"internal_node_id":"0.0-76.0"},{"phase":1,"sequence":2,"avg":188,"response":187,"trial_type":"training_avg","trial_index":77,"time_elapsed":1458064,"internal_node_id":"0.0-77.0"},{"trial_type":"number-animation","trial_index":78,"time_elapsed":1500537,"internal_node_id":"0.0-78.0"},{"phase":1,"sequence":3,"avg":177,"response":167,"trial_type":"training_avg","trial_index":79,"time_elapsed":1511657,"internal_node_id":"0.0-79.0"},{"trial_type":"number-animation","trial_index":80,"time_elapsed":1551256,"internal_node_id":"0.0-80.0"},{"phase":1,"sequence":4,"avg":182,"response":183,"trial_type":"training_avg","trial_index":81,"time_elapsed":1563711,"internal_node_id":"0.0-81.0"},{"responses":[{"value":0,"offby":0,"category":"$106 - $134","category_index":0},{"value":2,"offby":1,"category":"$135 - $150","category_index":1},{"value":3,"offby":0,"category":"$151 - $165","category_index":2},{"value":6,"offby":0,"category":"$166 - $180","category_index":3},{"value":5,"offby":-1,"category":"$181 - $195","category_index":4},{"value":3,"offby":0,"category":"$196 - $210","category_index":5},{"value":1,"offby":0,"category":"$211 - $225","category_index":6}],"phase":1,"number":0,"trial_type":"bar-choose","trial_index":82,"time_elapsed":1602818,"internal_node_id":"0.0-82.0"},{"rt":6673,"url":"\/tickets\/utils\/testing2.html","trial_type":"html","trial_index":83,"time_elapsed":1610743,"internal_node_id":"0.0-83.0"},{"phase":1,"order":[25,18,24,26,41,29,13,0,47,5,6,37,9,30,48,36,22,39,38,31,12,49,11,28,45,2,17,27,16,20,35,34,15,10,46,42,4,23,44,40,32,43,1,21,19,3,33,7,14,8],"trial_type":"store_order","trial_index":84,"time_elapsed":1611745,"internal_node_id":"0.0-84.0"},{"result":167,"points":2,"place":1,"phase":1,"sequence":0,"prices":[175,186,178,212,179,187,167,169,209,153],"times":[2348,779,1317,744,926,917,1345],"next_num":7,"trial_type":"ticket-choose","trial_index":85,"time_elapsed":1623783,"internal_node_id":"0.0-85.0"},{"result":169,"points":3,"place":0,"phase":1,"sequence":1,"prices":[169,196,170,184,187,211,171,201,202,185],"times":[1727],"next_num":1,"trial_type":"ticket-choose","trial_index":86,"time_elapsed":1628039,"internal_node_id":"0.0-86.0"},{"result":163,"points":1,"place":2,"phase":1,"sequence":2,"prices":[183,163,185,180,166,148,160,186,176,184],"times":[1229,1111],"next_num":2,"trial_type":"ticket-choose","trial_index":87,"time_elapsed":1632888,"internal_node_id":"0.0-87.0"},{"result":167,"points":2,"place":1,"phase":1,"sequence":3,"prices":[175,185,178,215,181,186,167,168,208,156],"times":[1122,701,726,750,838,686,1166],"next_num":7,"trial_type":"ticket-choose","trial_index":88,"time_elapsed":1642167,"internal_node_id":"0.0-88.0"},{"result":167,"points":2,"place":1,"phase":1,"sequence":4,"prices":[175,186,167,225,179,187,178,169,209,153],"times":[1134,759,1214],"next_num":3,"trial_type":"ticket-choose","trial_index":89,"time_elapsed":1647791,"internal_node_id":"0.0-89.0"},{"result":166,"points":1,"place":2,"phase":1,"sequence":5,"prices":[176,186,163,214,179,187,176,166,153,208],"times":[806,670,549,670,670,614,871,1103],"next_num":8,"trial_type":"ticket-choose","trial_index":90,"time_elapsed":1657231,"internal_node_id":"0.0-90.0"},{"result":161,"points":3,"place":0,"phase":1,"sequence":6,"prices":[161,193,175,181,185,224,180,199,218,184],"times":[1807],"next_num":1,"trial_type":"ticket-choose","trial_index":91,"time_elapsed":1661175,"internal_node_id":"0.0-91.0"},{"result":159,"points":3,"place":0,"phase":1,"sequence":7,"prices":[159,183,166,168,173,205,167,187,191,170],"times":[1273],"next_num":1,"trial_type":"ticket-choose","trial_index":92,"time_elapsed":1664767,"internal_node_id":"0.0-92.0"},{"result":152,"points":3,"place":0,"phase":1,"sequence":8,"prices":[198,193,169,163,202,182,152,164,177,171],"times":[866,631,805,494,658,698,1127],"next_num":7,"trial_type":"ticket-choose","trial_index":93,"time_elapsed":1673295,"internal_node_id":"0.0-93.0"},{"result":158,"points":3,"place":0,"phase":1,"sequence":9,"prices":[210,184,226,193,215,158,199,175,176,208],"times":[6522,844,733,743,710,1062],"next_num":6,"trial_type":"ticket-choose","trial_index":94,"time_elapsed":1687063,"internal_node_id":"0.0-94.0"},{"result":168,"points":1,"place":2,"phase":1,"sequence":10,"prices":[168,199,196,198,185,195,227,163,177,166],"times":[1258],"next_num":1,"trial_type":"ticket-choose","trial_index":95,"time_elapsed":1690359,"internal_node_id":"0.0-95.0"},{"result":155,"points":2,"place":1,"phase":1,"sequence":11,"prices":[181,155,148,161,168,187,172,199,176,194],"times":[951,1070],"next_num":2,"trial_type":"ticket-choose","trial_index":96,"time_elapsed":1694591,"internal_node_id":"0.0-96.0"},{"result":158,"points":2,"place":1,"phase":1,"sequence":12,"prices":[175,186,158,209,181,188,177,167,208,154],"times":[954,629,1286],"next_num":3,"trial_type":"ticket-choose","trial_index":97,"time_elapsed":1699863,"internal_node_id":"0.0-97.0"},{"result":161,"points":3,"place":0,"phase":1,"sequence":13,"prices":[161,193,167,187,190,224,174,194,195,188],"times":[1399],"next_num":1,"trial_type":"ticket-choose","trial_index":98,"time_elapsed":1703673,"internal_node_id":"0.0-98.0"},{"result":165,"points":1,"place":2,"phase":1,"sequence":14,"prices":[176,187,158,210,181,187,177,165,208,153],"times":[990,672,532,646,669,663,629,1079],"next_num":8,"trial_type":"ticket-choose","trial_index":99,"time_elapsed":1713199,"internal_node_id":"0.0-99.0"},{"result":163,"points":2,"place":1,"phase":1,"sequence":15,"prices":[175,186,163,211,179,187,176,165,153,210],"times":[990,686,1271],"next_num":3,"trial_type":"ticket-choose","trial_index":100,"time_elapsed":1718495,"internal_node_id":"0.0-100.0"},{"result":163,"points":2,"place":1,"phase":1,"sequence":16,"prices":[175,187,176,209,180,188,163,165,154,208],"times":[790,574,631,733,941,693,1247],"next_num":7,"trial_type":"ticket-choose","trial_index":101,"time_elapsed":1727479,"internal_node_id":"0.0-101.0"},{"result":167,"points":2,"place":1,"phase":1,"sequence":17,"prices":[175,185,167,224,181,186,178,168,208,156],"times":[912,655,1411],"next_num":3,"trial_type":"ticket-choose","trial_index":102,"time_elapsed":1733014,"internal_node_id":"0.0-102.0"},{"result":163,"points":2,"place":1,"phase":1,"sequence":18,"prices":[174,186,176,217,181,187,163,166,153,209],"times":[1042,1119,686,821,902,950,1174],"next_num":7,"trial_type":"ticket-choose","trial_index":103,"time_elapsed":1742928,"internal_node_id":"0.0-103.0"},{"result":158,"points":2,"place":1,"phase":1,"sequence":19,"prices":[175,186,177,209,181,188,158,167,208,154],"times":[1064,2470,1070,686,806,645,1190],"next_num":7,"trial_type":"ticket-choose","trial_index":104,"time_elapsed":1754033,"internal_node_id":"0.0-104.0"},{"result":152,"points":3,"place":0,"phase":1,"sequence":20,"prices":[200,181,203,152,175,171,160,154,176,191],"times":[3379,1829,711,1262],"next_num":4,"trial_type":"ticket-choose","trial_index":105,"time_elapsed":1764015,"internal_node_id":"0.0-105.0"},{"result":158,"points":2,"place":1,"phase":1,"sequence":21,"prices":[175,186,158,211,180,187,177,166,209,153],"times":[1110,942,1334],"next_num":3,"trial_type":"ticket-choose","trial_index":106,"time_elapsed":1769937,"internal_node_id":"0.0-106.0"},{"result":147,"points":3,"place":0,"phase":1,"sequence":22,"prices":[181,215,169,147,182,193,177,184,176,179],"times":[842,836,1065,1100],"next_num":4,"trial_type":"ticket-choose","trial_index":107,"time_elapsed":1776279,"internal_node_id":"0.0-107.0"},{"result":149,"points":2,"place":1,"phase":1,"sequence":23,"prices":[180,159,149,175,185,141,163,174,178,207],"times":[1187,549,1138],"next_num":3,"trial_type":"ticket-choose","trial_index":108,"time_elapsed":1781511,"internal_node_id":"0.0-108.0"},{"result":157,"points":3,"place":0,"phase":1,"sequence":24,"prices":[201,187,157,184,198,179,188,185,178,170],"times":[801,629,1079],"next_num":3,"trial_type":"ticket-choose","trial_index":109,"time_elapsed":1786288,"internal_node_id":"0.0-109.0"},{"result":158,"points":2,"place":1,"phase":1,"sequence":25,"prices":[175,186,177,221,180,187,158,166,209,153],"times":[675,662,703,759,711,727,1118],"next_num":7,"trial_type":"ticket-choose","trial_index":110,"time_elapsed":1794855,"internal_node_id":"0.0-110.0"},{"result":150,"points":3,"place":0,"phase":1,"sequence":26,"prices":[189,150,175,160,188,207,158,194,178,199],"times":[1047,1046],"next_num":2,"trial_type":"ticket-choose","trial_index":111,"time_elapsed":1799544,"internal_node_id":"0.0-111.0"},{"result":158,"points":2,"place":1,"phase":1,"sequence":27,"prices":[176,187,177,225,181,187,158,165,208,153],"times":[854,614,686,1135,732,719,1025],"next_num":7,"trial_type":"ticket-choose","trial_index":112,"time_elapsed":1808422,"internal_node_id":"0.0-112.0"},{"result":167,"points":2,"place":1,"phase":1,"sequence":28,"prices":[175,187,178,209,179,187,167,169,208,153],"times":[1239,877,806,758,798,727,1710],"next_num":7,"trial_type":"ticket-choose","trial_index":113,"time_elapsed":1818503,"internal_node_id":"0.0-113.0"},{"result":163,"points":2,"place":1,"phase":1,"sequence":29,"prices":[176,186,176,210,179,187,163,166,153,208],"times":[1023,654,902,757,815,710,1039],"next_num":7,"trial_type":"ticket-choose","trial_index":114,"time_elapsed":1827590,"internal_node_id":"0.0-114.0"},{"result":167,"points":2,"place":1,"phase":1,"sequence":30,"prices":[174,186,178,217,181,188,167,168,208,156],"times":[1335,662,710,706,784,726,1157],"next_num":7,"trial_type":"ticket-choose","trial_index":115,"time_elapsed":1836758,"internal_node_id":"0.0-115.0"},{"result":167,"points":2,"place":1,"phase":1,"sequence":31,"prices":[212,192,188,184,167,193,189,164,176,170],"times":[816,815,911,725,1109],"next_num":5,"trial_type":"ticket-choose","trial_index":116,"time_elapsed":1843854,"internal_node_id":"0.0-116.0"},{"result":166,"points":1,"place":2,"phase":1,"sequence":32,"prices":[176,185,158,217,180,186,177,166,209,154],"times":[965,740,685,774,704,660,686,1821],"next_num":8,"trial_type":"ticket-choose","trial_index":117,"time_elapsed":1854390,"internal_node_id":"0.0-117.0"},{"result":150,"points":3,"place":0,"phase":1,"sequence":33,"prices":[150,185,154,161,173,199,155,188,191,168],"times":[1165],"next_num":1,"trial_type":"ticket-choose","trial_index":118,"time_elapsed":1857742,"internal_node_id":"0.0-118.0"},{"result":165,"points":2,"place":1,"phase":1,"sequence":34,"prices":[188,200,165,172,198,174,177,154,177,180],"times":[976,742,2781],"next_num":3,"trial_type":"ticket-choose","trial_index":119,"time_elapsed":1864622,"internal_node_id":"0.0-119.0"},{"result":148,"points":3,"place":0,"phase":1,"sequence":35,"prices":[148,171,150,163,167,220,162,186,187,165],"times":[1168],"next_num":1,"trial_type":"ticket-choose","trial_index":120,"time_elapsed":1867670,"internal_node_id":"0.0-120.0"},{"result":166,"points":1,"place":2,"phase":1,"sequence":36,"prices":[174,186,163,212,181,187,176,166,153,209],"times":[934,678,783,726,725,734,673,1524],"next_num":8,"trial_type":"ticket-choose","trial_index":121,"time_elapsed":1877871,"internal_node_id":"0.0-121.0"},{"result":167,"points":2,"place":1,"phase":1,"sequence":37,"prices":[174,186,167,211,181,188,178,168,208,156],"times":[1206,838,1318],"next_num":3,"trial_type":"ticket-choose","trial_index":122,"time_elapsed":1883646,"internal_node_id":"0.0-122.0"},{"result":167,"points":2,"place":1,"phase":1,"sequence":38,"prices":[175,187,167,212,179,187,178,169,208,153],"times":[896,663,1559],"next_num":3,"trial_type":"ticket-choose","trial_index":123,"time_elapsed":1889078,"internal_node_id":"0.0-123.0"},{"result":157,"points":3,"place":0,"phase":1,"sequence":39,"prices":[157,191,165,175,182,203,170,195,200,176],"times":[1292],"next_num":1,"trial_type":"ticket-choose","trial_index":124,"time_elapsed":1892278,"internal_node_id":"0.0-124.0"},{"result":163,"points":2,"place":1,"phase":1,"sequence":40,"prices":[175,186,176,224,179,187,163,165,153,210],"times":[1001,678,911,714,750,750,1061],"next_num":7,"trial_type":"ticket-choose","trial_index":125,"time_elapsed":1901238,"internal_node_id":"0.0-125.0"},{"result":173,"points":2,"place":1,"phase":1,"sequence":41,"prices":[222,173,202,197,143,205,198,183,178,186],"times":[846,1126],"next_num":2,"trial_type":"ticket-choose","trial_index":126,"time_elapsed":1905414,"internal_node_id":"0.0-126.0"},{"result":168,"points":1,"place":2,"phase":1,"sequence":42,"prices":[168,154,172,185,195,144,184,211,177,227],"times":[1615],"next_num":1,"trial_type":"ticket-choose","trial_index":127,"time_elapsed":1909110,"internal_node_id":"0.0-127.0"},{"result":158,"points":2,"place":1,"phase":1,"sequence":43,"prices":[176,185,177,218,180,186,158,166,209,154],"times":[1390,751,742,733,630,597,2062],"next_num":7,"trial_type":"ticket-choose","trial_index":128,"time_elapsed":1919485,"internal_node_id":"0.0-128.0"},{"result":165,"points":1,"place":2,"phase":1,"sequence":44,"prices":[175,187,163,209,180,188,176,165,154,208],"times":[1194,631,487,669,742,591,662,1453],"next_num":8,"trial_type":"ticket-choose","trial_index":129,"time_elapsed":1929334,"internal_node_id":"0.0-129.0"},{"result":167,"points":2,"place":1,"phase":1,"sequence":45,"prices":[189,167,180,197,165,168,172,213,178,171],"times":[909,1358],"next_num":2,"trial_type":"ticket-choose","trial_index":130,"time_elapsed":1933854,"internal_node_id":"0.0-130.0"},{"result":155,"points":2,"place":1,"phase":1,"sequence":46,"prices":[201,207,155,158,156,165,167,135,178,177],"times":[824,638,1157],"next_num":3,"trial_type":"ticket-choose","trial_index":131,"time_elapsed":1938766,"internal_node_id":"0.0-131.0"},{"result":156,"points":3,"place":0,"phase":1,"sequence":47,"prices":[156,201,162,166,185,214,165,202,204,179],"times":[1221],"next_num":1,"trial_type":"ticket-choose","trial_index":132,"time_elapsed":1941925,"internal_node_id":"0.0-132.0"},{"result":152,"points":3,"place":0,"phase":1,"sequence":48,"prices":[152,200,158,173,182,207,161,202,204,180],"times":[1214],"next_num":1,"trial_type":"ticket-choose","trial_index":133,"time_elapsed":1945046,"internal_node_id":"0.0-133.0"},{"result":186,"points":1,"place":4,"phase":1,"sequence":49,"prices":[168,192,171,178,188,217,172,195,197,186],"times":[1158,639,636,663,638,759,757,717,1079,939],"next_num":10,"trial_type":"ticket-choose","trial_index":134,"time_elapsed":1957031,"internal_node_id":"0.0-134.0"},{"responses":[{"value":0,"offby":0,"category":"$106 - $134","category_index":0},{"value":0,"offby":-1,"category":"$135 - $150","category_index":1},{"value":2,"offby":-1,"category":"$151 - $165","category_index":2},{"value":6,"offby":0,"category":"$166 - $180","category_index":3},{"value":7,"offby":1,"category":"$181 - $195","category_index":4},{"value":2,"offby":-1,"category":"$196 - $210","category_index":5},{"value":0,"offby":-1,"category":"$211 - $225","category_index":6}],"phase":1,"number":1,"trial_type":"bar-choose","trial_index":135,"time_elapsed":1985014,"internal_node_id":"0.0-135.0"},{"special_comment":"no","trial_type":"special_sequence","trial_index":136,"time_elapsed":1991088,"internal_node_id":"0.0-136.0"},{"during":"Nothing","bonus":284,"trial_type":"final","trial_index":137,"time_elapsed":2016464,"internal_node_id":"0.0-137.0"}],"bonus":284}