{"start_time":"2017-02-21 11:33:55","end_time":"2017-02-21 11:52:01","points_phase0":100,"points_phase1":95,"phase_order":0,"age":35,"gender":"f","tries":1,"during":"Nothing","worker_id":"A2CJY4787IR70K","assignment_id":"3ZSANO2JCG0K6V9AEKFWB29FIM8SFI","data":[{"rt":19999,"url":"\/tickets\/utils\/consent.html","trial_type":"html","trial_index":0,"time_elapsed":20331,"internal_node_id":"0.0-0.0"},{"age":35,"gender":"f","trial_type":"age","trial_index":1,"time_elapsed":28344,"internal_node_id":"0.0-1.0"},{"worker_id":"A2CJY4787IR70K","trial_type":"workerid","trial_index":2,"time_elapsed":41731,"internal_node_id":"0.0-2.0"},{"tries":1,"trial_type":"instructions_check","trial_index":3,"time_elapsed":50097,"internal_node_id":"0.0-3.0"},{"rt":1836,"url":"\/tickets\/utils\/start.html","trial_type":"html","trial_index":4,"time_elapsed":53101,"internal_node_id":"0.0-4.0"},{"trial_type":"number-animation","trial_index":5,"time_elapsed":68037,"internal_node_id":"0.0-5.0"},{"phase":0,"sequence":0,"avg":181,"response":165,"trial_type":"training_avg","trial_index":6,"time_elapsed":75672,"internal_node_id":"0.0-6.0"},{"trial_type":"number-animation","trial_index":7,"time_elapsed":85072,"internal_node_id":"0.0-7.0"},{"phase":0,"sequence":1,"avg":188,"response":175,"trial_type":"training_avg","trial_index":8,"time_elapsed":94810,"internal_node_id":"0.0-8.0"},{"trial_type":"number-animation","trial_index":9,"time_elapsed":104529,"internal_node_id":"0.0-9.0"},{"phase":0,"sequence":2,"avg":188,"response":184,"trial_type":"training_avg","trial_index":10,"time_elapsed":113998,"internal_node_id":"0.0-10.0"},{"trial_type":"number-animation","trial_index":11,"time_elapsed":122059,"internal_node_id":"0.0-11.0"},{"phase":0,"sequence":3,"avg":177,"response":183,"trial_type":"training_avg","trial_index":12,"time_elapsed":130715,"internal_node_id":"0.0-12.0"},{"trial_type":"number-animation","trial_index":13,"time_elapsed":139540,"internal_node_id":"0.0-13.0"},{"phase":0,"sequence":4,"avg":182,"response":175,"trial_type":"training_avg","trial_index":14,"time_elapsed":147176,"internal_node_id":"0.0-14.0"},{"responses":[{"value":0,"offby":0,"category":"$106 - $134","category_index":0},{"value":2,"offby":1,"category":"$135 - $150","category_index":1},{"value":7,"offby":4,"category":"$151 - $165","category_index":2},{"value":5,"offby":-1,"category":"$166 - $180","category_index":3},{"value":5,"offby":-1,"category":"$181 - $195","category_index":4},{"value":1,"offby":-2,"category":"$196 - $210","category_index":5},{"value":0,"offby":-1,"category":"$211 - $225","category_index":6}],"phase":0,"number":0,"trial_type":"bar-choose","trial_index":15,"time_elapsed":253665,"internal_node_id":"0.0-15.0"},{"rt":7018,"url":"\/tickets\/\/utils\/testing.html","trial_type":"html","trial_index":16,"time_elapsed":261836,"internal_node_id":"0.0-16.0"},{"phase":0,"order":[42,25,37,4,28,46,24,19,31,33,7,30,36,44,21,47,6,34,5,32,1,26,38,45,40,39,18,2,23,0,9,10,13,27,16,14,11,49,12,48,17,3,15,41,8,20,29,35,43,22],"trial_type":"store_order","trial_index":17,"time_elapsed":262852,"internal_node_id":"0.0-17.0"},{"result":165,"points":2,"place":1,"phase":0,"sequence":-1,"prices":[184,180,224,165,181,199,185,193,218,126],"times":[2910,1658,643,1689],"next_num":4,"trial_type":"ticket-choose","trial_index":18,"time_elapsed":273017,"internal_node_id":"0.0-18.0"},{"rt":3206,"url":"\/tickets\/utils\/testing_after.html","trial_type":"html","trial_index":19,"time_elapsed":277371,"internal_node_id":"0.0-19.0"},{"result":143,"points":3,"place":0,"phase":0,"sequence":0,"prices":[222,173,202,197,143,205,198,183,178,186],"times":[1767,721,631,820,1449],"next_num":5,"trial_type":"ticket-choose","trial_index":20,"time_elapsed":286104,"internal_node_id":"0.0-20.0"},{"result":165,"points":1,"place":2,"phase":0,"sequence":1,"prices":[156,201,162,166,185,214,165,202,204,179],"times":[1407,591,761,606,711,702,1353],"next_num":7,"trial_type":"ticket-choose","trial_index":21,"time_elapsed":295767,"internal_node_id":"0.0-21.0"},{"result":152,"points":3,"place":0,"phase":0,"sequence":2,"prices":[198,193,169,163,202,182,152,164,177,171],"times":[1428,651,671,670,642,729,1048],"next_num":7,"trial_type":"ticket-choose","trial_index":22,"time_elapsed":305218,"internal_node_id":"0.0-22.0"},{"result":163,"points":2,"place":1,"phase":0,"sequence":3,"prices":[176,186,176,210,179,187,163,166,153,208],"times":[1018,580,612,619,701,770,1118],"next_num":7,"trial_type":"ticket-choose","trial_index":23,"time_elapsed":314155,"internal_node_id":"0.0-23.0"},{"result":169,"points":3,"place":0,"phase":0,"sequence":4,"prices":[169,196,170,184,187,211,171,201,202,185],"times":[1459],"next_num":1,"trial_type":"ticket-choose","trial_index":24,"time_elapsed":317987,"internal_node_id":"0.0-24.0"},{"result":158,"points":3,"place":0,"phase":0,"sequence":5,"prices":[210,184,226,193,215,158,199,175,176,208],"times":[1270,602,632,592,1178,1084],"next_num":6,"trial_type":"ticket-choose","trial_index":25,"time_elapsed":326592,"internal_node_id":"0.0-25.0"},{"result":161,"points":3,"place":0,"phase":0,"sequence":6,"prices":[161,193,175,181,185,224,180,199,218,184],"times":[1502],"next_num":1,"trial_type":"ticket-choose","trial_index":26,"time_elapsed":330316,"internal_node_id":"0.0-26.0"},{"result":158,"points":2,"place":1,"phase":0,"sequence":7,"prices":[176,185,158,217,180,186,177,166,209,154],"times":[1262,563,908],"next_num":3,"trial_type":"ticket-choose","trial_index":27,"time_elapsed":335499,"internal_node_id":"0.0-27.0"},{"result":148,"points":3,"place":0,"phase":0,"sequence":8,"prices":[148,171,150,163,167,220,162,186,187,165],"times":[1337],"next_num":1,"trial_type":"ticket-choose","trial_index":28,"time_elapsed":338767,"internal_node_id":"0.0-28.0"},{"result":167,"points":1,"place":2,"phase":0,"sequence":9,"prices":[159,183,166,168,173,205,167,187,191,170],"times":[1086,517,599,610,612,713,1205],"next_num":7,"trial_type":"ticket-choose","trial_index":29,"time_elapsed":347517,"internal_node_id":"0.0-29.0"},{"result":163,"points":2,"place":1,"phase":0,"sequence":10,"prices":[175,186,176,224,179,187,163,165,153,210],"times":[970,642,1405,642,639,648,1293],"next_num":7,"trial_type":"ticket-choose","trial_index":30,"time_elapsed":357320,"internal_node_id":"0.0-30.0"},{"result":157,"points":3,"place":0,"phase":0,"sequence":11,"prices":[157,191,165,175,182,203,170,195,200,176],"times":[1065],"next_num":1,"trial_type":"ticket-choose","trial_index":31,"time_elapsed":360350,"internal_node_id":"0.0-31.0"},{"result":165,"points":2,"place":1,"phase":0,"sequence":12,"prices":[188,200,165,172,198,174,177,154,177,180],"times":[1321,718,898],"next_num":3,"trial_type":"ticket-choose","trial_index":32,"time_elapsed":365717,"internal_node_id":"0.0-32.0"},{"result":159,"points":1,"place":2,"phase":0,"sequence":13,"prices":[180,159,149,175,185,141,163,174,178,207],"times":[1437,869],"next_num":2,"trial_type":"ticket-choose","trial_index":33,"time_elapsed":370313,"internal_node_id":"0.0-33.0"},{"result":158,"points":2,"place":1,"phase":0,"sequence":14,"prices":[175,186,177,209,181,188,158,167,208,154],"times":[1049,569,580,624,589,563,988],"next_num":7,"trial_type":"ticket-choose","trial_index":34,"time_elapsed":378522,"internal_node_id":"0.0-34.0"},{"result":152,"points":3,"place":0,"phase":0,"sequence":15,"prices":[200,181,203,152,175,171,160,154,176,191],"times":[968,760,671,1197],"next_num":4,"trial_type":"ticket-choose","trial_index":35,"time_elapsed":384801,"internal_node_id":"0.0-35.0"},{"result":163,"points":2,"place":1,"phase":0,"sequence":16,"prices":[174,186,176,217,181,187,163,166,153,209],"times":[1165,628,595,601,580,542,1106],"next_num":7,"trial_type":"ticket-choose","trial_index":36,"time_elapsed":393448,"internal_node_id":"0.0-36.0"},{"result":155,"points":2,"place":1,"phase":0,"sequence":17,"prices":[181,155,148,161,168,187,172,199,176,194],"times":[1000,1038],"next_num":2,"trial_type":"ticket-choose","trial_index":37,"time_elapsed":397783,"internal_node_id":"0.0-37.0"},{"result":163,"points":2,"place":1,"phase":0,"sequence":18,"prices":[175,187,176,209,180,188,163,165,154,208],"times":[1043,612,571,788,792,658,958],"next_num":7,"trial_type":"ticket-choose","trial_index":38,"time_elapsed":406727,"internal_node_id":"0.0-38.0"},{"result":161,"points":3,"place":0,"phase":0,"sequence":19,"prices":[161,193,167,187,190,224,174,194,195,188],"times":[1404],"next_num":1,"trial_type":"ticket-choose","trial_index":39,"time_elapsed":410291,"internal_node_id":"0.0-39.0"},{"result":163,"points":2,"place":1,"phase":0,"sequence":20,"prices":[175,187,163,209,180,188,176,165,154,208],"times":[1186,745,1009],"next_num":3,"trial_type":"ticket-choose","trial_index":40,"time_elapsed":416184,"internal_node_id":"0.0-40.0"},{"result":152,"points":3,"place":0,"phase":0,"sequence":21,"prices":[152,200,158,173,182,207,161,202,204,180],"times":[1908],"next_num":1,"trial_type":"ticket-choose","trial_index":41,"time_elapsed":421659,"internal_node_id":"0.0-41.0"},{"result":163,"points":3,"place":0,"phase":0,"sequence":22,"prices":[168,199,196,198,185,195,227,163,177,166],"times":[1469,622,583,549,778,620,731,1227],"next_num":8,"trial_type":"ticket-choose","trial_index":42,"time_elapsed":432292,"internal_node_id":"0.0-42.0"},{"result":167,"points":2,"place":1,"phase":0,"sequence":23,"prices":[212,192,188,184,167,193,189,164,176,170],"times":[1601,796,677,738,1396],"next_num":5,"trial_type":"ticket-choose","trial_index":43,"time_elapsed":440515,"internal_node_id":"0.0-43.0"},{"result":150,"points":3,"place":0,"phase":0,"sequence":24,"prices":[189,150,175,160,188,207,158,194,178,199],"times":[811,957],"next_num":2,"trial_type":"ticket-choose","trial_index":44,"time_elapsed":444628,"internal_node_id":"0.0-44.0"},{"result":167,"points":2,"place":1,"phase":0,"sequence":25,"prices":[189,167,180,197,165,168,172,213,178,171],"times":[793,1717],"next_num":2,"trial_type":"ticket-choose","trial_index":45,"time_elapsed":449349,"internal_node_id":"0.0-45.0"},{"result":165,"points":1,"place":2,"phase":0,"sequence":26,"prices":[176,187,158,210,181,187,177,165,208,153],"times":[767,662,918,532,652,580,664,1035],"next_num":8,"trial_type":"ticket-choose","trial_index":46,"time_elapsed":458611,"internal_node_id":"0.0-46.0"},{"result":166,"points":1,"place":2,"phase":0,"sequence":27,"prices":[174,186,163,212,181,187,176,166,153,209],"times":[713,677,640,651,614,611,661,1387],"next_num":8,"trial_type":"ticket-choose","trial_index":47,"time_elapsed":469118,"internal_node_id":"0.0-47.0"},{"result":158,"points":2,"place":1,"phase":0,"sequence":28,"prices":[176,185,177,218,180,186,158,166,209,154],"times":[904,968,967,722,669,850,1018],"next_num":7,"trial_type":"ticket-choose","trial_index":48,"time_elapsed":478494,"internal_node_id":"0.0-48.0"},{"result":163,"points":2,"place":1,"phase":0,"sequence":29,"prices":[176,186,163,214,179,187,176,166,153,208],"times":[2032,690,928],"next_num":3,"trial_type":"ticket-choose","trial_index":49,"time_elapsed":484663,"internal_node_id":"0.0-49.0"},{"result":175,"points":1,"place":3,"phase":0,"sequence":30,"prices":[175,185,167,224,181,186,178,168,208,156],"times":[1211],"next_num":1,"trial_type":"ticket-choose","trial_index":50,"time_elapsed":487793,"internal_node_id":"0.0-50.0"},{"result":175,"points":1,"place":3,"phase":0,"sequence":31,"prices":[175,186,167,225,179,187,178,169,209,153],"times":[1162],"next_num":1,"trial_type":"ticket-choose","trial_index":51,"time_elapsed":490924,"internal_node_id":"0.0-51.0"},{"result":168,"points":1,"place":2,"phase":0,"sequence":32,"prices":[175,185,178,215,181,186,167,168,208,156],"times":[735,618,616,702,612,596,573,929],"next_num":8,"trial_type":"ticket-choose","trial_index":52,"time_elapsed":499716,"internal_node_id":"0.0-52.0"},{"result":168,"points":3,"place":0,"phase":0,"sequence":33,"prices":[168,192,171,178,188,217,172,195,197,186],"times":[892],"next_num":1,"trial_type":"ticket-choose","trial_index":53,"time_elapsed":502567,"internal_node_id":"0.0-53.0"},{"result":158,"points":2,"place":1,"phase":0,"sequence":34,"prices":[175,186,158,211,180,187,177,166,209,153],"times":[1360,743,861],"next_num":3,"trial_type":"ticket-choose","trial_index":54,"time_elapsed":507924,"internal_node_id":"0.0-54.0"},{"result":179,"points":0,"place":5,"phase":0,"sequence":35,"prices":[175,186,178,212,179,187,167,169,209,153],"times":[852,602,642,737,814],"next_num":5,"trial_type":"ticket-choose","trial_index":55,"time_elapsed":514312,"internal_node_id":"0.0-55.0"},{"result":169,"points":1,"place":2,"phase":0,"sequence":36,"prices":[175,187,167,212,179,187,178,169,208,153],"times":[548,594,486,663,702,608,632,1194],"next_num":8,"trial_type":"ticket-choose","trial_index":56,"time_elapsed":523050,"internal_node_id":"0.0-56.0"},{"result":163,"points":1,"place":2,"phase":0,"sequence":37,"prices":[183,163,185,180,166,148,160,186,176,184],"times":[799,869],"next_num":2,"trial_type":"ticket-choose","trial_index":57,"time_elapsed":527137,"internal_node_id":"0.0-57.0"},{"result":167,"points":2,"place":1,"phase":0,"sequence":38,"prices":[174,186,178,217,181,188,167,168,208,156],"times":[882,719,1059,671,592,539,977],"next_num":7,"trial_type":"ticket-choose","trial_index":58,"time_elapsed":535754,"internal_node_id":"0.0-58.0"},{"result":169,"points":2,"place":1,"phase":0,"sequence":39,"prices":[181,215,169,147,182,193,177,184,176,179],"times":[847,710,849],"next_num":3,"trial_type":"ticket-choose","trial_index":59,"time_elapsed":540408,"internal_node_id":"0.0-59.0"},{"result":158,"points":2,"place":1,"phase":0,"sequence":40,"prices":[175,186,158,209,181,188,177,167,208,154],"times":[931,771,859],"next_num":3,"trial_type":"ticket-choose","trial_index":60,"time_elapsed":545163,"internal_node_id":"0.0-60.0"},{"result":163,"points":2,"place":1,"phase":0,"sequence":41,"prices":[175,186,163,211,179,187,176,165,153,210],"times":[705,697,810],"next_num":3,"trial_type":"ticket-choose","trial_index":61,"time_elapsed":549599,"internal_node_id":"0.0-61.0"},{"result":175,"points":1,"place":3,"phase":0,"sequence":42,"prices":[175,187,178,209,179,187,167,169,208,153],"times":[1082],"next_num":1,"trial_type":"ticket-choose","trial_index":62,"time_elapsed":552522,"internal_node_id":"0.0-62.0"},{"result":155,"points":2,"place":1,"phase":0,"sequence":43,"prices":[201,207,155,158,156,165,167,135,178,177],"times":[1007,621,949],"next_num":3,"trial_type":"ticket-choose","trial_index":63,"time_elapsed":557286,"internal_node_id":"0.0-63.0"},{"result":167,"points":2,"place":1,"phase":0,"sequence":44,"prices":[174,186,167,211,181,188,178,168,208,156],"times":[1021,592,929],"next_num":3,"trial_type":"ticket-choose","trial_index":64,"time_elapsed":562107,"internal_node_id":"0.0-64.0"},{"result":158,"points":2,"place":1,"phase":0,"sequence":45,"prices":[175,186,177,221,180,187,158,166,209,153],"times":[1342,589,609,613,621,635,996],"next_num":7,"trial_type":"ticket-choose","trial_index":65,"time_elapsed":570795,"internal_node_id":"0.0-65.0"},{"result":150,"points":3,"place":0,"phase":0,"sequence":46,"prices":[150,185,154,161,173,199,155,188,191,168],"times":[1105],"next_num":1,"trial_type":"ticket-choose","trial_index":66,"time_elapsed":573875,"internal_node_id":"0.0-66.0"},{"result":168,"points":1,"place":2,"phase":0,"sequence":47,"prices":[168,154,172,185,195,144,184,211,177,227],"times":[1276],"next_num":1,"trial_type":"ticket-choose","trial_index":67,"time_elapsed":577530,"internal_node_id":"0.0-67.0"},{"result":157,"points":3,"place":0,"phase":0,"sequence":48,"prices":[201,187,157,184,198,179,188,185,178,170],"times":[1066,622,988],"next_num":3,"trial_type":"ticket-choose","trial_index":68,"time_elapsed":582789,"internal_node_id":"0.0-68.0"},{"result":176,"points":1,"place":3,"phase":0,"sequence":49,"prices":[176,187,177,225,181,187,158,165,208,153],"times":[1502],"next_num":1,"trial_type":"ticket-choose","trial_index":69,"time_elapsed":586563,"internal_node_id":"0.0-69.0"},{"responses":[{"value":0,"offby":0,"category":"$106 - $134","category_index":0},{"value":5,"offby":4,"category":"$135 - $150","category_index":1},{"value":5,"offby":2,"category":"$151 - $165","category_index":2},{"value":5,"offby":-1,"category":"$166 - $180","category_index":3},{"value":5,"offby":-1,"category":"$181 - $195","category_index":4},{"value":0,"offby":-3,"category":"$196 - $210","category_index":5},{"value":0,"offby":-1,"category":"$211 - $225","category_index":6}],"phase":0,"number":1,"trial_type":"bar-choose","trial_index":70,"time_elapsed":606108,"internal_node_id":"0.0-70.0"},{"rt":4907,"url":"\/tickets\/utils\/start2.html","trial_type":"html","trial_index":71,"time_elapsed":612632,"internal_node_id":"0.0-71.0"},{"trial_type":"number-animation","trial_index":72,"time_elapsed":620418,"internal_node_id":"0.0-72.0"},{"phase":1,"sequence":0,"avg":182,"response":152,"trial_type":"training_avg","trial_index":73,"time_elapsed":626698,"internal_node_id":"0.0-73.0"},{"trial_type":"number-animation","trial_index":74,"time_elapsed":633790,"internal_node_id":"0.0-74.0"},{"phase":1,"sequence":1,"avg":188,"response":182,"trial_type":"training_avg","trial_index":75,"time_elapsed":641557,"internal_node_id":"0.0-75.0"},{"trial_type":"number-animation","trial_index":76,"time_elapsed":648524,"internal_node_id":"0.0-76.0"},{"phase":1,"sequence":2,"avg":176,"response":175,"trial_type":"training_avg","trial_index":77,"time_elapsed":654040,"internal_node_id":"0.0-77.0"},{"trial_type":"number-animation","trial_index":78,"time_elapsed":660896,"internal_node_id":"0.0-78.0"},{"phase":1,"sequence":3,"avg":180,"response":169,"trial_type":"training_avg","trial_index":79,"time_elapsed":665929,"internal_node_id":"0.0-79.0"},{"trial_type":"number-animation","trial_index":80,"time_elapsed":673122,"internal_node_id":"0.0-80.0"},{"phase":1,"sequence":4,"avg":174,"response":172,"trial_type":"training_avg","trial_index":81,"time_elapsed":682246,"internal_node_id":"0.0-81.0"},{"responses":[{"value":0,"offby":-1,"category":"$90 - $120","category_index":0},{"value":5,"offby":2,"category":"$121 - $145","category_index":1},{"value":6,"offby":3,"category":"$146 - $170","category_index":2},{"value":5,"offby":-1,"category":"$171 - $195","category_index":3},{"value":2,"offby":-2,"category":"$196 - $220","category_index":4},{"value":2,"offby":0,"category":"$221 - $245","category_index":5},{"value":0,"offby":-1,"category":"$246 - $270","category_index":6}],"phase":1,"number":0,"trial_type":"bar-choose","trial_index":82,"time_elapsed":709822,"internal_node_id":"0.0-82.0"},{"rt":2695,"url":"\/tickets\/utils\/testing2.html","trial_type":"html","trial_index":83,"time_elapsed":713695,"internal_node_id":"0.0-83.0"},{"phase":1,"order":[17,38,36,18,16,6,23,27,8,10,3,29,2,37,0,20,34,44,32,35,21,43,19,31,47,11,9,40,13,41,28,25,24,42,7,48,4,30,45,49,5,14,1,26,46,15,22,39,12,33],"trial_type":"store_order","trial_index":84,"time_elapsed":714699,"internal_node_id":"0.0-84.0"},{"result":171,"points":1,"place":3,"phase":1,"sequence":0,"prices":[171,192,136,243,182,195,174,154,236,128],"times":[3696],"next_num":1,"trial_type":"ticket-choose","trial_index":85,"time_elapsed":720740,"internal_node_id":"0.0-85.0"},{"result":156,"points":1,"place":2,"phase":1,"sequence":1,"prices":[156,218,212,216,191,210,275,146,174,152],"times":[1194],"next_num":1,"trial_type":"ticket-choose","trial_index":86,"time_elapsed":723882,"internal_node_id":"0.0-86.0"},{"result":149,"points":2,"place":1,"phase":1,"sequence":2,"prices":[196,221,149,164,216,167,175,128,176,181],"times":[947,670,947],"next_num":3,"trial_type":"ticket-choose","trial_index":87,"time_elapsed":728984,"internal_node_id":"0.0-87.0"},{"result":136,"points":2,"place":1,"phase":1,"sequence":3,"prices":[173,194,136,239,182,200,174,150,236,127],"times":[865,1420,751],"next_num":3,"trial_type":"ticket-choose","trial_index":88,"time_elapsed":734485,"internal_node_id":"0.0-88.0"},{"result":171,"points":1,"place":3,"phase":1,"sequence":4,"prices":[171,192,136,265,180,194,174,152,239,127],"times":[1090],"next_num":1,"trial_type":"ticket-choose","trial_index":89,"time_elapsed":737479,"internal_node_id":"0.0-89.0"},{"result":168,"points":1,"place":3,"phase":1,"sequence":5,"prices":[168,191,172,240,183,193,146,151,125,238],"times":[767],"next_num":1,"trial_type":"ticket-choose","trial_index":90,"time_elapsed":740092,"internal_node_id":"0.0-90.0"},{"result":173,"points":1,"place":3,"phase":1,"sequence":6,"prices":[173,191,174,270,180,193,136,153,239,129],"times":[835],"next_num":1,"trial_type":"ticket-choose","trial_index":91,"time_elapsed":742756,"internal_node_id":"0.0-91.0"},{"result":157,"points":3,"place":0,"phase":1,"sequence":7,"prices":[157,205,161,175,197,254,165,210,214,192],"times":[872],"next_num":1,"trial_type":"ticket-choose","trial_index":92,"time_elapsed":745431,"internal_node_id":"0.0-92.0"},{"result":168,"points":1,"place":3,"phase":1,"sequence":8,"prices":[168,192,154,237,182,196,176,156,235,133],"times":[1037],"next_num":1,"trial_type":"ticket-choose","trial_index":93,"time_elapsed":748208,"internal_node_id":"0.0-93.0"},{"result":169,"points":1,"place":3,"phase":1,"sequence":9,"prices":[169,193,154,255,178,194,176,158,239,126],"times":[1030],"next_num":1,"trial_type":"ticket-choose","trial_index":94,"time_elapsed":751081,"internal_node_id":"0.0-94.0"},{"result":170,"points":1,"place":3,"phase":1,"sequence":10,"prices":[170,193,146,268,178,195,172,149,126,241],"times":[965],"next_num":1,"trial_type":"ticket-choose","trial_index":95,"time_elapsed":754627,"internal_node_id":"0.0-95.0"},{"result":121,"points":3,"place":0,"phase":1,"sequence":11,"prices":[121,191,128,141,166,217,129,196,202,157],"times":[878],"next_num":1,"trial_type":"ticket-choose","trial_index":96,"time_elapsed":757223,"internal_node_id":"0.0-96.0"},{"result":168,"points":1,"place":3,"phase":1,"sequence":12,"prices":[168,191,146,252,183,193,172,153,126,238],"times":[936],"next_num":1,"trial_type":"ticket-choose","trial_index":97,"time_elapsed":760054,"internal_node_id":"0.0-97.0"},{"result":216,"points":0,"place":8,"phase":1,"sequence":13,"prices":[216,206,158,145,224,185,124,149,175,162],"times":[779],"next_num":1,"trial_type":"ticket-choose","trial_index":98,"time_elapsed":762630,"internal_node_id":"0.0-98.0"},{"result":146,"points":2,"place":1,"phase":1,"sequence":14,"prices":[173,191,146,242,178,194,172,152,126,235],"times":[1058,600,784],"next_num":3,"trial_type":"ticket-choose","trial_index":99,"time_elapsed":767289,"internal_node_id":"0.0-99.0"},{"result":169,"points":1,"place":3,"phase":1,"sequence":15,"prices":[169,192,174,246,180,195,136,152,238,126],"times":[1019],"next_num":1,"trial_type":"ticket-choose","trial_index":100,"time_elapsed":770190,"internal_node_id":"0.0-100.0"},{"result":116,"points":3,"place":0,"phase":1,"sequence":16,"prices":[181,130,116,142,157,193,165,218,173,207],"times":[1101,739,950],"next_num":3,"trial_type":"ticket-choose","trial_index":101,"time_elapsed":775353,"internal_node_id":"0.0-101.0"},{"result":138,"points":1,"place":2,"phase":1,"sequence":17,"prices":[181,138,118,170,190,101,146,169,175,233],"times":[942,800],"next_num":2,"trial_type":"ticket-choose","trial_index":102,"time_elapsed":779141,"internal_node_id":"0.0-102.0"},{"result":143,"points":3,"place":0,"phase":1,"sequence":18,"prices":[143,206,153,194,201,267,168,208,210,196],"times":[945],"next_num":1,"trial_type":"ticket-choose","trial_index":103,"time_elapsed":782051,"internal_node_id":"0.0-103.0"},{"result":155,"points":1,"place":2,"phase":1,"sequence":19,"prices":[155,129,164,189,210,108,187,241,174,275],"times":[3913],"next_num":1,"trial_type":"ticket-choose","trial_index":104,"time_elapsed":788029,"internal_node_id":"0.0-104.0"},{"result":153,"points":1,"place":2,"phase":1,"sequence":20,"prices":[170,192,174,242,181,196,136,153,236,128],"times":[1198,712,714,659,758,710,642,1157],"next_num":8,"trial_type":"ticket-choose","trial_index":105,"time_elapsed":798291,"internal_node_id":"0.0-105.0"},{"result":135,"points":3,"place":0,"phase":1,"sequence":21,"prices":[221,193,135,188,217,179,196,190,175,159],"times":[1507,860,830],"next_num":3,"trial_type":"ticket-choose","trial_index":106,"time_elapsed":804094,"internal_node_id":"0.0-106.0"},{"result":136,"points":2,"place":1,"phase":1,"sequence":22,"prices":[172,190,136,270,179,192,174,152,237,129],"times":[850,778,852],"next_num":3,"trial_type":"ticket-choose","trial_index":107,"time_elapsed":840249,"internal_node_id":"0.0-107.0"},{"result":117,"points":3,"place":0,"phase":1,"sequence":23,"prices":[117,161,120,147,153,259,144,191,195,149],"times":[2910],"next_num":1,"trial_type":"ticket-choose","trial_index":108,"time_elapsed":846176,"internal_node_id":"0.0-108.0"},{"result":124,"points":3,"place":0,"phase":1,"sequence":24,"prices":[219,183,227,124,176,161,140,129,171,201],"times":[1548,1001,662,1026],"next_num":4,"trial_type":"ticket-choose","trial_index":109,"time_elapsed":852956,"internal_node_id":"0.0-109.0"},{"result":154,"points":2,"place":1,"phase":1,"sequence":25,"prices":[169,194,154,271,178,201,176,158,236,127],"times":[1498,484,986],"next_num":3,"trial_type":"ticket-choose","trial_index":110,"time_elapsed":858317,"internal_node_id":"0.0-110.0"},{"result":155,"points":1,"place":2,"phase":1,"sequence":26,"prices":[169,191,154,268,183,197,176,155,236,133],"times":[1268,472,542,495,688,612,890,910],"next_num":8,"trial_type":"ticket-choose","trial_index":111,"time_elapsed":867799,"internal_node_id":"0.0-111.0"},{"result":119,"points":3,"place":0,"phase":1,"sequence":27,"prices":[198,119,169,141,195,233,136,208,177,217],"times":[937,953],"next_num":2,"trial_type":"ticket-choose","trial_index":112,"time_elapsed":871753,"internal_node_id":"0.0-112.0"},{"result":154,"points":2,"place":1,"phase":1,"sequence":28,"prices":[170,190,176,251,183,192,154,157,236,131],"times":[922,671,681,711,732,770,1060],"next_num":7,"trial_type":"ticket-choose","trial_index":113,"time_elapsed":880561,"internal_node_id":"0.0-113.0"},{"result":131,"points":2,"place":1,"phase":1,"sequence":29,"prices":[221,234,131,136,132,149,154,90,176,173],"times":[823,673,1386],"next_num":3,"trial_type":"ticket-choose","trial_index":114,"time_elapsed":885843,"internal_node_id":"0.0-114.0"},{"result":161,"points":1,"place":2,"phase":1,"sequence":30,"prices":[157,213,159,187,194,242,161,222,225,189],"times":[844,732,710,671,633,668,1386],"next_num":7,"trial_type":"ticket-choose","trial_index":115,"time_elapsed":895040,"internal_node_id":"0.0-115.0"},{"result":132,"points":3,"place":0,"phase":1,"sequence":31,"prices":[132,222,144,153,190,248,151,224,228,179],"times":[1020],"next_num":1,"trial_type":"ticket-choose","trial_index":116,"time_elapsed":898239,"internal_node_id":"0.0-116.0"},{"result":142,"points":3,"place":0,"phase":1,"sequence":32,"prices":[142,207,171,182,190,269,180,218,256,188],"times":[1224],"next_num":1,"trial_type":"ticket-choose","trial_index":117,"time_elapsed":901835,"internal_node_id":"0.0-117.0"},{"result":165,"points":2,"place":1,"phase":1,"sequence":33,"prices":[263,165,224,214,105,230,215,185,177,193],"times":[1271,920],"next_num":2,"trial_type":"ticket-choose","trial_index":118,"time_elapsed":906424,"internal_node_id":"0.0-118.0"},{"result":146,"points":2,"place":1,"phase":1,"sequence":34,"prices":[171,191,172,268,179,194,146,150,127,239],"times":[1713,590,1363,632,661,652,1008],"next_num":7,"trial_type":"ticket-choose","trial_index":119,"time_elapsed":916470,"internal_node_id":"0.0-119.0"},{"result":159,"points":2,"place":1,"phase":1,"sequence":35,"prices":[182,249,159,114,184,205,175,189,172,178],"times":[1486,672,1158],"next_num":3,"trial_type":"ticket-choose","trial_index":120,"time_elapsed":922464,"internal_node_id":"0.0-120.0"},{"result":146,"points":2,"place":1,"phase":1,"sequence":36,"prices":[172,191,176,272,179,194,146,152,126,235],"times":[2368,770,800,630,703,662,1307],"next_num":7,"trial_type":"ticket-choose","trial_index":121,"time_elapsed":933106,"internal_node_id":"0.0-121.0"},{"result":135,"points":3,"place":0,"phase":1,"sequence":37,"prices":[135,202,150,169,183,225,160,211,220,172],"times":[1237],"next_num":1,"trial_type":"ticket-choose","trial_index":122,"time_elapsed":936644,"internal_node_id":"0.0-122.0"},{"result":149,"points":3,"place":0,"phase":1,"sequence":38,"prices":[244,203,196,189,154,206,197,149,171,159],"times":[1135,789,750,702,661,583,680,1355],"next_num":8,"trial_type":"ticket-choose","trial_index":123,"time_elapsed":946741,"internal_node_id":"0.0-123.0"},{"result":146,"points":1,"place":2,"phase":1,"sequence":39,"prices":[186,146,191,179,152,116,140,201,172,187],"times":[1134,1284],"next_num":2,"trial_type":"ticket-choose","trial_index":124,"time_elapsed":951162,"internal_node_id":"0.0-124.0"},{"result":146,"points":2,"place":1,"phase":1,"sequence":40,"prices":[171,195,172,242,179,196,146,150,128,235],"times":[1734,710,651,502,503,742,1407],"next_num":7,"trial_type":"ticket-choose","trial_index":125,"time_elapsed":961017,"internal_node_id":"0.0-125.0"},{"result":169,"points":1,"place":3,"phase":1,"sequence":41,"prices":[169,192,176,244,178,194,154,159,237,125],"times":[1167],"next_num":1,"trial_type":"ticket-choose","trial_index":126,"time_elapsed":964057,"internal_node_id":"0.0-126.0"},{"result":150,"points":1,"place":2,"phase":1,"sequence":42,"prices":[169,193,146,237,180,196,172,150,129,236],"times":[918,559,464,602,502,632,725,1166],"next_num":8,"trial_type":"ticket-choose","trial_index":127,"time_elapsed":973332,"internal_node_id":"0.0-127.0"},{"result":124,"points":3,"place":0,"phase":1,"sequence":43,"prices":[124,220,136,165,185,234,143,225,228,179],"times":[1103],"next_num":1,"trial_type":"ticket-choose","trial_index":128,"time_elapsed":976595,"internal_node_id":"0.0-128.0"},{"result":136,"points":3,"place":0,"phase":1,"sequence":44,"prices":[240,188,273,207,250,136,217,170,171,236],"times":[1117,744,702,702,741,1001],"next_num":6,"trial_type":"ticket-choose","trial_index":129,"time_elapsed":984974,"internal_node_id":"0.0-129.0"},{"result":154,"points":2,"place":1,"phase":1,"sequence":45,"prices":[170,193,176,245,178,194,154,159,236,126],"times":[840,1047,720,1068,612,722,1261],"next_num":7,"trial_type":"ticket-choose","trial_index":130,"time_elapsed":994481,"internal_node_id":"0.0-130.0"},{"result":136,"points":2,"place":1,"phase":1,"sequence":46,"prices":[172,194,174,243,182,193,136,150,237,126],"times":[804,702,871,928,781,723,998],"next_num":7,"trial_type":"ticket-choose","trial_index":131,"time_elapsed":1003443,"internal_node_id":"0.0-131.0"},{"result":153,"points":2,"place":1,"phase":1,"sequence":47,"prices":[197,153,181,215,150,155,164,247,177,162],"times":[1097,976],"next_num":2,"trial_type":"ticket-choose","trial_index":132,"time_elapsed":1008240,"internal_node_id":"0.0-132.0"},{"result":154,"points":2,"place":1,"phase":1,"sequence":48,"prices":[168,192,176,242,183,197,154,156,237,132],"times":[741,701,703,691,1514,925,1343],"next_num":7,"trial_type":"ticket-choose","trial_index":133,"time_elapsed":1018618,"internal_node_id":"0.0-133.0"},{"result":137,"points":3,"place":0,"phase":1,"sequence":49,"prices":[137,187,152,156,166,231,155,194,202,160],"times":[1318],"next_num":1,"trial_type":"ticket-choose","trial_index":134,"time_elapsed":1023372,"internal_node_id":"0.0-134.0"},{"responses":[{"value":0,"offby":-1,"category":"$90 - $120","category_index":0},{"value":3,"offby":0,"category":"$121 - $145","category_index":1},{"value":5,"offby":2,"category":"$146 - $170","category_index":2},{"value":6,"offby":0,"category":"$171 - $195","category_index":3},{"value":4,"offby":0,"category":"$196 - $220","category_index":4},{"value":2,"offby":0,"category":"$221 - $245","category_index":5},{"value":0,"offby":-1,"category":"$246 - $270","category_index":6}],"phase":1,"number":1,"trial_type":"bar-choose","trial_index":135,"time_elapsed":1052657,"internal_node_id":"0.0-135.0"},{"special_comment":"no","trial_type":"special_sequence","trial_index":136,"time_elapsed":1057638,"internal_node_id":"0.0-136.0"},{"during":"Nothing","bonus":260,"trial_type":"final","trial_index":137,"time_elapsed":1082785,"internal_node_id":"0.0-137.0"}],"bonus":260}