{"start_time":"2017-02-03 12:17:25","end_time":"2017-02-03 12:43:17","points_phase0":119,"points_phase1":122,"phase_order":0,"age":39,"gender":"m","tries":1,"during":"Eating","worker_id":"A2EI075XZT9Y2S","assignment_id":"3W8CV64QJ3SMFC4H0435XSG24KKH9U","data":[{"rt":5416,"url":"\/tickets\/utils\/consent.html","trial_type":"html","trial_index":0,"time_elapsed":5644,"internal_node_id":"0.0-0.0"},{"age":39,"gender":"m","trial_type":"age","trial_index":1,"time_elapsed":11708,"internal_node_id":"0.0-1.0"},{"worker_id":"A2EI075XZT9Y2S","trial_type":"workerid","trial_index":2,"time_elapsed":15245,"internal_node_id":"0.0-2.0"},{"tries":1,"trial_type":"instructions_check","trial_index":3,"time_elapsed":34155,"internal_node_id":"0.0-3.0"},{"rt":19215,"url":"\/tickets\/utils\/start.html","trial_type":"html","trial_index":4,"time_elapsed":54506,"internal_node_id":"0.0-4.0"},{"trial_type":"number-animation","trial_index":5,"time_elapsed":74741,"internal_node_id":"0.0-5.0"},{"phase":0,"sequence":0,"avg":181,"response":175,"trial_type":"training_avg","trial_index":6,"time_elapsed":86846,"internal_node_id":"0.0-6.0"},{"trial_type":"number-animation","trial_index":7,"time_elapsed":101026,"internal_node_id":"0.0-7.0"},{"phase":0,"sequence":1,"avg":188,"response":185,"trial_type":"training_avg","trial_index":8,"time_elapsed":108094,"internal_node_id":"0.0-8.0"},{"trial_type":"number-animation","trial_index":9,"time_elapsed":117900,"internal_node_id":"0.0-9.0"},{"phase":0,"sequence":2,"avg":188,"response":193,"trial_type":"training_avg","trial_index":10,"time_elapsed":126027,"internal_node_id":"0.0-10.0"},{"trial_type":"number-animation","trial_index":11,"time_elapsed":135880,"internal_node_id":"0.0-11.0"},{"phase":0,"sequence":3,"avg":177,"response":185,"trial_type":"training_avg","trial_index":12,"time_elapsed":142037,"internal_node_id":"0.0-12.0"},{"trial_type":"number-animation","trial_index":13,"time_elapsed":152408,"internal_node_id":"0.0-13.0"},{"phase":0,"sequence":4,"avg":182,"response":170,"trial_type":"training_avg","trial_index":14,"time_elapsed":157723,"internal_node_id":"0.0-14.0"},{"responses":[{"value":1,"offby":1,"category":"$106 - $134","category_index":0},{"value":3,"offby":2,"category":"$135 - $150","category_index":1},{"value":3,"offby":0,"category":"$151 - $165","category_index":2},{"value":8,"offby":2,"category":"$166 - $180","category_index":3},{"value":3,"offby":-3,"category":"$181 - $195","category_index":4},{"value":1,"offby":-2,"category":"$196 - $210","category_index":5},{"value":1,"offby":0,"category":"$211 - $225","category_index":6}],"phase":0,"number":0,"trial_type":"bar-choose","trial_index":15,"time_elapsed":240787,"internal_node_id":"0.0-15.0"},{"rt":24923,"url":"\/tickets\/\/utils\/testing.html","trial_type":"html","trial_index":16,"time_elapsed":266860,"internal_node_id":"0.0-16.0"},{"phase":0,"order":[30,29,14,4,41,3,39,0,28,20,36,33,44,47,27,38,22,21,17,8,24,19,12,18,9,40,25,43,37,46,5,26,2,10,35,6,23,11,13,49,16,34,31,45,7,32,42,15,48,1],"trial_type":"store_order","trial_index":17,"time_elapsed":267861,"internal_node_id":"0.0-17.0"},{"result":126,"points":3,"place":0,"phase":0,"sequence":-1,"times":[1342,508,451,551,486,509,485,549,563,1287],"next_num":10,"trial_type":"ticket-choose","trial_index":18,"time_elapsed":279196,"internal_node_id":"0.0-18.0"},{"rt":15129,"url":"\/tickets\/utils\/testing_after.html","trial_type":"html","trial_index":19,"time_elapsed":295465,"internal_node_id":"0.0-19.0"},{"result":138,"points":3,"place":0,"phase":0,"sequence":0,"times":[1583,798,1841,562,530,1077],"next_num":6,"trial_type":"ticket-choose","trial_index":20,"time_elapsed":307235,"internal_node_id":"0.0-20.0"},{"result":159,"points":3,"place":0,"phase":0,"sequence":1,"times":[3591],"next_num":1,"trial_type":"ticket-choose","trial_index":21,"time_elapsed":313641,"internal_node_id":"0.0-21.0"},{"result":208,"points":0,"place":8,"phase":0,"sequence":2,"times":[830,514,524,601,561,560,1165,761,5603,562],"next_num":11,"trial_type":"ticket-choose","trial_index":22,"time_elapsed":332780,"internal_node_id":"0.0-22.0"},{"result":170,"points":2,"place":1,"phase":0,"sequence":3,"times":[2058,566,2508],"next_num":3,"trial_type":"ticket-choose","trial_index":23,"time_elapsed":340527,"internal_node_id":"0.0-23.0"},{"result":155,"points":2,"place":1,"phase":0,"sequence":4,"times":[1192,858,1146],"next_num":3,"trial_type":"ticket-choose","trial_index":24,"time_elapsed":346824,"internal_node_id":"0.0-24.0"},{"result":154,"points":2,"place":1,"phase":0,"sequence":5,"times":[974,591,1543],"next_num":3,"trial_type":"ticket-choose","trial_index":25,"time_elapsed":352545,"internal_node_id":"0.0-25.0"},{"result":171,"points":1,"place":3,"phase":0,"sequence":6,"times":[847,1258,724,607,1532,821,587,611,572,1889],"next_num":10,"trial_type":"ticket-choose","trial_index":26,"time_elapsed":368288,"internal_node_id":"0.0-26.0"},{"result":158,"points":2,"place":1,"phase":0,"sequence":7,"times":[1903,469,1042],"next_num":3,"trial_type":"ticket-choose","trial_index":27,"time_elapsed":374476,"internal_node_id":"0.0-27.0"},{"result":188,"points":1,"place":4,"phase":0,"sequence":8,"times":[871,624,460,555,518,596,927,931,598,969],"next_num":11,"trial_type":"ticket-choose","trial_index":28,"time_elapsed":385486,"internal_node_id":"0.0-28.0"},{"result":184,"points":1,"place":4,"phase":0,"sequence":9,"times":[3019,534,496,621,581,591,571,519,1003,760],"next_num":11,"trial_type":"ticket-choose","trial_index":29,"time_elapsed":398823,"internal_node_id":"0.0-29.0"},{"result":165,"points":2,"place":1,"phase":0,"sequence":10,"times":[1188,678,1333],"next_num":3,"trial_type":"ticket-choose","trial_index":30,"time_elapsed":404505,"internal_node_id":"0.0-30.0"},{"result":155,"points":3,"place":0,"phase":0,"sequence":11,"times":[809,1027],"next_num":2,"trial_type":"ticket-choose","trial_index":31,"time_elapsed":408672,"internal_node_id":"0.0-31.0"},{"result":159,"points":1,"place":2,"phase":0,"sequence":12,"times":[862,918],"next_num":2,"trial_type":"ticket-choose","trial_index":32,"time_elapsed":412457,"internal_node_id":"0.0-32.0"},{"result":152,"points":3,"place":0,"phase":0,"sequence":13,"times":[949,609,523,913],"next_num":4,"trial_type":"ticket-choose","trial_index":33,"time_elapsed":418011,"internal_node_id":"0.0-33.0"},{"result":148,"points":3,"place":0,"phase":0,"sequence":14,"times":[3963],"next_num":1,"trial_type":"ticket-choose","trial_index":34,"time_elapsed":425005,"internal_node_id":"0.0-34.0"},{"result":163,"points":3,"place":0,"phase":0,"sequence":15,"times":[1095,486,461,482,456,507,528,945],"next_num":8,"trial_type":"ticket-choose","trial_index":35,"time_elapsed":433719,"internal_node_id":"0.0-35.0"},{"result":152,"points":3,"place":0,"phase":0,"sequence":16,"times":[1014],"next_num":1,"trial_type":"ticket-choose","trial_index":36,"time_elapsed":436625,"internal_node_id":"0.0-36.0"},{"result":156,"points":3,"place":0,"phase":0,"sequence":17,"times":[1208],"next_num":1,"trial_type":"ticket-choose","trial_index":37,"time_elapsed":439660,"internal_node_id":"0.0-37.0"},{"result":150,"points":2,"place":1,"phase":0,"sequence":18,"times":[985,489,701,543,491,725,925],"next_num":7,"trial_type":"ticket-choose","trial_index":38,"time_elapsed":447875,"internal_node_id":"0.0-38.0"},{"result":147,"points":3,"place":0,"phase":0,"sequence":19,"times":[795,632,919,540,606,575,1124,577,604,1093],"next_num":10,"trial_type":"ticket-choose","trial_index":39,"time_elapsed":459440,"internal_node_id":"0.0-39.0"},{"result":185,"points":1,"place":4,"phase":0,"sequence":20,"times":[2405,560,529,650,507,562,536,619,863,895],"next_num":11,"trial_type":"ticket-choose","trial_index":40,"time_elapsed":471377,"internal_node_id":"0.0-40.0"},{"result":158,"points":3,"place":0,"phase":0,"sequence":21,"times":[80792,507,581,533,573,589,1444,602,1038],"next_num":9,"trial_type":"ticket-choose","trial_index":41,"time_elapsed":561748,"internal_node_id":"0.0-41.0"},{"result":148,"points":3,"place":0,"phase":0,"sequence":22,"times":[1179,549,522,504,567,538,536,1238,921],"next_num":9,"trial_type":"ticket-choose","trial_index":42,"time_elapsed":572072,"internal_node_id":"0.0-42.0"},{"result":165,"points":2,"place":1,"phase":0,"sequence":23,"times":[1104,641,488,575,558,818,1332],"next_num":7,"trial_type":"ticket-choose","trial_index":43,"time_elapsed":580867,"internal_node_id":"0.0-43.0"},{"result":138,"points":3,"place":0,"phase":0,"sequence":24,"times":[1110,640,792,570,544,499,474,748,597,940],"next_num":10,"trial_type":"ticket-choose","trial_index":44,"time_elapsed":591625,"internal_node_id":"0.0-44.0"},{"result":150,"points":3,"place":0,"phase":0,"sequence":25,"times":[1035,1004],"next_num":2,"trial_type":"ticket-choose","trial_index":45,"time_elapsed":595731,"internal_node_id":"0.0-45.0"},{"result":150,"points":3,"place":0,"phase":0,"sequence":26,"times":[942],"next_num":1,"trial_type":"ticket-choose","trial_index":46,"time_elapsed":598492,"internal_node_id":"0.0-46.0"},{"result":157,"points":3,"place":0,"phase":0,"sequence":27,"times":[1445,592,879],"next_num":3,"trial_type":"ticket-choose","trial_index":47,"time_elapsed":603538,"internal_node_id":"0.0-47.0"},{"result":163,"points":2,"place":1,"phase":0,"sequence":28,"times":[853,474,917,1037],"next_num":4,"trial_type":"ticket-choose","trial_index":48,"time_elapsed":609276,"internal_node_id":"0.0-48.0"},{"result":158,"points":3,"place":0,"phase":0,"sequence":29,"times":[791,565,523,528,635,958],"next_num":6,"trial_type":"ticket-choose","trial_index":49,"time_elapsed":615991,"internal_node_id":"0.0-49.0"},{"result":150,"points":2,"place":1,"phase":0,"sequence":30,"times":[827,545,936],"next_num":3,"trial_type":"ticket-choose","trial_index":50,"time_elapsed":620391,"internal_node_id":"0.0-50.0"},{"result":157,"points":3,"place":0,"phase":0,"sequence":31,"times":[1060],"next_num":1,"trial_type":"ticket-choose","trial_index":51,"time_elapsed":623114,"internal_node_id":"0.0-51.0"},{"result":153,"points":3,"place":0,"phase":0,"sequence":32,"times":[661,544,675,553,541,566,579,525,674,790],"next_num":10,"trial_type":"ticket-choose","trial_index":52,"time_elapsed":633114,"internal_node_id":"0.0-52.0"},{"result":164,"points":1,"place":4,"phase":0,"sequence":33,"times":[2714],"next_num":1,"trial_type":"ticket-choose","trial_index":53,"time_elapsed":637960,"internal_node_id":"0.0-53.0"},{"result":154,"points":2,"place":1,"phase":0,"sequence":34,"times":[861,890],"next_num":2,"trial_type":"ticket-choose","trial_index":54,"time_elapsed":641901,"internal_node_id":"0.0-54.0"},{"result":155,"points":3,"place":0,"phase":0,"sequence":35,"times":[968,523,1041,549,494,536,520,487,594,827],"next_num":10,"trial_type":"ticket-choose","trial_index":55,"time_elapsed":652139,"internal_node_id":"0.0-55.0"},{"result":186,"points":1,"place":4,"phase":0,"sequence":36,"times":[1133,520,547,456,598,615,727,524,517,880],"next_num":11,"trial_type":"ticket-choose","trial_index":56,"time_elapsed":662705,"internal_node_id":"0.0-56.0"},{"result":149,"points":3,"place":0,"phase":0,"sequence":37,"times":[1088,504,651,602,549,584,3229,499,902],"next_num":9,"trial_type":"ticket-choose","trial_index":57,"time_elapsed":674706,"internal_node_id":"0.0-57.0"},{"result":154,"points":2,"place":1,"phase":0,"sequence":38,"times":[970,512,1082,525,514,537,898],"next_num":7,"trial_type":"ticket-choose","trial_index":58,"time_elapsed":683065,"internal_node_id":"0.0-58.0"},{"result":148,"points":3,"place":0,"phase":0,"sequence":39,"times":[899,730,646,468,650,923],"next_num":6,"trial_type":"ticket-choose","trial_index":59,"time_elapsed":690117,"internal_node_id":"0.0-59.0"},{"result":145,"points":3,"place":0,"phase":0,"sequence":40,"times":[870,760,959,510,596,1159,812,894,912],"next_num":9,"trial_type":"ticket-choose","trial_index":60,"time_elapsed":700974,"internal_node_id":"0.0-60.0"},{"result":155,"points":2,"place":1,"phase":0,"sequence":41,"times":[710,866],"next_num":2,"trial_type":"ticket-choose","trial_index":61,"time_elapsed":704635,"internal_node_id":"0.0-61.0"},{"result":149,"points":3,"place":0,"phase":0,"sequence":42,"times":[779,532,501,489,566,489,619,872],"next_num":8,"trial_type":"ticket-choose","trial_index":62,"time_elapsed":712796,"internal_node_id":"0.0-62.0"},{"result":170,"points":1,"place":2,"phase":0,"sequence":43,"times":[716,527,472,518,746,516,535,619,539,694],"next_num":11,"trial_type":"ticket-choose","trial_index":63,"time_elapsed":722434,"internal_node_id":"0.0-63.0"},{"result":155,"points":3,"place":0,"phase":0,"sequence":44,"times":[824,517,740,614,514,539,538,503,1013,743],"next_num":10,"trial_type":"ticket-choose","trial_index":64,"time_elapsed":733011,"internal_node_id":"0.0-64.0"},{"result":146,"points":3,"place":0,"phase":0,"sequence":45,"times":[1043,602,916],"next_num":3,"trial_type":"ticket-choose","trial_index":65,"time_elapsed":737831,"internal_node_id":"0.0-65.0"},{"result":143,"points":3,"place":0,"phase":0,"sequence":46,"times":[699,502,503,563,878],"next_num":5,"trial_type":"ticket-choose","trial_index":66,"time_elapsed":743509,"internal_node_id":"0.0-66.0"},{"result":152,"points":3,"place":0,"phase":0,"sequence":47,"times":[715,549,527,582,541,518,771,505,922],"next_num":9,"trial_type":"ticket-choose","trial_index":67,"time_elapsed":752571,"internal_node_id":"0.0-67.0"},{"result":147,"points":3,"place":0,"phase":0,"sequence":48,"times":[501,496,706,891],"next_num":4,"trial_type":"ticket-choose","trial_index":68,"time_elapsed":757452,"internal_node_id":"0.0-68.0"},{"result":154,"points":3,"place":0,"phase":0,"sequence":49,"times":[690,752,544,548,617,489,616,581,621,883],"next_num":10,"trial_type":"ticket-choose","trial_index":69,"time_elapsed":767386,"internal_node_id":"0.0-69.0"},{"responses":[{"value":0,"offby":0,"category":"$106 - $134","category_index":0},{"value":2,"offby":1,"category":"$135 - $150","category_index":1},{"value":3,"offby":0,"category":"$151 - $165","category_index":2},{"value":10,"offby":4,"category":"$166 - $180","category_index":3},{"value":4,"offby":-2,"category":"$181 - $195","category_index":4},{"value":1,"offby":-2,"category":"$196 - $210","category_index":5},{"value":0,"offby":-1,"category":"$211 - $225","category_index":6}],"phase":0,"number":1,"trial_type":"bar-choose","trial_index":70,"time_elapsed":811403,"internal_node_id":"0.0-70.0"},{"rt":148708,"url":"\/tickets\/utils\/start2.html","trial_type":"html","trial_index":71,"time_elapsed":961253,"internal_node_id":"0.0-71.0"},{"trial_type":"number-animation","trial_index":72,"time_elapsed":980160,"internal_node_id":"0.0-72.0"},{"phase":1,"sequence":0,"avg":184,"response":177,"trial_type":"training_avg","trial_index":73,"time_elapsed":989980,"internal_node_id":"0.0-73.0"},{"trial_type":"number-animation","trial_index":74,"time_elapsed":998787,"internal_node_id":"0.0-74.0"},{"phase":1,"sequence":1,"avg":199,"response":179,"trial_type":"training_avg","trial_index":75,"time_elapsed":1006649,"internal_node_id":"0.0-75.0"},{"trial_type":"number-animation","trial_index":76,"time_elapsed":1016659,"internal_node_id":"0.0-76.0"},{"phase":1,"sequence":2,"avg":199,"response":188,"trial_type":"training_avg","trial_index":77,"time_elapsed":1024079,"internal_node_id":"0.0-77.0"},{"trial_type":"number-animation","trial_index":78,"time_elapsed":1033173,"internal_node_id":"0.0-78.0"},{"phase":1,"sequence":3,"avg":210,"response":204,"trial_type":"training_avg","trial_index":79,"time_elapsed":1041065,"internal_node_id":"0.0-79.0"},{"trial_type":"number-animation","trial_index":80,"time_elapsed":1049191,"internal_node_id":"0.0-80.0"},{"phase":1,"sequence":4,"avg":202,"response":206,"trial_type":"training_avg","trial_index":81,"time_elapsed":1055909,"internal_node_id":"0.0-81.0"},{"responses":[{"value":1,"offby":0,"category":"$105 - $130","category_index":0},{"value":2,"offby":0,"category":"$131 - $155","category_index":1},{"value":2,"offby":0,"category":"$156 - $180","category_index":2},{"value":6,"offby":1,"category":"$181 - $205","category_index":3},{"value":6,"offby":1,"category":"$206 - $230","category_index":4},{"value":2,"offby":-1,"category":"$231 - $255","category_index":5},{"value":1,"offby":-1,"category":"$256 - $280","category_index":6}],"phase":1,"number":0,"trial_type":"bar-choose","trial_index":82,"time_elapsed":1084758,"internal_node_id":"0.0-82.0"},{"rt":2415,"url":"\/tickets\/utils\/testing2.html","trial_type":"html","trial_index":83,"time_elapsed":1088314,"internal_node_id":"0.0-83.0"},{"phase":1,"order":[40,19,15,49,35,4,29,36,25,33,11,39,8,41,7,17,27,20,43,26,45,9,3,37,23,30,24,38,21,28,42,46,2,5,48,32,47,44,18,16,34,0,22,13,10,6,31,12,1,14],"trial_type":"store_order","trial_index":84,"time_elapsed":1089315,"internal_node_id":"0.0-84.0"},{"result":160,"points":1,"place":2,"phase":1,"sequence":0,"times":[2285,502,2249,1277],"next_num":4,"trial_type":"ticket-choose","trial_index":85,"time_elapsed":1098314,"internal_node_id":"0.0-85.0"},{"result":156,"points":3,"place":0,"phase":1,"sequence":1,"times":[1750,698,826,602,598,589,716,605,857],"next_num":9,"trial_type":"ticket-choose","trial_index":86,"time_elapsed":1110055,"internal_node_id":"0.0-86.0"},{"result":144,"points":3,"place":0,"phase":1,"sequence":2,"times":[1254,545,586,527,670,480,547,532,923],"next_num":9,"trial_type":"ticket-choose","trial_index":87,"time_elapsed":1119485,"internal_node_id":"0.0-87.0"},{"result":136,"points":3,"place":0,"phase":1,"sequence":3,"times":[2237,1220,601,586,668,944],"next_num":6,"trial_type":"ticket-choose","trial_index":88,"time_elapsed":1128660,"internal_node_id":"0.0-88.0"},{"result":149,"points":2,"place":1,"phase":1,"sequence":4,"times":[882,824],"next_num":2,"trial_type":"ticket-choose","trial_index":89,"time_elapsed":1132388,"internal_node_id":"0.0-89.0"},{"result":142,"points":3,"place":0,"phase":1,"sequence":5,"times":[777,652,703,543,704,553,668,575,1043,1003],"next_num":10,"trial_type":"ticket-choose","trial_index":90,"time_elapsed":1143246,"internal_node_id":"0.0-90.0"},{"result":158,"points":3,"place":0,"phase":1,"sequence":6,"times":[1421],"next_num":1,"trial_type":"ticket-choose","trial_index":91,"time_elapsed":1146715,"internal_node_id":"0.0-91.0"},{"result":148,"points":3,"place":0,"phase":1,"sequence":7,"times":[762,570,707,630,672,679,731,834],"next_num":8,"trial_type":"ticket-choose","trial_index":92,"time_elapsed":1155849,"internal_node_id":"0.0-92.0"},{"result":141,"points":3,"place":0,"phase":1,"sequence":8,"times":[2762],"next_num":1,"trial_type":"ticket-choose","trial_index":93,"time_elapsed":1160412,"internal_node_id":"0.0-93.0"},{"result":151,"points":3,"place":0,"phase":1,"sequence":9,"times":[1022,892],"next_num":2,"trial_type":"ticket-choose","trial_index":94,"time_elapsed":1164482,"internal_node_id":"0.0-94.0"},{"result":139,"points":3,"place":0,"phase":1,"sequence":10,"times":[786,559,786,534,686,550,622,554,839],"next_num":9,"trial_type":"ticket-choose","trial_index":95,"time_elapsed":1173814,"internal_node_id":"0.0-95.0"},{"result":183,"points":1,"place":3,"phase":1,"sequence":11,"times":[952,649,551,578,581,485,591,586,590,1293],"next_num":11,"trial_type":"ticket-choose","trial_index":96,"time_elapsed":1186503,"internal_node_id":"0.0-96.0"},{"result":134,"points":3,"place":0,"phase":1,"sequence":12,"times":[1004,490,539,503,506,521,598,569,1190,1076],"next_num":10,"trial_type":"ticket-choose","trial_index":97,"time_elapsed":1198425,"internal_node_id":"0.0-97.0"},{"result":151,"points":2,"place":1,"phase":1,"sequence":13,"times":[1317,586,941],"next_num":3,"trial_type":"ticket-choose","trial_index":98,"time_elapsed":1204226,"internal_node_id":"0.0-98.0"},{"result":150,"points":3,"place":0,"phase":1,"sequence":14,"times":[1061,754,2275,539,663,717,700,1119,726,872],"next_num":10,"trial_type":"ticket-choose","trial_index":99,"time_elapsed":1217388,"internal_node_id":"0.0-99.0"},{"result":140,"points":2,"place":1,"phase":1,"sequence":15,"times":[797,637,580,658,687,824,893],"next_num":7,"trial_type":"ticket-choose","trial_index":100,"time_elapsed":1225777,"internal_node_id":"0.0-100.0"},{"result":137,"points":3,"place":0,"phase":1,"sequence":16,"times":[6294],"next_num":1,"trial_type":"ticket-choose","trial_index":101,"time_elapsed":1233971,"internal_node_id":"0.0-101.0"},{"result":208,"points":1,"place":4,"phase":1,"sequence":17,"times":[2991,620,588,544,533,532,556,768,509,681],"next_num":11,"trial_type":"ticket-choose","trial_index":102,"time_elapsed":1246150,"internal_node_id":"0.0-102.0"},{"result":155,"points":3,"place":0,"phase":1,"sequence":18,"times":[948,506,933],"next_num":3,"trial_type":"ticket-choose","trial_index":103,"time_elapsed":1250973,"internal_node_id":"0.0-103.0"},{"result":154,"points":3,"place":0,"phase":1,"sequence":19,"times":[1478],"next_num":1,"trial_type":"ticket-choose","trial_index":104,"time_elapsed":1254135,"internal_node_id":"0.0-104.0"},{"result":180,"points":1,"place":2,"phase":1,"sequence":20,"times":[782,488,505,472,1222,622,512,1107,675,756],"next_num":11,"trial_type":"ticket-choose","trial_index":105,"time_elapsed":1266268,"internal_node_id":"0.0-105.0"},{"result":170,"points":3,"place":0,"phase":1,"sequence":21,"times":[2190,1081,856,609,620,653,1174,691,1005,1270],"next_num":10,"trial_type":"ticket-choose","trial_index":106,"time_elapsed":1280334,"internal_node_id":"0.0-106.0"},{"result":148,"points":2,"place":1,"phase":1,"sequence":22,"times":[4267,476,924],"next_num":3,"trial_type":"ticket-choose","trial_index":107,"time_elapsed":1288088,"internal_node_id":"0.0-107.0"},{"result":145,"points":3,"place":0,"phase":1,"sequence":23,"times":[836,488,736,734,616,592,895],"next_num":7,"trial_type":"ticket-choose","trial_index":108,"time_elapsed":1295871,"internal_node_id":"0.0-108.0"},{"result":212,"points":1,"place":4,"phase":1,"sequence":24,"times":[1127,930,649,516,529,519,625,535,508,557],"next_num":11,"trial_type":"ticket-choose","trial_index":109,"time_elapsed":1306310,"internal_node_id":"0.0-109.0"},{"result":116,"points":3,"place":0,"phase":1,"sequence":25,"times":[1023,494,586,498,570,1869],"next_num":6,"trial_type":"ticket-choose","trial_index":110,"time_elapsed":1314280,"internal_node_id":"0.0-110.0"},{"result":210,"points":1,"place":4,"phase":1,"sequence":26,"times":[864,539,1236,497,552,472,509,572,502,641],"next_num":11,"trial_type":"ticket-choose","trial_index":111,"time_elapsed":1324552,"internal_node_id":"0.0-111.0"},{"result":167,"points":3,"place":0,"phase":1,"sequence":27,"times":[1380,455,430,471,510,452,449,1001],"next_num":8,"trial_type":"ticket-choose","trial_index":112,"time_elapsed":1332986,"internal_node_id":"0.0-112.0"},{"result":153,"points":3,"place":0,"phase":1,"sequence":28,"times":[927],"next_num":1,"trial_type":"ticket-choose","trial_index":113,"time_elapsed":1335613,"internal_node_id":"0.0-113.0"},{"result":163,"points":3,"place":0,"phase":1,"sequence":29,"times":[1161],"next_num":1,"trial_type":"ticket-choose","trial_index":114,"time_elapsed":1338634,"internal_node_id":"0.0-114.0"},{"result":126,"points":3,"place":0,"phase":1,"sequence":30,"times":[750,553,559,532,856],"next_num":5,"trial_type":"ticket-choose","trial_index":115,"time_elapsed":1344341,"internal_node_id":"0.0-115.0"},{"result":156,"points":3,"place":0,"phase":1,"sequence":31,"times":[951,493,494,455,475,1015],"next_num":6,"trial_type":"ticket-choose","trial_index":116,"time_elapsed":1350922,"internal_node_id":"0.0-116.0"},{"result":147,"points":3,"place":0,"phase":1,"sequence":32,"times":[721,496,635,496,475,529,537,542,570,948],"next_num":10,"trial_type":"ticket-choose","trial_index":117,"time_elapsed":1360411,"internal_node_id":"0.0-117.0"},{"result":140,"points":2,"place":1,"phase":1,"sequence":33,"times":[735,490,863],"next_num":3,"trial_type":"ticket-choose","trial_index":118,"time_elapsed":1364528,"internal_node_id":"0.0-118.0"},{"result":135,"points":3,"place":0,"phase":1,"sequence":34,"times":[721,540,732,856],"next_num":4,"trial_type":"ticket-choose","trial_index":119,"time_elapsed":1369668,"internal_node_id":"0.0-119.0"},{"result":133,"points":3,"place":0,"phase":1,"sequence":35,"times":[673,476,1367],"next_num":3,"trial_type":"ticket-choose","trial_index":120,"time_elapsed":1374230,"internal_node_id":"0.0-120.0"},{"result":144,"points":3,"place":0,"phase":1,"sequence":36,"times":[4539,502,456,1025],"next_num":4,"trial_type":"ticket-choose","trial_index":121,"time_elapsed":1383238,"internal_node_id":"0.0-121.0"},{"result":158,"points":1,"place":2,"phase":1,"sequence":37,"times":[1014,1447],"next_num":2,"trial_type":"ticket-choose","trial_index":122,"time_elapsed":1387701,"internal_node_id":"0.0-122.0"},{"result":117,"points":3,"place":0,"phase":1,"sequence":38,"times":[730,526,515,516,510,514,931,500,890],"next_num":9,"trial_type":"ticket-choose","trial_index":123,"time_elapsed":1396676,"internal_node_id":"0.0-123.0"},{"result":165,"points":2,"place":1,"phase":1,"sequence":39,"times":[721,519,848,530,622,662,2307],"next_num":7,"trial_type":"ticket-choose","trial_index":124,"time_elapsed":1405947,"internal_node_id":"0.0-124.0"},{"result":150,"points":2,"place":1,"phase":1,"sequence":40,"times":[943,821],"next_num":2,"trial_type":"ticket-choose","trial_index":125,"time_elapsed":1409591,"internal_node_id":"0.0-125.0"},{"result":163,"points":1,"place":2,"phase":1,"sequence":41,"times":[694,537,463,630,765,618,1119],"next_num":7,"trial_type":"ticket-choose","trial_index":126,"time_elapsed":1417659,"internal_node_id":"0.0-126.0"},{"result":145,"points":3,"place":0,"phase":1,"sequence":42,"times":[968],"next_num":1,"trial_type":"ticket-choose","trial_index":127,"time_elapsed":1420234,"internal_node_id":"0.0-127.0"},{"result":148,"points":2,"place":1,"phase":1,"sequence":43,"times":[797,519,669,542,520,750,893],"next_num":7,"trial_type":"ticket-choose","trial_index":128,"time_elapsed":1427902,"internal_node_id":"0.0-128.0"},{"result":157,"points":2,"place":1,"phase":1,"sequence":44,"times":[720,522,504,534,710,688,954],"next_num":7,"trial_type":"ticket-choose","trial_index":129,"time_elapsed":1435447,"internal_node_id":"0.0-129.0"},{"result":150,"points":3,"place":0,"phase":1,"sequence":45,"times":[701,510,569,520,547,505,587,573,998,849],"next_num":10,"trial_type":"ticket-choose","trial_index":130,"time_elapsed":1445295,"internal_node_id":"0.0-130.0"},{"result":138,"points":3,"place":0,"phase":1,"sequence":46,"times":[1290,484,493,517,452,468,537,1012],"next_num":8,"trial_type":"ticket-choose","trial_index":131,"time_elapsed":1453739,"internal_node_id":"0.0-131.0"},{"result":136,"points":3,"place":0,"phase":1,"sequence":47,"times":[1156,494,772,622,524,523,697,560,827],"next_num":9,"trial_type":"ticket-choose","trial_index":132,"time_elapsed":1463288,"internal_node_id":"0.0-132.0"},{"result":148,"points":3,"place":0,"phase":1,"sequence":48,"times":[673,650,444,678,496,614,525,512,813,807],"next_num":10,"trial_type":"ticket-choose","trial_index":133,"time_elapsed":1473079,"internal_node_id":"0.0-133.0"},{"result":256,"points":0,"place":8,"phase":1,"sequence":49,"times":[876,484,489,574,517,469,669,529,524,677],"next_num":11,"trial_type":"ticket-choose","trial_index":134,"time_elapsed":1483358,"internal_node_id":"0.0-134.0"},{"responses":[{"value":1,"offby":0,"category":"$105 - $130","category_index":0},{"value":2,"offby":0,"category":"$131 - $155","category_index":1},{"value":3,"offby":1,"category":"$156 - $180","category_index":2},{"value":6,"offby":1,"category":"$181 - $205","category_index":3},{"value":6,"offby":1,"category":"$206 - $230","category_index":4},{"value":2,"offby":-1,"category":"$231 - $255","category_index":5},{"value":0,"offby":-2,"category":"$256 - $280","category_index":6}],"phase":1,"number":1,"trial_type":"bar-choose","trial_index":135,"time_elapsed":1510130,"internal_node_id":"0.0-135.0"},{"during":"Eating","bonus":320,"trial_type":"final","trial_index":136,"time_elapsed":1549727,"internal_node_id":"0.0-136.0"}],"bonus":320}