{"start_time":"2017-01-26 11:44:53","end_time":"2017-01-26 12:16:43","points_phase0":102,"points_phase1":105,"phase_order":1,"age":30,"gender":"m","tries":1,"during":"Nothing","worker_id":"A2H41RJTXE9I90","assignment_id":"3TY7ZAOG5GDVL8HC6TN9H9V1SRDK0V","data":[{"rt":50612,"url":"\/tickets\/utils\/consent.html","trial_type":"html","trial_index":0,"time_elapsed":50949,"internal_node_id":"0.0-0.0"},{"age":30,"gender":"m","trial_type":"age","trial_index":1,"time_elapsed":55877,"internal_node_id":"0.0-1.0"},{"worker_id":"A2H41RJTXE9I90","trial_type":"workerid","trial_index":2,"time_elapsed":65388,"internal_node_id":"0.0-2.0"},{"tries":1,"trial_type":"instructions_check","trial_index":3,"time_elapsed":116251,"internal_node_id":"0.0-3.0"},{"rt":170343,"url":"\/tickets\/utils\/start.html","trial_type":"html","trial_index":4,"time_elapsed":287931,"internal_node_id":"0.0-4.0"},{"trial_type":"number-animation","trial_index":5,"time_elapsed":306173,"internal_node_id":"0.0-5.0"},{"phase":0,"sequence":0,"avg":184,"response":200,"trial_type":"training_avg","trial_index":6,"time_elapsed":324694,"internal_node_id":"0.0-6.0"},{"trial_type":"number-animation","trial_index":7,"time_elapsed":336739,"internal_node_id":"0.0-7.0"},{"phase":0,"sequence":1,"avg":199,"response":203,"trial_type":"training_avg","trial_index":8,"time_elapsed":351263,"internal_node_id":"0.0-8.0"},{"trial_type":"number-animation","trial_index":9,"time_elapsed":361172,"internal_node_id":"0.0-9.0"},{"phase":0,"sequence":2,"avg":199,"response":181,"trial_type":"training_avg","trial_index":10,"time_elapsed":370439,"internal_node_id":"0.0-10.0"},{"trial_type":"number-animation","trial_index":11,"time_elapsed":379765,"internal_node_id":"0.0-11.0"},{"phase":0,"sequence":3,"avg":210,"response":209,"trial_type":"training_avg","trial_index":12,"time_elapsed":389366,"internal_node_id":"0.0-12.0"},{"trial_type":"number-animation","trial_index":13,"time_elapsed":398388,"internal_node_id":"0.0-13.0"},{"phase":0,"sequence":4,"avg":202,"response":193,"trial_type":"training_avg","trial_index":14,"time_elapsed":406229,"internal_node_id":"0.0-14.0"},{"responses":[{"value":1,"offby":0,"category":"$105 - $130","category_index":0},{"value":1,"offby":-1,"category":"$131 - $155","category_index":1},{"value":3,"offby":1,"category":"$156 - $180","category_index":2},{"value":8,"offby":3,"category":"$181 - $205","category_index":3},{"value":4,"offby":-1,"category":"$206 - $230","category_index":4},{"value":2,"offby":-1,"category":"$231 - $255","category_index":5},{"value":1,"offby":-1,"category":"$256 - $280","category_index":6}],"phase":0,"number":0,"trial_type":"bar-choose","trial_index":15,"time_elapsed":499926,"internal_node_id":"0.0-15.0"},{"rt":30891,"url":"\/tickets\/\/utils\/testing.html","trial_type":"html","trial_index":16,"time_elapsed":532098,"internal_node_id":"0.0-16.0"},{"phase":0,"order":[49,39,14,16,13,1,45,34,11,31,18,9,4,47,48,29,36,43,5,46,30,15,2,8,0,3,20,38,12,42,10,26,40,37,7,35,41,22,17,32,6,23,28,25,19,44,24,21,33,27],"trial_type":"store_order","trial_index":17,"time_elapsed":533101,"internal_node_id":"0.0-17.0"},{"result":165,"points":2,"place":1,"phase":0,"sequence":-1,"times":[4856,1339,1847,10702],"next_num":4,"trial_type":"ticket-choose","trial_index":18,"time_elapsed":556530,"internal_node_id":"0.0-18.0"},{"rt":30989,"url":"\/tickets\/utils\/testing_after.html","trial_type":"html","trial_index":19,"time_elapsed":588714,"internal_node_id":"0.0-19.0"},{"result":148,"points":2,"place":1,"phase":0,"sequence":0,"times":[1995,714,1739],"next_num":3,"trial_type":"ticket-choose","trial_index":20,"time_elapsed":598039,"internal_node_id":"0.0-20.0"},{"result":142,"points":3,"place":0,"phase":0,"sequence":1,"times":[887,625,627,669,907,750,1810,1118,1029,1555],"next_num":10,"trial_type":"ticket-choose","trial_index":21,"time_elapsed":613231,"internal_node_id":"0.0-21.0"},{"result":140,"points":2,"place":1,"phase":0,"sequence":2,"times":[8098,474,942,540,572,663,1181],"next_num":7,"trial_type":"ticket-choose","trial_index":22,"time_elapsed":630192,"internal_node_id":"0.0-22.0"},{"result":182,"points":2,"place":1,"phase":0,"sequence":3,"times":[1244,509,508,567,589,669,1748],"next_num":7,"trial_type":"ticket-choose","trial_index":23,"time_elapsed":640199,"internal_node_id":"0.0-23.0"},{"result":149,"points":2,"place":1,"phase":0,"sequence":4,"times":[903,1726],"next_num":2,"trial_type":"ticket-choose","trial_index":24,"time_elapsed":645649,"internal_node_id":"0.0-24.0"},{"result":169,"points":3,"place":0,"phase":0,"sequence":5,"times":[682,502,453,472,1343,528,658,1620],"next_num":8,"trial_type":"ticket-choose","trial_index":25,"time_elapsed":656804,"internal_node_id":"0.0-25.0"},{"result":134,"points":3,"place":0,"phase":0,"sequence":6,"times":[2327,524,944,503,514,575,1050,731,891,1326],"next_num":10,"trial_type":"ticket-choose","trial_index":26,"time_elapsed":670895,"internal_node_id":"0.0-26.0"},{"result":126,"points":3,"place":0,"phase":0,"sequence":7,"times":[1179,579,474,478,1403],"next_num":5,"trial_type":"ticket-choose","trial_index":27,"time_elapsed":678472,"internal_node_id":"0.0-27.0"},{"result":144,"points":3,"place":0,"phase":0,"sequence":8,"times":[712,476,565,1277],"next_num":4,"trial_type":"ticket-choose","trial_index":28,"time_elapsed":684815,"internal_node_id":"0.0-28.0"},{"result":167,"points":3,"place":0,"phase":0,"sequence":9,"times":[1460,459,460,491,541,541,591,1143],"next_num":8,"trial_type":"ticket-choose","trial_index":29,"time_elapsed":694513,"internal_node_id":"0.0-29.0"},{"result":191,"points":2,"place":1,"phase":0,"sequence":10,"times":[23421,492,491,521,699,530,2040],"next_num":7,"trial_type":"ticket-choose","trial_index":30,"time_elapsed":726959,"internal_node_id":"0.0-30.0"},{"result":166,"points":1,"place":2,"phase":0,"sequence":11,"times":[637,1544],"next_num":2,"trial_type":"ticket-choose","trial_index":31,"time_elapsed":732215,"internal_node_id":"0.0-31.0"},{"result":151,"points":2,"place":1,"phase":0,"sequence":12,"times":[630,549,2363],"next_num":3,"trial_type":"ticket-choose","trial_index":32,"time_elapsed":738424,"internal_node_id":"0.0-32.0"},{"result":184,"points":1,"place":2,"phase":0,"sequence":13,"times":[576,469,713,877,621,543,1944],"next_num":7,"trial_type":"ticket-choose","trial_index":33,"time_elapsed":747847,"internal_node_id":"0.0-33.0"},{"result":157,"points":2,"place":1,"phase":0,"sequence":14,"times":[661,500,910,685,735,622,1350],"next_num":7,"trial_type":"ticket-choose","trial_index":34,"time_elapsed":756807,"internal_node_id":"0.0-34.0"},{"result":193,"points":1,"place":4,"phase":0,"sequence":15,"times":[849,465,449,493,558,718,751,606,671,1258],"next_num":10,"trial_type":"ticket-choose","trial_index":35,"time_elapsed":768967,"internal_node_id":"0.0-35.0"},{"result":208,"points":1,"place":4,"phase":0,"sequence":16,"times":[1056,493,460,541,541,479,590,574,603,2036],"next_num":10,"trial_type":"ticket-choose","trial_index":36,"time_elapsed":780639,"internal_node_id":"0.0-36.0"},{"result":156,"points":3,"place":0,"phase":0,"sequence":17,"times":[570,494,476,477,526,1238],"next_num":6,"trial_type":"ticket-choose","trial_index":37,"time_elapsed":787911,"internal_node_id":"0.0-37.0"},{"result":147,"points":3,"place":0,"phase":0,"sequence":18,"times":[595,503,695,484,462,477,542,526,555,1067],"next_num":10,"trial_type":"ticket-choose","trial_index":38,"time_elapsed":845471,"internal_node_id":"0.0-38.0"},{"result":217,"points":1,"place":4,"phase":0,"sequence":19,"times":[1091,433,395,444,438,505,1262,560,541,932],"next_num":10,"trial_type":"ticket-choose","trial_index":39,"time_elapsed":856341,"internal_node_id":"0.0-39.0"},{"result":179,"points":1,"place":2,"phase":0,"sequence":20,"times":[565,452,1708],"next_num":3,"trial_type":"ticket-choose","trial_index":40,"time_elapsed":861661,"internal_node_id":"0.0-40.0"},{"result":167,"points":2,"place":1,"phase":0,"sequence":21,"times":[711,638,747,1160],"next_num":4,"trial_type":"ticket-choose","trial_index":41,"time_elapsed":867763,"internal_node_id":"0.0-41.0"},{"result":140,"points":3,"place":0,"phase":0,"sequence":22,"times":[533,1059],"next_num":2,"trial_type":"ticket-choose","trial_index":42,"time_elapsed":871709,"internal_node_id":"0.0-42.0"},{"result":180,"points":1,"place":4,"phase":0,"sequence":23,"times":[593,463,456,434,447,459,951,478,526,784],"next_num":10,"trial_type":"ticket-choose","trial_index":43,"time_elapsed":881199,"internal_node_id":"0.0-43.0"},{"result":174,"points":1,"place":3,"phase":0,"sequence":24,"times":[912,479,1570],"next_num":3,"trial_type":"ticket-choose","trial_index":44,"time_elapsed":886536,"internal_node_id":"0.0-44.0"},{"result":170,"points":2,"place":1,"phase":0,"sequence":25,"times":[516,445,479,519,494,494,1258],"next_num":7,"trial_type":"ticket-choose","trial_index":45,"time_elapsed":894047,"internal_node_id":"0.0-45.0"},{"result":175,"points":2,"place":1,"phase":0,"sequence":26,"times":[10169,525,1056,470,821,478,1049],"next_num":7,"trial_type":"ticket-choose","trial_index":46,"time_elapsed":912239,"internal_node_id":"0.0-46.0"},{"result":173,"points":2,"place":1,"phase":0,"sequence":27,"times":[802,420,494,420,500,439,1114],"next_num":7,"trial_type":"ticket-choose","trial_index":47,"time_elapsed":919725,"internal_node_id":"0.0-47.0"},{"result":145,"points":3,"place":0,"phase":0,"sequence":28,"times":[1198],"next_num":1,"trial_type":"ticket-choose","trial_index":48,"time_elapsed":923365,"internal_node_id":"0.0-48.0"},{"result":210,"points":1,"place":4,"phase":0,"sequence":29,"times":[716,455,452,461,544,445,1277,466,462,916],"next_num":10,"trial_type":"ticket-choose","trial_index":49,"time_elapsed":933318,"internal_node_id":"0.0-49.0"},{"result":157,"points":2,"place":1,"phase":0,"sequence":30,"times":[740,478,1381],"next_num":3,"trial_type":"ticket-choose","trial_index":50,"time_elapsed":938367,"internal_node_id":"0.0-50.0"},{"result":173,"points":2,"place":1,"phase":0,"sequence":31,"times":[680,414,1149],"next_num":3,"trial_type":"ticket-choose","trial_index":51,"time_elapsed":943214,"internal_node_id":"0.0-51.0"},{"result":155,"points":3,"place":0,"phase":0,"sequence":32,"times":[561,462,1124],"next_num":3,"trial_type":"ticket-choose","trial_index":52,"time_elapsed":948022,"internal_node_id":"0.0-52.0"},{"result":153,"points":3,"place":0,"phase":0,"sequence":33,"times":[1333],"next_num":1,"trial_type":"ticket-choose","trial_index":53,"time_elapsed":951517,"internal_node_id":"0.0-53.0"},{"result":167,"points":1,"place":3,"phase":0,"sequence":34,"times":[768,523,1244],"next_num":3,"trial_type":"ticket-choose","trial_index":54,"time_elapsed":956733,"internal_node_id":"0.0-54.0"},{"result":116,"points":3,"place":0,"phase":0,"sequence":35,"times":[509,471,626,447,477,1134],"next_num":6,"trial_type":"ticket-choose","trial_index":55,"time_elapsed":963593,"internal_node_id":"0.0-55.0"},{"result":161,"points":2,"place":1,"phase":0,"sequence":36,"times":[1455,403,476,541,460,1238],"next_num":6,"trial_type":"ticket-choose","trial_index":56,"time_elapsed":971237,"internal_node_id":"0.0-56.0"},{"result":151,"points":3,"place":0,"phase":0,"sequence":37,"times":[577,1015],"next_num":2,"trial_type":"ticket-choose","trial_index":57,"time_elapsed":975327,"internal_node_id":"0.0-57.0"},{"result":148,"points":2,"place":1,"phase":0,"sequence":38,"times":[584,381,1143],"next_num":3,"trial_type":"ticket-choose","trial_index":58,"time_elapsed":980041,"internal_node_id":"0.0-58.0"},{"result":184,"points":1,"place":2,"phase":0,"sequence":39,"times":[1007,577,748,558,519,478,1239],"next_num":7,"trial_type":"ticket-choose","trial_index":59,"time_elapsed":988509,"internal_node_id":"0.0-59.0"},{"result":158,"points":1,"place":2,"phase":0,"sequence":40,"times":[606,1115],"next_num":2,"trial_type":"ticket-choose","trial_index":60,"time_elapsed":992647,"internal_node_id":"0.0-60.0"},{"result":140,"points":2,"place":1,"phase":0,"sequence":41,"times":[530,496,1068],"next_num":3,"trial_type":"ticket-choose","trial_index":61,"time_elapsed":997229,"internal_node_id":"0.0-61.0"},{"result":148,"points":3,"place":0,"phase":0,"sequence":42,"times":[511,515,875,559,527,638,575,1220],"next_num":8,"trial_type":"ticket-choose","trial_index":62,"time_elapsed":1006334,"internal_node_id":"0.0-62.0"},{"result":133,"points":3,"place":0,"phase":0,"sequence":43,"times":[3597,479,1075],"next_num":3,"trial_type":"ticket-choose","trial_index":63,"time_elapsed":1014045,"internal_node_id":"0.0-63.0"},{"result":188,"points":0,"place":5,"phase":0,"sequence":44,"times":[653,622,480,638,510,511,480,549,1103],"next_num":9,"trial_type":"ticket-choose","trial_index":64,"time_elapsed":1023430,"internal_node_id":"0.0-64.0"},{"result":171,"points":3,"place":0,"phase":0,"sequence":45,"times":[564,685,469,524,982],"next_num":5,"trial_type":"ticket-choose","trial_index":65,"time_elapsed":1029597,"internal_node_id":"0.0-65.0"},{"result":137,"points":3,"place":0,"phase":0,"sequence":46,"times":[1613],"next_num":1,"trial_type":"ticket-choose","trial_index":66,"time_elapsed":1034110,"internal_node_id":"0.0-66.0"},{"result":171,"points":1,"place":2,"phase":0,"sequence":47,"times":[4040,457,1067,427,593,476,1316],"next_num":7,"trial_type":"ticket-choose","trial_index":67,"time_elapsed":1045742,"internal_node_id":"0.0-67.0"},{"result":180,"points":2,"place":1,"phase":0,"sequence":48,"times":[506,459,446,462,447,493,1087],"next_num":7,"trial_type":"ticket-choose","trial_index":68,"time_elapsed":1053021,"internal_node_id":"0.0-68.0"},{"result":182,"points":1,"place":3,"phase":0,"sequence":49,"times":[621,437,478,447,496,448,1044,1152],"next_num":8,"trial_type":"ticket-choose","trial_index":69,"time_elapsed":1061624,"internal_node_id":"0.0-69.0"},{"responses":[{"value":1,"offby":0,"category":"$105 - $130","category_index":0},{"value":2,"offby":0,"category":"$131 - $155","category_index":1},{"value":3,"offby":1,"category":"$156 - $180","category_index":2},{"value":5,"offby":0,"category":"$181 - $205","category_index":3},{"value":4,"offby":-1,"category":"$206 - $230","category_index":4},{"value":3,"offby":0,"category":"$231 - $255","category_index":5},{"value":2,"offby":0,"category":"$256 - $280","category_index":6}],"phase":0,"number":1,"trial_type":"bar-choose","trial_index":70,"time_elapsed":1192826,"internal_node_id":"0.0-70.0"},{"rt":83303,"url":"\/tickets\/utils\/start2.html","trial_type":"html","trial_index":71,"time_elapsed":1277427,"internal_node_id":"0.0-71.0"},{"trial_type":"number-animation","trial_index":72,"time_elapsed":1287053,"internal_node_id":"0.0-72.0"},{"phase":1,"sequence":0,"avg":181,"response":174,"trial_type":"training_avg","trial_index":73,"time_elapsed":1295873,"internal_node_id":"0.0-73.0"},{"trial_type":"number-animation","trial_index":74,"time_elapsed":1304669,"internal_node_id":"0.0-74.0"},{"phase":1,"sequence":1,"avg":188,"response":183,"trial_type":"training_avg","trial_index":75,"time_elapsed":1312208,"internal_node_id":"0.0-75.0"},{"trial_type":"number-animation","trial_index":76,"time_elapsed":1319741,"internal_node_id":"0.0-76.0"},{"phase":1,"sequence":2,"avg":188,"response":192,"trial_type":"training_avg","trial_index":77,"time_elapsed":1332929,"internal_node_id":"0.0-77.0"},{"trial_type":"number-animation","trial_index":78,"time_elapsed":1339806,"internal_node_id":"0.0-78.0"},{"phase":1,"sequence":3,"avg":177,"response":161,"trial_type":"training_avg","trial_index":79,"time_elapsed":1347606,"internal_node_id":"0.0-79.0"},{"trial_type":"number-animation","trial_index":80,"time_elapsed":1354448,"internal_node_id":"0.0-80.0"},{"phase":1,"sequence":4,"avg":182,"response":181,"trial_type":"training_avg","trial_index":81,"time_elapsed":1361351,"internal_node_id":"0.0-81.0"},{"responses":[{"value":2,"offby":2,"category":"$106 - $134","category_index":0},{"value":3,"offby":2,"category":"$135 - $150","category_index":1},{"value":3,"offby":0,"category":"$151 - $165","category_index":2},{"value":4,"offby":-2,"category":"$166 - $180","category_index":3},{"value":4,"offby":-2,"category":"$181 - $195","category_index":4},{"value":3,"offby":0,"category":"$196 - $210","category_index":5},{"value":1,"offby":0,"category":"$211 - $225","category_index":6}],"phase":1,"number":0,"trial_type":"bar-choose","trial_index":82,"time_elapsed":1411407,"internal_node_id":"0.0-82.0"},{"rt":66279,"url":"\/tickets\/utils\/testing2.html","trial_type":"html","trial_index":83,"time_elapsed":1478908,"internal_node_id":"0.0-83.0"},{"phase":1,"order":[3,4,17,14,35,45,8,42,47,38,19,49,41,7,10,26,20,46,2,28,48,37,40,29,16,18,11,15,22,24,0,9,43,21,13,30,31,33,25,23,44,5,36,32,34,39,27,1,12,6],"trial_type":"store_order","trial_index":84,"time_elapsed":1479913,"internal_node_id":"0.0-84.0"},{"result":166,"points":1,"place":3,"phase":1,"sequence":0,"times":[3674,1114,1442,887,2388],"next_num":5,"trial_type":"ticket-choose","trial_index":85,"time_elapsed":1492882,"internal_node_id":"0.0-85.0"},{"result":171,"points":1,"place":3,"phase":1,"sequence":1,"times":[582,871,494,585,1228,789,520,580,883,1408],"next_num":10,"trial_type":"ticket-choose","trial_index":86,"time_elapsed":1505003,"internal_node_id":"0.0-86.0"},{"result":171,"points":2,"place":1,"phase":1,"sequence":2,"times":[830,526,511,576,581,542,1357],"next_num":7,"trial_type":"ticket-choose","trial_index":87,"time_elapsed":1513343,"internal_node_id":"0.0-87.0"},{"result":162,"points":2,"place":1,"phase":1,"sequence":3,"times":[604,476,644,608,652,570,1052],"next_num":7,"trial_type":"ticket-choose","trial_index":88,"time_elapsed":1521314,"internal_node_id":"0.0-88.0"},{"result":154,"points":2,"place":1,"phase":1,"sequence":4,"times":[740,446,791,416,454,605,1155],"next_num":7,"trial_type":"ticket-choose","trial_index":89,"time_elapsed":1529490,"internal_node_id":"0.0-89.0"},{"result":154,"points":3,"place":0,"phase":1,"sequence":5,"times":[629,499,424,362,567,510,1027,608,527,982],"next_num":10,"trial_type":"ticket-choose","trial_index":90,"time_elapsed":1540075,"internal_node_id":"0.0-90.0"},{"result":167,"points":2,"place":1,"phase":1,"sequence":6,"times":[550,499,404,445,1111],"next_num":5,"trial_type":"ticket-choose","trial_index":91,"time_elapsed":1545962,"internal_node_id":"0.0-91.0"},{"result":155,"points":2,"place":1,"phase":1,"sequence":7,"times":[555,1314],"next_num":2,"trial_type":"ticket-choose","trial_index":92,"time_elapsed":1550018,"internal_node_id":"0.0-92.0"},{"result":167,"points":2,"place":1,"phase":1,"sequence":8,"times":[502,510,562,494,478,494,1677],"next_num":7,"trial_type":"ticket-choose","trial_index":93,"time_elapsed":1557914,"internal_node_id":"0.0-93.0"},{"result":160,"points":2,"place":1,"phase":1,"sequence":9,"times":[817,462,446,553,478,1068],"next_num":6,"trial_type":"ticket-choose","trial_index":94,"time_elapsed":1564754,"internal_node_id":"0.0-94.0"},{"result":165,"points":2,"place":1,"phase":1,"sequence":10,"times":[467,462,503,495,462,542,1090],"next_num":7,"trial_type":"ticket-choose","trial_index":95,"time_elapsed":1571908,"internal_node_id":"0.0-95.0"},{"result":166,"points":2,"place":1,"phase":1,"sequence":11,"times":[441,430,1269],"next_num":3,"trial_type":"ticket-choose","trial_index":96,"time_elapsed":1576529,"internal_node_id":"0.0-96.0"},{"result":170,"points":2,"place":1,"phase":1,"sequence":12,"times":[584,522,1179],"next_num":3,"trial_type":"ticket-choose","trial_index":97,"time_elapsed":1581114,"internal_node_id":"0.0-97.0"},{"result":152,"points":3,"place":0,"phase":1,"sequence":13,"times":[800,538,494,1166],"next_num":4,"trial_type":"ticket-choose","trial_index":98,"time_elapsed":1586634,"internal_node_id":"0.0-98.0"},{"result":159,"points":2,"place":1,"phase":1,"sequence":14,"times":[709,478,429,449,493,496,550,486,1052],"next_num":9,"trial_type":"ticket-choose","trial_index":99,"time_elapsed":1595594,"internal_node_id":"0.0-99.0"},{"result":159,"points":3,"place":0,"phase":1,"sequence":15,"times":[1419],"next_num":1,"trial_type":"ticket-choose","trial_index":100,"time_elapsed":1599149,"internal_node_id":"0.0-100.0"},{"result":165,"points":2,"place":1,"phase":1,"sequence":16,"times":[664,462,1022],"next_num":3,"trial_type":"ticket-choose","trial_index":101,"time_elapsed":1603545,"internal_node_id":"0.0-101.0"},{"result":157,"points":3,"place":0,"phase":1,"sequence":17,"times":[520,469,1008],"next_num":3,"trial_type":"ticket-choose","trial_index":102,"time_elapsed":1608089,"internal_node_id":"0.0-102.0"},{"result":150,"points":2,"place":1,"phase":1,"sequence":18,"times":[3597,475,995],"next_num":3,"trial_type":"ticket-choose","trial_index":103,"time_elapsed":1615482,"internal_node_id":"0.0-103.0"},{"result":158,"points":3,"place":0,"phase":1,"sequence":19,"times":[546,557,526,588,515,1205],"next_num":6,"trial_type":"ticket-choose","trial_index":104,"time_elapsed":1622802,"internal_node_id":"0.0-104.0"},{"result":138,"points":3,"place":0,"phase":1,"sequence":20,"times":[803,586,577,480,531,1151],"next_num":6,"trial_type":"ticket-choose","trial_index":105,"time_elapsed":1629881,"internal_node_id":"0.0-105.0"},{"result":166,"points":2,"place":1,"phase":1,"sequence":21,"times":[571,500,1174,558,497,546,1029],"next_num":7,"trial_type":"ticket-choose","trial_index":106,"time_elapsed":1638033,"internal_node_id":"0.0-106.0"},{"result":175,"points":2,"place":1,"phase":1,"sequence":22,"times":[665,509,1031],"next_num":3,"trial_type":"ticket-choose","trial_index":107,"time_elapsed":1642564,"internal_node_id":"0.0-107.0"},{"result":167,"points":2,"place":1,"phase":1,"sequence":23,"times":[720,536,1111],"next_num":3,"trial_type":"ticket-choose","trial_index":108,"time_elapsed":1647257,"internal_node_id":"0.0-108.0"},{"result":158,"points":2,"place":1,"phase":1,"sequence":24,"times":[644,523,1006],"next_num":3,"trial_type":"ticket-choose","trial_index":109,"time_elapsed":1651683,"internal_node_id":"0.0-109.0"},{"result":154,"points":2,"place":1,"phase":1,"sequence":25,"times":[626,511,1093],"next_num":3,"trial_type":"ticket-choose","trial_index":110,"time_elapsed":1656321,"internal_node_id":"0.0-110.0"},{"result":184,"points":1,"place":4,"phase":1,"sequence":26,"times":[548,481,494,485,596,597,562,572,559,926],"next_num":10,"trial_type":"ticket-choose","trial_index":111,"time_elapsed":1666113,"internal_node_id":"0.0-111.0"},{"result":163,"points":3,"place":0,"phase":1,"sequence":27,"times":[710,551,486,542,632,539,516,1155],"next_num":8,"trial_type":"ticket-choose","trial_index":112,"time_elapsed":1674676,"internal_node_id":"0.0-112.0"},{"result":170,"points":2,"place":1,"phase":1,"sequence":28,"times":[940,462,489,502,557,494,1140],"next_num":7,"trial_type":"ticket-choose","trial_index":113,"time_elapsed":1682728,"internal_node_id":"0.0-113.0"},{"result":143,"points":3,"place":0,"phase":1,"sequence":29,"times":[557,1158,527,527,1056],"next_num":5,"trial_type":"ticket-choose","trial_index":114,"time_elapsed":1689265,"internal_node_id":"0.0-114.0"},{"result":161,"points":1,"place":3,"phase":1,"sequence":30,"times":[671,450,1037],"next_num":3,"trial_type":"ticket-choose","trial_index":115,"time_elapsed":1693753,"internal_node_id":"0.0-115.0"},{"result":176,"points":1,"place":4,"phase":1,"sequence":31,"times":[723,430,640,543,521,476,933,508,588,1012],"next_num":10,"trial_type":"ticket-choose","trial_index":116,"time_elapsed":1704001,"internal_node_id":"0.0-116.0"},{"result":160,"points":1,"place":2,"phase":1,"sequence":32,"times":[544,476,526,1119],"next_num":4,"trial_type":"ticket-choose","trial_index":117,"time_elapsed":1709246,"internal_node_id":"0.0-117.0"},{"result":163,"points":2,"place":1,"phase":1,"sequence":33,"times":[488,511,1394,1167],"next_num":4,"trial_type":"ticket-choose","trial_index":118,"time_elapsed":1715425,"internal_node_id":"0.0-118.0"},{"result":172,"points":1,"place":2,"phase":1,"sequence":34,"times":[512,479,983,492,460,501,1406],"next_num":7,"trial_type":"ticket-choose","trial_index":119,"time_elapsed":1723577,"internal_node_id":"0.0-119.0"},{"result":144,"points":3,"place":0,"phase":1,"sequence":35,"times":[597,439,597,515,582,1158],"next_num":6,"trial_type":"ticket-choose","trial_index":120,"time_elapsed":1730575,"internal_node_id":"0.0-120.0"},{"result":155,"points":2,"place":1,"phase":1,"sequence":36,"times":[622,429,1063],"next_num":3,"trial_type":"ticket-choose","trial_index":121,"time_elapsed":1735057,"internal_node_id":"0.0-121.0"},{"result":152,"points":3,"place":0,"phase":1,"sequence":37,"times":[940],"next_num":1,"trial_type":"ticket-choose","trial_index":122,"time_elapsed":1737961,"internal_node_id":"0.0-122.0"},{"result":168,"points":1,"place":3,"phase":1,"sequence":38,"times":[888,508,1052],"next_num":3,"trial_type":"ticket-choose","trial_index":123,"time_elapsed":1742737,"internal_node_id":"0.0-123.0"},{"result":146,"points":3,"place":0,"phase":1,"sequence":39,"times":[568,466,1093],"next_num":3,"trial_type":"ticket-choose","trial_index":124,"time_elapsed":1747160,"internal_node_id":"0.0-124.0"},{"result":165,"points":2,"place":1,"phase":1,"sequence":40,"times":[5259,538,1000],"next_num":3,"trial_type":"ticket-choose","trial_index":125,"time_elapsed":1756289,"internal_node_id":"0.0-125.0"},{"result":186,"points":1,"place":4,"phase":1,"sequence":41,"times":[876,494,718,465,655,510,509,512,492,1014],"next_num":10,"trial_type":"ticket-choose","trial_index":126,"time_elapsed":1766424,"internal_node_id":"0.0-126.0"},{"result":161,"points":3,"place":0,"phase":1,"sequence":42,"times":[1755],"next_num":1,"trial_type":"ticket-choose","trial_index":127,"time_elapsed":1770331,"internal_node_id":"0.0-127.0"},{"result":150,"points":3,"place":0,"phase":1,"sequence":43,"times":[1046],"next_num":1,"trial_type":"ticket-choose","trial_index":128,"time_elapsed":1773474,"internal_node_id":"0.0-128.0"},{"result":175,"points":2,"place":1,"phase":1,"sequence":44,"times":[810,478,965,539,480,542,1114],"next_num":7,"trial_type":"ticket-choose","trial_index":129,"time_elapsed":1781842,"internal_node_id":"0.0-129.0"},{"result":159,"points":1,"place":2,"phase":1,"sequence":45,"times":[6342,1131],"next_num":2,"trial_type":"ticket-choose","trial_index":130,"time_elapsed":1791953,"internal_node_id":"0.0-130.0"},{"result":171,"points":1,"place":2,"phase":1,"sequence":46,"times":[736,507,1054,524,512,512,1185],"next_num":7,"trial_type":"ticket-choose","trial_index":131,"time_elapsed":1800305,"internal_node_id":"0.0-131.0"},{"result":156,"points":3,"place":0,"phase":1,"sequence":47,"times":[1242],"next_num":1,"trial_type":"ticket-choose","trial_index":132,"time_elapsed":1803744,"internal_node_id":"0.0-132.0"},{"result":155,"points":3,"place":0,"phase":1,"sequence":48,"times":[533,966],"next_num":2,"trial_type":"ticket-choose","trial_index":133,"time_elapsed":1807360,"internal_node_id":"0.0-133.0"},{"result":148,"points":3,"place":0,"phase":1,"sequence":49,"times":[867],"next_num":1,"trial_type":"ticket-choose","trial_index":134,"time_elapsed":1810439,"internal_node_id":"0.0-134.0"},{"responses":[{"value":1,"offby":1,"category":"$106 - $134","category_index":0},{"value":4,"offby":3,"category":"$135 - $150","category_index":1},{"value":4,"offby":1,"category":"$151 - $165","category_index":2},{"value":4,"offby":-2,"category":"$166 - $180","category_index":3},{"value":3,"offby":-3,"category":"$181 - $195","category_index":4},{"value":2,"offby":-1,"category":"$196 - $210","category_index":5},{"value":2,"offby":1,"category":"$211 - $225","category_index":6}],"phase":1,"number":1,"trial_type":"bar-choose","trial_index":135,"time_elapsed":1855550,"internal_node_id":"0.0-135.0"},{"during":"Nothing","bonus":276,"trial_type":"final","trial_index":136,"time_elapsed":1907239,"internal_node_id":"0.0-136.0"}],"bonus":276}