{"start_time":"2017-02-22 09:58:35","end_time":"2017-02-22 10:28:13","points_phase0":113,"points_phase1":116,"phase_order":1,"age":25,"gender":"m","tries":2,"during":"Nothing","worker_id":"A2HGAQ9WOEU9PN","assignment_id":"3PW9OPU9PRD0BHY4D6L5VISHJNF21N","data":[{"rt":4549,"url":"\/tickets\/utils\/consent.html","trial_type":"html","trial_index":0,"time_elapsed":4662,"internal_node_id":"0.0-0.0"},{"age":25,"gender":"m","trial_type":"age","trial_index":1,"time_elapsed":9807,"internal_node_id":"0.0-1.0"},{"worker_id":"A2HGAQ9WOEU9PN","trial_type":"workerid","trial_index":2,"time_elapsed":17959,"internal_node_id":"0.0-2.0"},{"tries":2,"trial_type":"instructions_check","trial_index":3,"time_elapsed":81155,"internal_node_id":"0.0-3.0"},{"rt":11481,"url":"\/tickets\/utils\/start.html","trial_type":"html","trial_index":4,"time_elapsed":93767,"internal_node_id":"0.0-4.0"},{"trial_type":"number-animation","trial_index":5,"time_elapsed":112927,"internal_node_id":"0.0-5.0"},{"phase":0,"sequence":0,"avg":182,"response":181,"trial_type":"training_avg","trial_index":6,"time_elapsed":127420,"internal_node_id":"0.0-6.0"},{"trial_type":"number-animation","trial_index":7,"time_elapsed":160594,"internal_node_id":"0.0-7.0"},{"phase":0,"sequence":1,"avg":188,"response":190,"trial_type":"training_avg","trial_index":8,"time_elapsed":168532,"internal_node_id":"0.0-8.0"},{"trial_type":"number-animation","trial_index":9,"time_elapsed":193932,"internal_node_id":"0.0-9.0"},{"phase":0,"sequence":2,"avg":176,"response":175,"trial_type":"training_avg","trial_index":10,"time_elapsed":200951,"internal_node_id":"0.0-10.0"},{"trial_type":"number-animation","trial_index":11,"time_elapsed":224851,"internal_node_id":"0.0-11.0"},{"phase":0,"sequence":3,"avg":180,"response":190,"trial_type":"training_avg","trial_index":12,"time_elapsed":234774,"internal_node_id":"0.0-12.0"},{"trial_type":"number-animation","trial_index":13,"time_elapsed":258868,"internal_node_id":"0.0-13.0"},{"phase":0,"sequence":4,"avg":174,"response":172,"trial_type":"training_avg","trial_index":14,"time_elapsed":269711,"internal_node_id":"0.0-14.0"},{"responses":[{"value":2,"offby":1,"category":"$90 - $120","category_index":0},{"value":2,"offby":-1,"category":"$121 - $145","category_index":1},{"value":4,"offby":1,"category":"$146 - $170","category_index":2},{"value":5,"offby":-1,"category":"$171 - $195","category_index":3},{"value":5,"offby":1,"category":"$196 - $220","category_index":4},{"value":2,"offby":0,"category":"$221 - $245","category_index":5},{"value":0,"offby":-1,"category":"$246 - $270","category_index":6}],"phase":0,"number":0,"trial_type":"bar-choose","trial_index":15,"time_elapsed":346549,"internal_node_id":"0.0-15.0"},{"rt":19889,"url":"\/tickets\/\/utils\/testing.html","trial_type":"html","trial_index":16,"time_elapsed":367617,"internal_node_id":"0.0-16.0"},{"phase":0,"order":[33,34,46,0,2,40,47,18,41,15,25,11,48,38,9,6,45,1,16,27,49,30,28,19,42,8,43,3,14,5,21,37,32,36,10,35,20,4,31,7,39,17,12,13,24,26,23,29,22,44],"trial_type":"store_order","trial_index":17,"time_elapsed":368620,"internal_node_id":"0.0-17.0"},{"result":126,"points":3,"place":0,"phase":0,"sequence":-1,"prices":[184,180,224,165,181,199,185,193,218,126],"times":[3285,1421,1165,2922,1110,934,876,832,1623,3480],"next_num":10,"trial_type":"ticket-choose","trial_index":18,"time_elapsed":391105,"internal_node_id":"0.0-18.0"},{"rt":16578,"url":"\/tickets\/utils\/testing_after.html","trial_type":"html","trial_index":19,"time_elapsed":408821,"internal_node_id":"0.0-19.0"},{"result":154,"points":2,"place":1,"phase":0,"sequence":0,"prices":[169,192,176,244,178,194,154,159,237,125],"times":[2674,1031,974,855,2166,895,1411],"next_num":7,"trial_type":"ticket-choose","trial_index":20,"time_elapsed":423421,"internal_node_id":"0.0-20.0"},{"result":121,"points":3,"place":0,"phase":0,"sequence":1,"prices":[121,191,128,141,166,217,129,196,202,157],"times":[2844],"next_num":1,"trial_type":"ticket-choose","trial_index":21,"time_elapsed":430186,"internal_node_id":"0.0-21.0"},{"result":128,"points":3,"place":0,"phase":0,"sequence":2,"prices":[196,221,149,164,216,167,175,128,176,181],"times":[1509,611,1822,971,740,1006,853,1269],"next_num":8,"trial_type":"ticket-choose","trial_index":22,"time_elapsed":443273,"internal_node_id":"0.0-22.0"},{"result":154,"points":2,"place":1,"phase":0,"sequence":3,"prices":[168,192,176,242,183,197,154,156,237,132],"times":[2107,685,638,684,732,902,1083],"next_num":7,"trial_type":"ticket-choose","trial_index":23,"time_elapsed":454525,"internal_node_id":"0.0-23.0"},{"result":136,"points":2,"place":1,"phase":0,"sequence":4,"prices":[173,191,174,270,180,193,136,153,239,129],"times":[4980,692,619,759,783,718,1412],"next_num":7,"trial_type":"ticket-choose","trial_index":24,"time_elapsed":468388,"internal_node_id":"0.0-24.0"},{"result":154,"points":2,"place":1,"phase":0,"sequence":5,"prices":[169,194,154,271,178,201,176,158,236,127],"times":[1494,700,1736],"next_num":3,"trial_type":"ticket-choose","trial_index":25,"time_elapsed":475196,"internal_node_id":"0.0-25.0"},{"result":136,"points":2,"place":1,"phase":0,"sequence":6,"prices":[171,192,136,265,180,194,174,152,239,127],"times":[1137,682,1161],"next_num":3,"trial_type":"ticket-choose","trial_index":26,"time_elapsed":481156,"internal_node_id":"0.0-26.0"},{"result":142,"points":3,"place":0,"phase":0,"sequence":7,"prices":[142,207,171,182,190,269,180,218,256,188],"times":[5974],"next_num":1,"trial_type":"ticket-choose","trial_index":27,"time_elapsed":490730,"internal_node_id":"0.0-27.0"},{"result":124,"points":3,"place":0,"phase":0,"sequence":8,"prices":[219,183,227,124,176,161,140,129,171,201],"times":[1510,667,642,1323],"next_num":4,"trial_type":"ticket-choose","trial_index":28,"time_elapsed":498201,"internal_node_id":"0.0-28.0"},{"result":135,"points":3,"place":0,"phase":0,"sequence":9,"prices":[135,202,150,169,183,225,160,211,220,172],"times":[1709],"next_num":1,"trial_type":"ticket-choose","trial_index":29,"time_elapsed":502788,"internal_node_id":"0.0-29.0"},{"result":146,"points":3,"place":0,"phase":0,"sequence":10,"prices":[156,218,212,216,191,210,275,146,174,152],"times":[2029,582,639,604,1208,659,819,1736],"next_num":8,"trial_type":"ticket-choose","trial_index":30,"time_elapsed":515341,"internal_node_id":"0.0-30.0"},{"result":136,"points":2,"place":1,"phase":0,"sequence":11,"prices":[170,192,174,242,181,196,136,153,236,128],"times":[1384,580,529,582,666,796,1229],"next_num":7,"trial_type":"ticket-choose","trial_index":31,"time_elapsed":524803,"internal_node_id":"0.0-31.0"},{"result":154,"points":2,"place":1,"phase":0,"sequence":12,"prices":[170,193,176,245,178,194,154,159,236,126],"times":[1488,909,691,643,700,761,2785],"next_num":7,"trial_type":"ticket-choose","trial_index":32,"time_elapsed":536956,"internal_node_id":"0.0-32.0"},{"result":149,"points":3,"place":0,"phase":0,"sequence":13,"prices":[244,203,196,189,154,206,197,149,171,159],"times":[1620,720,675,663,1483,720,723,1294],"next_num":8,"trial_type":"ticket-choose","trial_index":33,"time_elapsed":549132,"internal_node_id":"0.0-33.0"},{"result":136,"points":2,"place":1,"phase":0,"sequence":14,"prices":[171,192,136,243,182,195,174,154,236,128],"times":[1394,762,1053],"next_num":3,"trial_type":"ticket-choose","trial_index":34,"time_elapsed":555517,"internal_node_id":"0.0-34.0"},{"result":137,"points":3,"place":0,"phase":0,"sequence":15,"prices":[137,187,152,156,166,231,155,194,202,160],"times":[1412],"next_num":1,"trial_type":"ticket-choose","trial_index":35,"time_elapsed":559423,"internal_node_id":"0.0-35.0"},{"result":146,"points":2,"place":1,"phase":0,"sequence":16,"prices":[170,193,146,268,178,195,172,149,126,241],"times":[1657,738,1316],"next_num":3,"trial_type":"ticket-choose","trial_index":36,"time_elapsed":565989,"internal_node_id":"0.0-36.0"},{"result":133,"points":3,"place":0,"phase":0,"sequence":17,"prices":[168,192,154,237,182,196,176,156,235,133],"times":[1469,589,1189,624,717,849,909,1915,900,1255],"next_num":10,"trial_type":"ticket-choose","trial_index":37,"time_elapsed":580817,"internal_node_id":"0.0-37.0"},{"result":146,"points":2,"place":1,"phase":0,"sequence":18,"prices":[168,191,172,240,183,193,146,151,125,238],"times":[1458,879,798,675,703,972,3076],"next_num":7,"trial_type":"ticket-choose","trial_index":38,"time_elapsed":593245,"internal_node_id":"0.0-38.0"},{"result":189,"points":1,"place":4,"phase":0,"sequence":19,"prices":[157,213,159,187,194,242,161,222,225,189],"times":[1795,616,1442,757,692,732,1192,883,1045,1531],"next_num":10,"trial_type":"ticket-choose","trial_index":39,"time_elapsed":608700,"internal_node_id":"0.0-39.0"},{"result":153,"points":2,"place":1,"phase":0,"sequence":20,"prices":[197,153,181,215,150,155,164,247,177,162],"times":[1117,2087],"next_num":2,"trial_type":"ticket-choose","trial_index":40,"time_elapsed":614653,"internal_node_id":"0.0-40.0"},{"result":131,"points":2,"place":1,"phase":0,"sequence":21,"prices":[221,234,131,136,132,149,154,90,176,173],"times":[3435,2594,1340],"next_num":3,"trial_type":"ticket-choose","trial_index":41,"time_elapsed":624693,"internal_node_id":"0.0-41.0"},{"result":136,"points":2,"place":1,"phase":0,"sequence":22,"prices":[169,192,174,246,180,195,136,152,238,126],"times":[1461,1084,1409,640,733,844,1175],"next_num":7,"trial_type":"ticket-choose","trial_index":42,"time_elapsed":637993,"internal_node_id":"0.0-42.0"},{"result":146,"points":2,"place":1,"phase":0,"sequence":23,"prices":[172,191,176,272,179,194,146,152,126,235],"times":[1896,638,631,643,653,649,1179],"next_num":7,"trial_type":"ticket-choose","trial_index":43,"time_elapsed":647992,"internal_node_id":"0.0-43.0"},{"result":146,"points":2,"place":1,"phase":0,"sequence":24,"prices":[169,193,146,237,180,196,172,150,129,236],"times":[2694,669,1568],"next_num":3,"trial_type":"ticket-choose","trial_index":44,"time_elapsed":661379,"internal_node_id":"0.0-44.0"},{"result":154,"points":2,"place":1,"phase":0,"sequence":25,"prices":[169,191,154,268,183,197,176,155,236,133],"times":[1705,764,1230],"next_num":3,"trial_type":"ticket-choose","trial_index":45,"time_elapsed":667851,"internal_node_id":"0.0-45.0"},{"result":136,"points":3,"place":0,"phase":0,"sequence":26,"prices":[240,188,273,207,250,136,217,170,171,236],"times":[8336,922,586,550,692,1321],"next_num":6,"trial_type":"ticket-choose","trial_index":46,"time_elapsed":684292,"internal_node_id":"0.0-46.0"},{"result":146,"points":2,"place":1,"phase":0,"sequence":27,"prices":[171,191,172,268,179,194,146,150,127,239],"times":[1330,603,611,614,747,1008,1393],"next_num":7,"trial_type":"ticket-choose","trial_index":47,"time_elapsed":693923,"internal_node_id":"0.0-47.0"},{"result":130,"points":2,"place":1,"phase":0,"sequence":28,"prices":[181,130,116,142,157,193,165,218,173,207],"times":[1789,1106],"next_num":2,"trial_type":"ticket-choose","trial_index":48,"time_elapsed":699234,"internal_node_id":"0.0-48.0"},{"result":138,"points":1,"place":2,"phase":0,"sequence":29,"prices":[181,138,118,170,190,101,146,169,175,233],"times":[2284,1443],"next_num":2,"trial_type":"ticket-choose","trial_index":49,"time_elapsed":705763,"internal_node_id":"0.0-49.0"},{"result":136,"points":2,"place":1,"phase":0,"sequence":30,"prices":[173,194,136,239,182,200,174,150,236,127],"times":[1156,564,1071],"next_num":3,"trial_type":"ticket-choose","trial_index":50,"time_elapsed":711405,"internal_node_id":"0.0-50.0"},{"result":135,"points":3,"place":0,"phase":0,"sequence":31,"prices":[221,193,135,188,217,179,196,190,175,159],"times":[1010,583,1457],"next_num":3,"trial_type":"ticket-choose","trial_index":51,"time_elapsed":718035,"internal_node_id":"0.0-51.0"},{"result":154,"points":2,"place":1,"phase":0,"sequence":32,"prices":[170,190,176,251,183,192,154,157,236,131],"times":[1369,663,720,733,616,666,2181],"next_num":7,"trial_type":"ticket-choose","trial_index":52,"time_elapsed":728456,"internal_node_id":"0.0-52.0"},{"result":145,"points":2,"place":1,"phase":0,"sequence":33,"prices":[216,206,158,145,224,185,124,149,175,162],"times":[924,615,1450,1168],"next_num":4,"trial_type":"ticket-choose","trial_index":53,"time_elapsed":735328,"internal_node_id":"0.0-53.0"},{"result":136,"points":2,"place":1,"phase":0,"sequence":34,"prices":[172,194,174,243,182,193,136,150,237,126],"times":[938,556,699,621,657,1128,1116],"next_num":7,"trial_type":"ticket-choose","trial_index":54,"time_elapsed":744471,"internal_node_id":"0.0-54.0"},{"result":105,"points":3,"place":0,"phase":0,"sequence":35,"prices":[263,165,224,214,105,230,215,185,177,193],"times":[3302,1510,608,722,1243],"next_num":5,"trial_type":"ticket-choose","trial_index":55,"time_elapsed":755289,"internal_node_id":"0.0-55.0"},{"result":129,"points":3,"place":0,"phase":0,"sequence":36,"prices":[172,190,136,270,179,192,174,152,237,129],"times":[905,581,2768,647,757,650,878,891,843,1561],"next_num":10,"trial_type":"ticket-choose","trial_index":56,"time_elapsed":770620,"internal_node_id":"0.0-56.0"},{"result":117,"points":3,"place":0,"phase":0,"sequence":37,"prices":[117,161,120,147,153,259,144,191,195,149],"times":[1547],"next_num":1,"trial_type":"ticket-choose","trial_index":57,"time_elapsed":774356,"internal_node_id":"0.0-57.0"},{"result":124,"points":3,"place":0,"phase":0,"sequence":38,"prices":[124,220,136,165,185,234,143,225,228,179],"times":[1715],"next_num":1,"trial_type":"ticket-choose","trial_index":58,"time_elapsed":778220,"internal_node_id":"0.0-58.0"},{"result":119,"points":3,"place":0,"phase":0,"sequence":39,"prices":[198,119,169,141,195,233,136,208,177,217],"times":[1421,1143],"next_num":2,"trial_type":"ticket-choose","trial_index":59,"time_elapsed":783111,"internal_node_id":"0.0-59.0"},{"result":179,"points":1,"place":4,"phase":0,"sequence":40,"prices":[132,222,144,153,190,248,151,224,228,179],"times":[3137,587,752,748,815,690,1008,853,812,1584],"next_num":10,"trial_type":"ticket-choose","trial_index":60,"time_elapsed":798283,"internal_node_id":"0.0-60.0"},{"result":146,"points":2,"place":1,"phase":0,"sequence":41,"prices":[168,191,146,252,183,193,172,153,126,238],"times":[1653,636,2042],"next_num":3,"trial_type":"ticket-choose","trial_index":61,"time_elapsed":804972,"internal_node_id":"0.0-61.0"},{"result":192,"points":1,"place":4,"phase":0,"sequence":42,"prices":[157,205,161,175,197,254,165,210,214,192],"times":[2035,629,1111,825,1070,749,1129,867,648,1156],"next_num":10,"trial_type":"ticket-choose","trial_index":62,"time_elapsed":819266,"internal_node_id":"0.0-62.0"},{"result":146,"points":2,"place":1,"phase":0,"sequence":43,"prices":[173,191,146,242,178,194,172,152,126,235],"times":[1685,923,1030],"next_num":3,"trial_type":"ticket-choose","trial_index":63,"time_elapsed":825298,"internal_node_id":"0.0-63.0"},{"result":146,"points":1,"place":2,"phase":0,"sequence":44,"prices":[186,146,191,179,152,116,140,201,172,187],"times":[1970,1207],"next_num":2,"trial_type":"ticket-choose","trial_index":64,"time_elapsed":830717,"internal_node_id":"0.0-64.0"},{"result":146,"points":2,"place":1,"phase":0,"sequence":45,"prices":[171,195,172,242,179,196,146,150,128,235],"times":[1139,640,1111,725,739,836,1061],"next_num":7,"trial_type":"ticket-choose","trial_index":65,"time_elapsed":840389,"internal_node_id":"0.0-65.0"},{"result":143,"points":3,"place":0,"phase":0,"sequence":46,"prices":[143,206,153,194,201,267,168,208,210,196],"times":[1785],"next_num":1,"trial_type":"ticket-choose","trial_index":66,"time_elapsed":845641,"internal_node_id":"0.0-66.0"},{"result":129,"points":2,"place":1,"phase":0,"sequence":47,"prices":[155,129,164,189,210,108,187,241,174,275],"times":[2378,1127],"next_num":2,"trial_type":"ticket-choose","trial_index":67,"time_elapsed":851729,"internal_node_id":"0.0-67.0"},{"result":114,"points":3,"place":0,"phase":0,"sequence":48,"prices":[182,249,159,114,184,205,175,189,172,178],"times":[980,675,1051,1179],"next_num":4,"trial_type":"ticket-choose","trial_index":68,"time_elapsed":858585,"internal_node_id":"0.0-68.0"},{"result":154,"points":2,"place":1,"phase":0,"sequence":49,"prices":[169,193,154,255,178,194,176,158,239,126],"times":[1950,635,2411],"next_num":3,"trial_type":"ticket-choose","trial_index":69,"time_elapsed":866121,"internal_node_id":"0.0-69.0"},{"responses":[{"value":2,"offby":1,"category":"$90 - $120","category_index":0},{"value":5,"offby":2,"category":"$121 - $145","category_index":1},{"value":4,"offby":1,"category":"$146 - $170","category_index":2},{"value":6,"offby":0,"category":"$171 - $195","category_index":3},{"value":2,"offby":-2,"category":"$196 - $220","category_index":4},{"value":1,"offby":-1,"category":"$221 - $245","category_index":5},{"value":0,"offby":-1,"category":"$246 - $270","category_index":6}],"phase":0,"number":1,"trial_type":"bar-choose","trial_index":70,"time_elapsed":917502,"internal_node_id":"0.0-70.0"},{"rt":16963,"url":"\/tickets\/utils\/start2.html","trial_type":"html","trial_index":71,"time_elapsed":935605,"internal_node_id":"0.0-71.0"},{"trial_type":"number-animation","trial_index":72,"time_elapsed":954694,"internal_node_id":"0.0-72.0"},{"phase":1,"sequence":0,"avg":181,"response":180,"trial_type":"training_avg","trial_index":73,"time_elapsed":960687,"internal_node_id":"0.0-73.0"},{"trial_type":"number-animation","trial_index":74,"time_elapsed":981513,"internal_node_id":"0.0-74.0"},{"phase":1,"sequence":1,"avg":188,"response":190,"trial_type":"training_avg","trial_index":75,"time_elapsed":988226,"internal_node_id":"0.0-75.0"},{"trial_type":"number-animation","trial_index":76,"time_elapsed":1007025,"internal_node_id":"0.0-76.0"},{"phase":1,"sequence":2,"avg":188,"response":182,"trial_type":"training_avg","trial_index":77,"time_elapsed":1014736,"internal_node_id":"0.0-77.0"},{"trial_type":"number-animation","trial_index":78,"time_elapsed":1033794,"internal_node_id":"0.0-78.0"},{"phase":1,"sequence":3,"avg":177,"response":175,"trial_type":"training_avg","trial_index":79,"time_elapsed":1039341,"internal_node_id":"0.0-79.0"},{"trial_type":"number-animation","trial_index":80,"time_elapsed":1058833,"internal_node_id":"0.0-80.0"},{"phase":1,"sequence":4,"avg":182,"response":180,"trial_type":"training_avg","trial_index":81,"time_elapsed":1065631,"internal_node_id":"0.0-81.0"},{"responses":[{"value":0,"offby":0,"category":"$106 - $134","category_index":0},{"value":3,"offby":2,"category":"$135 - $150","category_index":1},{"value":5,"offby":2,"category":"$151 - $165","category_index":2},{"value":6,"offby":0,"category":"$166 - $180","category_index":3},{"value":4,"offby":-2,"category":"$181 - $195","category_index":4},{"value":2,"offby":-1,"category":"$196 - $210","category_index":5},{"value":0,"offby":-1,"category":"$211 - $225","category_index":6}],"phase":1,"number":0,"trial_type":"bar-choose","trial_index":82,"time_elapsed":1098663,"internal_node_id":"0.0-82.0"},{"rt":5200,"url":"\/tickets\/utils\/testing2.html","trial_type":"html","trial_index":83,"time_elapsed":1105002,"internal_node_id":"0.0-83.0"},{"phase":1,"order":[14,29,36,12,23,11,16,24,47,30,38,21,15,45,17,33,3,8,6,28,39,41,20,4,1,9,46,7,34,44,18,43,13,37,22,42,19,31,26,40,25,2,27,0,49,5,32,35,48,10],"trial_type":"store_order","trial_index":84,"time_elapsed":1106015,"internal_node_id":"0.0-84.0"},{"result":170,"points":1,"place":4,"phase":1,"sequence":0,"prices":[159,183,166,168,173,205,167,187,191,170],"times":[2174,2236,835,1137,750,680,835,789,1290,1323],"next_num":10,"trial_type":"ticket-choose","trial_index":85,"time_elapsed":1122437,"internal_node_id":"0.0-85.0"},{"result":155,"points":2,"place":1,"phase":1,"sequence":1,"prices":[181,155,148,161,168,187,172,199,176,194],"times":[1274,957],"next_num":2,"trial_type":"ticket-choose","trial_index":86,"time_elapsed":1127017,"internal_node_id":"0.0-86.0"},{"result":158,"points":3,"place":0,"phase":1,"sequence":2,"prices":[210,184,226,193,215,158,199,175,176,208],"times":[1185,566,669,653,670,1150],"next_num":6,"trial_type":"ticket-choose","trial_index":87,"time_elapsed":1135267,"internal_node_id":"0.0-87.0"},{"result":166,"points":1,"place":2,"phase":1,"sequence":3,"prices":[176,186,163,214,179,187,176,166,153,208],"times":[1403,924,1557,646,861,644,845,3293],"next_num":8,"trial_type":"ticket-choose","trial_index":88,"time_elapsed":1149096,"internal_node_id":"0.0-88.0"},{"result":153,"points":3,"place":0,"phase":1,"sequence":4,"prices":[174,186,163,212,181,187,176,166,153,209],"times":[1247,1086,868,628,731,841,1693,1282,1075],"next_num":9,"trial_type":"ticket-choose","trial_index":89,"time_elapsed":1162770,"internal_node_id":"0.0-89.0"},{"result":150,"points":3,"place":0,"phase":1,"sequence":5,"prices":[189,150,175,160,188,207,158,194,178,199],"times":[1707,1681],"next_num":2,"trial_type":"ticket-choose","trial_index":90,"time_elapsed":1169115,"internal_node_id":"0.0-90.0"},{"result":152,"points":3,"place":0,"phase":1,"sequence":6,"prices":[200,181,203,152,175,171,160,154,176,191],"times":[98538,2752,642,1120],"next_num":4,"trial_type":"ticket-choose","trial_index":91,"time_elapsed":1274804,"internal_node_id":"0.0-91.0"},{"result":158,"points":2,"place":1,"phase":1,"sequence":7,"prices":[176,187,158,210,181,187,177,165,208,153],"times":[946,581,1005],"next_num":3,"trial_type":"ticket-choose","trial_index":92,"time_elapsed":1279740,"internal_node_id":"0.0-92.0"},{"result":155,"points":2,"place":1,"phase":1,"sequence":8,"prices":[201,207,155,158,156,165,167,135,178,177],"times":[857,632,1076],"next_num":3,"trial_type":"ticket-choose","trial_index":93,"time_elapsed":1284586,"internal_node_id":"0.0-93.0"},{"result":153,"points":3,"place":0,"phase":1,"sequence":9,"prices":[175,187,178,209,179,187,167,169,208,153],"times":[591,692,735,697,671,671,700,659,969,871],"next_num":10,"trial_type":"ticket-choose","trial_index":94,"time_elapsed":1296173,"internal_node_id":"0.0-94.0"},{"result":156,"points":3,"place":0,"phase":1,"sequence":10,"prices":[156,201,162,166,185,214,165,202,204,179],"times":[1305],"next_num":1,"trial_type":"ticket-choose","trial_index":95,"time_elapsed":1299607,"internal_node_id":"0.0-95.0"},{"result":153,"points":3,"place":0,"phase":1,"sequence":11,"prices":[175,187,167,212,179,187,178,169,208,153],"times":[1258,534,692,605,589,596,620,692,659,898],"next_num":10,"trial_type":"ticket-choose","trial_index":96,"time_elapsed":1310688,"internal_node_id":"0.0-96.0"},{"result":147,"points":3,"place":0,"phase":1,"sequence":12,"prices":[181,215,169,147,182,193,177,184,176,179],"times":[846,655,683,1835],"next_num":4,"trial_type":"ticket-choose","trial_index":97,"time_elapsed":1317210,"internal_node_id":"0.0-97.0"},{"result":166,"points":2,"place":1,"phase":1,"sequence":13,"prices":[168,199,196,198,185,195,227,163,177,166],"times":[8457,550,598,588,641,635,593,1440,850,1239],"next_num":10,"trial_type":"ticket-choose","trial_index":98,"time_elapsed":1336804,"internal_node_id":"0.0-98.0"},{"result":156,"points":3,"place":0,"phase":1,"sequence":14,"prices":[175,185,167,224,181,186,178,168,208,156],"times":[1223,595,1500,593,586,601,789,1299,893,904],"next_num":10,"trial_type":"ticket-choose","trial_index":99,"time_elapsed":1350117,"internal_node_id":"0.0-99.0"},{"result":153,"points":3,"place":0,"phase":1,"sequence":15,"prices":[174,186,176,217,181,187,163,166,153,209],"times":[1135,602,629,642,867,651,1279,1443,1050],"next_num":9,"trial_type":"ticket-choose","trial_index":100,"time_elapsed":1362125,"internal_node_id":"0.0-100.0"},{"result":170,"points":1,"place":2,"phase":1,"sequence":16,"prices":[212,192,188,184,167,193,189,164,176,170],"times":[1641,55300,582,626,921,948,691,707,675,1051],"next_num":10,"trial_type":"ticket-choose","trial_index":101,"time_elapsed":1429462,"internal_node_id":"0.0-101.0"},{"result":154,"points":3,"place":0,"phase":1,"sequence":17,"prices":[175,187,163,209,180,188,176,165,154,208],"times":[819,577,811,571,631,541,1125,1538,950],"next_num":9,"trial_type":"ticket-choose","trial_index":102,"time_elapsed":1440857,"internal_node_id":"0.0-102.0"},{"result":158,"points":2,"place":1,"phase":1,"sequence":18,"prices":[175,186,158,211,180,187,177,166,209,153],"times":[1424,551,1062],"next_num":3,"trial_type":"ticket-choose","trial_index":103,"time_elapsed":1446373,"internal_node_id":"0.0-103.0"},{"result":186,"points":1,"place":4,"phase":1,"sequence":19,"prices":[168,192,171,178,188,217,172,195,197,186],"times":[1389,597,1883,565,628,645,798,677,734,854],"next_num":10,"trial_type":"ticket-choose","trial_index":104,"time_elapsed":1459016,"internal_node_id":"0.0-104.0"},{"result":148,"points":3,"place":0,"phase":1,"sequence":20,"prices":[183,163,185,180,166,148,160,186,176,184],"times":[800,1788,644,539,899,1086],"next_num":6,"trial_type":"ticket-choose","trial_index":105,"time_elapsed":1467709,"internal_node_id":"0.0-105.0"},{"result":157,"points":3,"place":0,"phase":1,"sequence":21,"prices":[157,191,165,175,182,203,170,195,200,176],"times":[1873],"next_num":1,"trial_type":"ticket-choose","trial_index":106,"time_elapsed":1471838,"internal_node_id":"0.0-106.0"},{"result":185,"points":1,"place":4,"phase":1,"sequence":22,"prices":[169,196,170,184,187,211,171,201,202,185],"times":[1103,556,620,610,537,684,1324,695,616,1262],"next_num":10,"trial_type":"ticket-choose","trial_index":107,"time_elapsed":1483649,"internal_node_id":"0.0-107.0"},{"result":158,"points":2,"place":1,"phase":1,"sequence":23,"prices":[176,185,158,217,180,186,177,166,209,154],"times":[1035,621,1115],"next_num":3,"trial_type":"ticket-choose","trial_index":108,"time_elapsed":1488737,"internal_node_id":"0.0-108.0"},{"result":186,"points":1,"place":4,"phase":1,"sequence":24,"prices":[222,173,202,197,143,205,198,183,178,186],"times":[880,558,650,579,1083,1184,1085,1084,854,899],"next_num":10,"trial_type":"ticket-choose","trial_index":109,"time_elapsed":1501509,"internal_node_id":"0.0-109.0"},{"result":167,"points":2,"place":1,"phase":1,"sequence":25,"prices":[174,186,167,211,181,188,178,168,208,156],"times":[660,734,1130],"next_num":3,"trial_type":"ticket-choose","trial_index":110,"time_elapsed":1506707,"internal_node_id":"0.0-110.0"},{"result":157,"points":3,"place":0,"phase":1,"sequence":26,"prices":[201,187,157,184,198,179,188,185,178,170],"times":[723,618,1007],"next_num":3,"trial_type":"ticket-choose","trial_index":111,"time_elapsed":1511342,"internal_node_id":"0.0-111.0"},{"result":163,"points":2,"place":1,"phase":1,"sequence":27,"prices":[175,186,163,211,179,187,176,165,153,210],"times":[697,629,990],"next_num":3,"trial_type":"ticket-choose","trial_index":112,"time_elapsed":1515958,"internal_node_id":"0.0-112.0"},{"result":153,"points":3,"place":0,"phase":1,"sequence":28,"prices":[175,186,178,212,179,187,167,169,209,153],"times":[983,1078,850,622,611,649,1275,906,894,937],"next_num":10,"trial_type":"ticket-choose","trial_index":113,"time_elapsed":1528544,"internal_node_id":"0.0-113.0"},{"result":154,"points":3,"place":0,"phase":1,"sequence":29,"prices":[175,187,176,209,180,188,163,165,154,208],"times":[1012,576,678,604,551,588,1846,1044,996],"next_num":9,"trial_type":"ticket-choose","trial_index":114,"time_elapsed":1540091,"internal_node_id":"0.0-114.0"},{"result":158,"points":2,"place":1,"phase":1,"sequence":30,"prices":[175,186,177,209,181,188,158,167,208,154],"times":[1327,739,657,618,750,604,1037],"next_num":7,"trial_type":"ticket-choose","trial_index":115,"time_elapsed":1548890,"internal_node_id":"0.0-115.0"},{"result":152,"points":3,"place":0,"phase":1,"sequence":31,"prices":[198,193,169,163,202,182,152,164,177,171],"times":[871,640,864,674,676,952,1152],"next_num":7,"trial_type":"ticket-choose","trial_index":116,"time_elapsed":1558355,"internal_node_id":"0.0-116.0"},{"result":188,"points":1,"place":4,"phase":1,"sequence":32,"prices":[161,193,167,187,190,224,174,194,195,188],"times":[1248,1018,1086,957,832,965,905,796,827,1071],"next_num":10,"trial_type":"ticket-choose","trial_index":117,"time_elapsed":1572122,"internal_node_id":"0.0-117.0"},{"result":154,"points":3,"place":0,"phase":1,"sequence":33,"prices":[188,200,165,172,198,174,177,154,177,180],"times":[809,655,1429,653,1016,800,654,1085],"next_num":8,"trial_type":"ticket-choose","trial_index":118,"time_elapsed":1582822,"internal_node_id":"0.0-118.0"},{"result":169,"points":1,"place":2,"phase":1,"sequence":34,"prices":[175,186,167,225,179,187,178,169,209,153],"times":[1048,760,1456,656,808,863,573,1050],"next_num":8,"trial_type":"ticket-choose","trial_index":119,"time_elapsed":1593504,"internal_node_id":"0.0-119.0"},{"result":154,"points":2,"place":1,"phase":1,"sequence":35,"prices":[168,154,172,185,195,144,184,211,177,227],"times":[1080,985],"next_num":2,"trial_type":"ticket-choose","trial_index":120,"time_elapsed":1597613,"internal_node_id":"0.0-120.0"},{"result":158,"points":2,"place":1,"phase":1,"sequence":36,"prices":[175,186,177,221,180,187,158,166,209,153],"times":[981,654,569,651,660,600,1020],"next_num":7,"trial_type":"ticket-choose","trial_index":121,"time_elapsed":1605859,"internal_node_id":"0.0-121.0"},{"result":153,"points":3,"place":0,"phase":1,"sequence":37,"prices":[176,186,176,210,179,187,163,166,153,208],"times":[1255,751,890,769,790,920,2369,1066,982],"next_num":9,"trial_type":"ticket-choose","trial_index":122,"time_elapsed":1619235,"internal_node_id":"0.0-122.0"},{"result":148,"points":3,"place":0,"phase":1,"sequence":38,"prices":[148,171,150,163,167,220,162,186,187,165],"times":[1326],"next_num":1,"trial_type":"ticket-choose","trial_index":123,"time_elapsed":1622958,"internal_node_id":"0.0-123.0"},{"result":163,"points":2,"place":1,"phase":1,"sequence":39,"prices":[175,186,176,224,179,187,163,165,153,210],"times":[1259,644,836,658,675,731,1691],"next_num":7,"trial_type":"ticket-choose","trial_index":124,"time_elapsed":1633440,"internal_node_id":"0.0-124.0"},{"result":165,"points":3,"place":0,"phase":1,"sequence":40,"prices":[189,167,180,197,165,168,172,213,178,171],"times":[2794,1172,646,583,3118],"next_num":5,"trial_type":"ticket-choose","trial_index":125,"time_elapsed":1644583,"internal_node_id":"0.0-125.0"},{"result":158,"points":2,"place":1,"phase":1,"sequence":41,"prices":[175,186,158,209,181,188,177,167,208,154],"times":[1361,748,996],"next_num":3,"trial_type":"ticket-choose","trial_index":126,"time_elapsed":1649851,"internal_node_id":"0.0-126.0"},{"result":167,"points":2,"place":1,"phase":1,"sequence":42,"prices":[174,186,178,217,181,188,167,168,208,156],"times":[746,604,618,611,700,551,1613],"next_num":7,"trial_type":"ticket-choose","trial_index":127,"time_elapsed":1658672,"internal_node_id":"0.0-127.0"},{"result":156,"points":3,"place":0,"phase":1,"sequence":43,"prices":[175,185,178,215,181,186,167,168,208,156],"times":[1278,650,594,594,617,658,1902,1668,595,1036],"next_num":10,"trial_type":"ticket-choose","trial_index":128,"time_elapsed":1672381,"internal_node_id":"0.0-128.0"},{"result":161,"points":3,"place":0,"phase":1,"sequence":44,"prices":[161,193,175,181,185,224,180,199,218,184],"times":[1761],"next_num":1,"trial_type":"ticket-choose","trial_index":129,"time_elapsed":1676166,"internal_node_id":"0.0-129.0"},{"result":152,"points":3,"place":0,"phase":1,"sequence":45,"prices":[152,200,158,173,182,207,161,202,204,180],"times":[999],"next_num":1,"trial_type":"ticket-choose","trial_index":130,"time_elapsed":1679150,"internal_node_id":"0.0-130.0"},{"result":158,"points":2,"place":1,"phase":1,"sequence":46,"prices":[176,185,177,218,180,186,158,166,209,154],"times":[1459,627,607,609,622,666,1666],"next_num":7,"trial_type":"ticket-choose","trial_index":131,"time_elapsed":1688890,"internal_node_id":"0.0-131.0"},{"result":150,"points":3,"place":0,"phase":1,"sequence":47,"prices":[150,185,154,161,173,199,155,188,191,168],"times":[928],"next_num":1,"trial_type":"ticket-choose","trial_index":132,"time_elapsed":1691997,"internal_node_id":"0.0-132.0"},{"result":158,"points":2,"place":1,"phase":1,"sequence":48,"prices":[176,187,177,225,181,187,158,165,208,153],"times":[830,571,577,615,625,565,1135],"next_num":7,"trial_type":"ticket-choose","trial_index":133,"time_elapsed":1700204,"internal_node_id":"0.0-133.0"},{"result":159,"points":1,"place":2,"phase":1,"sequence":49,"prices":[180,159,149,175,185,141,163,174,178,207],"times":[827,1003],"next_num":2,"trial_type":"ticket-choose","trial_index":134,"time_elapsed":1704416,"internal_node_id":"0.0-134.0"},{"responses":[{"value":0,"offby":0,"category":"$106 - $134","category_index":0},{"value":2,"offby":1,"category":"$135 - $150","category_index":1},{"value":4,"offby":1,"category":"$151 - $165","category_index":2},{"value":6,"offby":0,"category":"$166 - $180","category_index":3},{"value":6,"offby":0,"category":"$181 - $195","category_index":4},{"value":2,"offby":-1,"category":"$196 - $210","category_index":5},{"value":0,"offby":-1,"category":"$211 - $225","category_index":6}],"phase":1,"number":1,"trial_type":"bar-choose","trial_index":135,"time_elapsed":1744863,"internal_node_id":"0.0-135.0"},{"special_comment":"No","trial_type":"special_sequence","trial_index":136,"time_elapsed":1751425,"internal_node_id":"0.0-136.0"},{"during":"Nothing","bonus":304,"trial_type":"final","trial_index":137,"time_elapsed":1774127,"internal_node_id":"0.0-137.0"}],"bonus":304}