{"start_time":"2017-02-21 10:48:30","end_time":"2017-02-21 11:13:45","points_phase0":103,"points_phase1":55,"phase_order":1,"age":23,"gender":"m","tries":1,"during":"Nothing","worker_id":"A2JCHN90PRUWDH","assignment_id":"3Z7EFSHGNA7LZ0BZHSVI24540OIXCK","data":[{"rt":3413,"url":"\/tickets\/utils\/consent.html","trial_type":"html","trial_index":0,"time_elapsed":3914,"internal_node_id":"0.0-0.0"},{"age":23,"gender":"m","trial_type":"age","trial_index":1,"time_elapsed":13990,"internal_node_id":"0.0-1.0"},{"worker_id":"A2JCHN90PRUWDH","trial_type":"workerid","trial_index":2,"time_elapsed":26745,"internal_node_id":"0.0-2.0"},{"tries":1,"trial_type":"instructions_check","trial_index":3,"time_elapsed":36305,"internal_node_id":"0.0-3.0"},{"rt":4283,"url":"\/tickets\/utils\/start.html","trial_type":"html","trial_index":4,"time_elapsed":41759,"internal_node_id":"0.0-4.0"},{"trial_type":"number-animation","trial_index":5,"time_elapsed":51509,"internal_node_id":"0.0-5.0"},{"phase":0,"sequence":0,"avg":182,"response":170,"trial_type":"training_avg","trial_index":6,"time_elapsed":62468,"internal_node_id":"0.0-6.0"},{"trial_type":"number-animation","trial_index":7,"time_elapsed":450914,"internal_node_id":"0.0-7.0"},{"phase":0,"sequence":1,"avg":188,"response":192,"trial_type":"training_avg","trial_index":8,"time_elapsed":463745,"internal_node_id":"0.0-8.0"},{"trial_type":"number-animation","trial_index":9,"time_elapsed":483649,"internal_node_id":"0.0-9.0"},{"phase":0,"sequence":2,"avg":176,"response":167,"trial_type":"training_avg","trial_index":10,"time_elapsed":489884,"internal_node_id":"0.0-10.0"},{"trial_type":"number-animation","trial_index":11,"time_elapsed":498218,"internal_node_id":"0.0-11.0"},{"phase":0,"sequence":3,"avg":180,"response":173,"trial_type":"training_avg","trial_index":12,"time_elapsed":504592,"internal_node_id":"0.0-12.0"},{"trial_type":"number-animation","trial_index":13,"time_elapsed":524909,"internal_node_id":"0.0-13.0"},{"phase":0,"sequence":4,"avg":174,"response":154,"trial_type":"training_avg","trial_index":14,"time_elapsed":535469,"internal_node_id":"0.0-14.0"},{"responses":[{"value":0,"offby":-1,"category":"$90 - $120","category_index":0},{"value":3,"offby":0,"category":"$121 - $145","category_index":1},{"value":6,"offby":3,"category":"$146 - $170","category_index":2},{"value":8,"offby":2,"category":"$171 - $195","category_index":3},{"value":2,"offby":-2,"category":"$196 - $220","category_index":4},{"value":1,"offby":-1,"category":"$221 - $245","category_index":5},{"value":0,"offby":-1,"category":"$246 - $270","category_index":6}],"phase":0,"number":0,"trial_type":"bar-choose","trial_index":15,"time_elapsed":569710,"internal_node_id":"0.0-15.0"},{"rt":21815,"url":"\/tickets\/\/utils\/testing.html","trial_type":"html","trial_index":16,"time_elapsed":592673,"internal_node_id":"0.0-16.0"},{"phase":0,"order":[30,18,48,28,24,16,14,4,32,17,21,44,39,38,42,40,0,34,36,26,49,11,3,45,23,5,10,13,47,8,9,29,25,1,12,33,20,15,31,35,2,6,7,43,27,46,37,22,19,41],"trial_type":"store_order","trial_index":17,"time_elapsed":593675,"internal_node_id":"0.0-17.0"},{"result":126,"points":3,"place":0,"phase":0,"sequence":-1,"prices":[184,180,224,165,181,199,185,193,218,126],"times":[8351,672,727,1570,662,742,1102,679,758,918],"next_num":10,"trial_type":"ticket-choose","trial_index":18,"time_elapsed":614570,"internal_node_id":"0.0-18.0"},{"rt":12220,"url":"\/tickets\/utils\/testing_after.html","trial_type":"html","trial_index":19,"time_elapsed":627986,"internal_node_id":"0.0-19.0"},{"result":137,"points":3,"place":0,"phase":0,"sequence":0,"prices":[137,187,152,156,166,231,155,194,202,160],"times":[2211],"next_num":1,"trial_type":"ticket-choose","trial_index":20,"time_elapsed":633112,"internal_node_id":"0.0-20.0"},{"result":126,"points":3,"place":0,"phase":0,"sequence":1,"prices":[173,191,146,242,178,194,172,152,126,235],"times":[1307,691,542,726,687,1030,777,1180,1023],"next_num":9,"trial_type":"ticket-choose","trial_index":21,"time_elapsed":645231,"internal_node_id":"0.0-21.0"},{"result":149,"points":2,"place":1,"phase":0,"sequence":2,"prices":[196,221,149,164,216,167,175,128,176,181],"times":[1201,605,1684],"next_num":3,"trial_type":"ticket-choose","trial_index":22,"time_elapsed":651586,"internal_node_id":"0.0-22.0"},{"result":116,"points":3,"place":0,"phase":0,"sequence":3,"prices":[186,146,191,179,152,116,140,201,172,187],"times":[884,589,675,525,694,1086],"next_num":6,"trial_type":"ticket-choose","trial_index":23,"time_elapsed":659309,"internal_node_id":"0.0-23.0"},{"result":158,"points":1,"place":2,"phase":0,"sequence":4,"prices":[169,193,154,255,178,194,176,158,239,126],"times":[1248,621,414,734,693,734,670,1392],"next_num":8,"trial_type":"ticket-choose","trial_index":24,"time_elapsed":669859,"internal_node_id":"0.0-24.0"},{"result":136,"points":2,"place":1,"phase":0,"sequence":5,"prices":[172,190,136,270,179,192,174,152,237,129],"times":[1288,822,1007],"next_num":3,"trial_type":"ticket-choose","trial_index":25,"time_elapsed":675506,"internal_node_id":"0.0-25.0"},{"result":133,"points":3,"place":0,"phase":0,"sequence":6,"prices":[168,192,154,237,182,196,176,156,235,133],"times":[935,669,774,558,687,757,7005,1431,615,941],"next_num":10,"trial_type":"ticket-choose","trial_index":26,"time_elapsed":694064,"internal_node_id":"0.0-26.0"},{"result":155,"points":1,"place":2,"phase":0,"sequence":7,"prices":[169,191,154,268,183,197,176,155,236,133],"times":[1990,525,518,501,583,1116,732,1213],"next_num":8,"trial_type":"ticket-choose","trial_index":27,"time_elapsed":704855,"internal_node_id":"0.0-27.0"},{"result":130,"points":2,"place":1,"phase":0,"sequence":8,"prices":[181,130,116,142,157,193,165,218,173,207],"times":[1389,1175],"next_num":2,"trial_type":"ticket-choose","trial_index":28,"time_elapsed":709910,"internal_node_id":"0.0-28.0"},{"result":127,"points":3,"place":0,"phase":0,"sequence":9,"prices":[169,194,154,271,178,201,176,158,236,127],"times":[1162,1164,828,614,630,686,527,1246,612,897],"next_num":10,"trial_type":"ticket-choose","trial_index":29,"time_elapsed":722516,"internal_node_id":"0.0-29.0"},{"result":146,"points":2,"place":1,"phase":0,"sequence":10,"prices":[172,191,176,272,179,194,146,152,126,235],"times":[2212,461,540,318,518,942,1014],"next_num":7,"trial_type":"ticket-choose","trial_index":30,"time_elapsed":731804,"internal_node_id":"0.0-30.0"},{"result":136,"points":2,"place":1,"phase":0,"sequence":11,"prices":[173,191,174,270,180,193,136,153,239,129],"times":[1315,861,783,542,534,709,1149],"next_num":7,"trial_type":"ticket-choose","trial_index":31,"time_elapsed":741026,"internal_node_id":"0.0-31.0"},{"result":135,"points":3,"place":0,"phase":0,"sequence":12,"prices":[135,202,150,169,183,225,160,211,220,172],"times":[3702],"next_num":1,"trial_type":"ticket-choose","trial_index":32,"time_elapsed":747146,"internal_node_id":"0.0-32.0"},{"result":162,"points":1,"place":3,"phase":0,"sequence":13,"prices":[197,153,181,215,150,155,164,247,177,162],"times":[1425,1229,470,842,614,637,662,726,765,894],"next_num":10,"trial_type":"ticket-choose","trial_index":33,"time_elapsed":760055,"internal_node_id":"0.0-33.0"},{"result":126,"points":3,"place":0,"phase":0,"sequence":14,"prices":[170,193,146,268,178,195,172,149,126,241],"times":[1422,342,294,790,253,581,1006,1637,951],"next_num":9,"trial_type":"ticket-choose","trial_index":34,"time_elapsed":771262,"internal_node_id":"0.0-34.0"},{"result":131,"points":2,"place":1,"phase":0,"sequence":15,"prices":[221,234,131,136,132,149,154,90,176,173],"times":[1139,558,1007],"next_num":3,"trial_type":"ticket-choose","trial_index":35,"time_elapsed":776509,"internal_node_id":"0.0-35.0"},{"result":126,"points":3,"place":0,"phase":0,"sequence":16,"prices":[170,193,176,245,178,194,154,159,236,126],"times":[891,1653,790,814,647,787,669,965,1255,910],"next_num":10,"trial_type":"ticket-choose","trial_index":36,"time_elapsed":790276,"internal_node_id":"0.0-36.0"},{"result":196,"points":1,"place":4,"phase":0,"sequence":17,"prices":[143,206,153,194,201,267,168,208,210,196],"times":[5483,615,615,1383,516,621,854,670,630,1080],"next_num":10,"trial_type":"ticket-choose","trial_index":37,"time_elapsed":807192,"internal_node_id":"0.0-37.0"},{"result":124,"points":3,"place":0,"phase":0,"sequence":18,"prices":[219,183,227,124,176,161,140,129,171,201],"times":[2465,600,1516,974],"next_num":4,"trial_type":"ticket-choose","trial_index":38,"time_elapsed":815585,"internal_node_id":"0.0-38.0"},{"result":192,"points":1,"place":4,"phase":0,"sequence":19,"prices":[157,205,161,175,197,254,165,210,214,192],"times":[7875,530,899,582,758,589,1262,720,627,1070],"next_num":10,"trial_type":"ticket-choose","trial_index":39,"time_elapsed":834389,"internal_node_id":"0.0-39.0"},{"result":127,"points":3,"place":0,"phase":0,"sequence":20,"prices":[171,192,136,265,180,194,174,152,239,127],"times":[1515,436,350,606,310,653,845,613,955,944],"next_num":10,"trial_type":"ticket-choose","trial_index":40,"time_elapsed":845739,"internal_node_id":"0.0-40.0"},{"result":128,"points":3,"place":0,"phase":0,"sequence":21,"prices":[171,192,136,243,182,195,174,154,236,128],"times":[1274,501,406,541,260,344,578,374,574,838],"next_num":10,"trial_type":"ticket-choose","trial_index":41,"time_elapsed":855194,"internal_node_id":"0.0-41.0"},{"result":233,"points":0,"place":9,"phase":0,"sequence":22,"prices":[181,138,118,170,190,101,146,169,175,233],"times":[853,320,502,993,492,419,1782,658,1678,1671],"next_num":10,"trial_type":"ticket-choose","trial_index":42,"time_elapsed":868769,"internal_node_id":"0.0-42.0"},{"result":154,"points":2,"place":1,"phase":0,"sequence":23,"prices":[170,190,176,251,183,192,154,157,236,131],"times":[1333,526,705,661,485,710,1911],"next_num":7,"trial_type":"ticket-choose","trial_index":43,"time_elapsed":878752,"internal_node_id":"0.0-43.0"},{"result":145,"points":2,"place":1,"phase":0,"sequence":24,"prices":[216,206,158,145,224,185,124,149,175,162],"times":[1106,741,495,1069],"next_num":4,"trial_type":"ticket-choose","trial_index":44,"time_elapsed":884894,"internal_node_id":"0.0-44.0"},{"result":154,"points":2,"place":1,"phase":0,"sequence":25,"prices":[169,192,176,244,178,194,154,159,237,125],"times":[11204,559,498,747,1892,8208,1228],"next_num":7,"trial_type":"ticket-choose","trial_index":45,"time_elapsed":912659,"internal_node_id":"0.0-45.0"},{"result":154,"points":2,"place":1,"phase":0,"sequence":26,"prices":[168,192,176,242,183,197,154,156,237,132],"times":[1240,306,447,518,726,627,1204],"next_num":7,"trial_type":"ticket-choose","trial_index":46,"time_elapsed":921036,"internal_node_id":"0.0-46.0"},{"result":146,"points":2,"place":1,"phase":0,"sequence":27,"prices":[171,191,172,268,179,194,146,150,127,239],"times":[882,334,345,670,1375,636,1017],"next_num":7,"trial_type":"ticket-choose","trial_index":47,"time_elapsed":929657,"internal_node_id":"0.0-47.0"},{"result":189,"points":1,"place":4,"phase":0,"sequence":28,"prices":[157,213,159,187,194,242,161,222,225,189],"times":[963,645,685,669,533,302,293,343,638,1078],"next_num":10,"trial_type":"ticket-choose","trial_index":48,"time_elapsed":939575,"internal_node_id":"0.0-48.0"},{"result":179,"points":1,"place":4,"phase":0,"sequence":29,"prices":[132,222,144,153,190,248,151,224,228,179],"times":[1458,629,606,630,621,581,656,1038,614,1023],"next_num":10,"trial_type":"ticket-choose","trial_index":49,"time_elapsed":951669,"internal_node_id":"0.0-49.0"},{"result":146,"points":2,"place":1,"phase":0,"sequence":30,"prices":[168,191,146,252,183,193,172,153,126,238],"times":[743,518,1141],"next_num":3,"trial_type":"ticket-choose","trial_index":50,"time_elapsed":956398,"internal_node_id":"0.0-50.0"},{"result":146,"points":2,"place":1,"phase":0,"sequence":31,"prices":[168,191,172,240,183,193,146,151,125,238],"times":[1095,919,1204,614,565,724,1046],"next_num":7,"trial_type":"ticket-choose","trial_index":51,"time_elapsed":965670,"internal_node_id":"0.0-51.0"},{"result":146,"points":2,"place":1,"phase":0,"sequence":32,"prices":[171,195,172,242,179,196,146,150,128,235],"times":[913,461,509,710,765,604,1389],"next_num":7,"trial_type":"ticket-choose","trial_index":52,"time_elapsed":974362,"internal_node_id":"0.0-52.0"},{"result":236,"points":0,"place":6,"phase":0,"sequence":33,"prices":[240,188,273,207,250,136,217,170,171,236],"times":[826,368,430,278,350,502,670,788,526,839],"next_num":11,"trial_type":"ticket-choose","trial_index":53,"time_elapsed":984561,"internal_node_id":"0.0-53.0"},{"result":136,"points":2,"place":1,"phase":0,"sequence":34,"prices":[169,192,174,246,180,195,136,152,238,126],"times":[2523,806,413,573,798,485,990],"next_num":7,"trial_type":"ticket-choose","trial_index":54,"time_elapsed":994376,"internal_node_id":"0.0-54.0"},{"result":136,"points":2,"place":1,"phase":0,"sequence":35,"prices":[172,194,174,243,182,193,136,150,237,126],"times":[714,573,485,654,667,769,983],"next_num":7,"trial_type":"ticket-choose","trial_index":55,"time_elapsed":1002855,"internal_node_id":"0.0-55.0"},{"result":121,"points":3,"place":0,"phase":0,"sequence":36,"prices":[121,191,128,141,166,217,129,196,202,157],"times":[1106],"next_num":1,"trial_type":"ticket-choose","trial_index":56,"time_elapsed":1006159,"internal_node_id":"0.0-56.0"},{"result":136,"points":2,"place":1,"phase":0,"sequence":37,"prices":[170,192,174,242,181,196,136,153,236,128],"times":[980,659,394,838,860,750,975],"next_num":7,"trial_type":"ticket-choose","trial_index":57,"time_elapsed":1014949,"internal_node_id":"0.0-57.0"},{"result":129,"points":2,"place":1,"phase":0,"sequence":38,"prices":[155,129,164,189,210,108,187,241,174,275],"times":[2700,901],"next_num":2,"trial_type":"ticket-choose","trial_index":58,"time_elapsed":1022167,"internal_node_id":"0.0-58.0"},{"result":127,"points":3,"place":0,"phase":0,"sequence":39,"prices":[173,194,136,239,182,200,174,150,236,127],"times":[1128,508,443,615,358,734,676,824,680,765],"next_num":10,"trial_type":"ticket-choose","trial_index":59,"time_elapsed":1032932,"internal_node_id":"0.0-59.0"},{"result":146,"points":2,"place":1,"phase":0,"sequence":40,"prices":[169,193,146,237,180,196,172,150,129,236],"times":[900,606,996],"next_num":3,"trial_type":"ticket-choose","trial_index":60,"time_elapsed":1037778,"internal_node_id":"0.0-60.0"},{"result":114,"points":3,"place":0,"phase":0,"sequence":41,"prices":[182,249,159,114,184,205,175,189,172,178],"times":[829,471,358,931],"next_num":4,"trial_type":"ticket-choose","trial_index":61,"time_elapsed":1042934,"internal_node_id":"0.0-61.0"},{"result":217,"points":0,"place":8,"phase":0,"sequence":42,"prices":[198,119,169,141,195,233,136,208,177,217],"times":[881,432,605,430,919,813,590,821,853,1741],"next_num":11,"trial_type":"ticket-choose","trial_index":62,"time_elapsed":1055064,"internal_node_id":"0.0-62.0"},{"result":146,"points":3,"place":0,"phase":0,"sequence":43,"prices":[156,218,212,216,191,210,275,146,174,152],"times":[1605,622,694,590,703,691,878,1255],"next_num":8,"trial_type":"ticket-choose","trial_index":63,"time_elapsed":1065695,"internal_node_id":"0.0-63.0"},{"result":193,"points":1,"place":4,"phase":0,"sequence":44,"prices":[263,165,224,214,105,230,215,185,177,193],"times":[1018,1211,591,556,605,1798,773,792,732,1014],"next_num":10,"trial_type":"ticket-choose","trial_index":64,"time_elapsed":1079349,"internal_node_id":"0.0-64.0"},{"result":154,"points":2,"place":1,"phase":0,"sequence":45,"prices":[244,203,196,189,154,206,197,149,171,159],"times":[1503,6333,712,1079,1575],"next_num":5,"trial_type":"ticket-choose","trial_index":65,"time_elapsed":1094020,"internal_node_id":"0.0-65.0"},{"result":117,"points":3,"place":0,"phase":0,"sequence":46,"prices":[117,161,120,147,153,259,144,191,195,149],"times":[1388],"next_num":1,"trial_type":"ticket-choose","trial_index":66,"time_elapsed":1097627,"internal_node_id":"0.0-66.0"},{"result":124,"points":3,"place":0,"phase":0,"sequence":47,"prices":[124,220,136,165,185,234,143,225,228,179],"times":[1754],"next_num":1,"trial_type":"ticket-choose","trial_index":67,"time_elapsed":1101465,"internal_node_id":"0.0-67.0"},{"result":188,"points":1,"place":4,"phase":0,"sequence":48,"prices":[142,207,171,182,190,269,180,218,256,188],"times":[1740,878,677,885,702,655,901,726,588,946],"next_num":10,"trial_type":"ticket-choose","trial_index":68,"time_elapsed":1114287,"internal_node_id":"0.0-68.0"},{"result":135,"points":3,"place":0,"phase":0,"sequence":49,"prices":[221,193,135,188,217,179,196,190,175,159],"times":[1203,574,1022],"next_num":3,"trial_type":"ticket-choose","trial_index":69,"time_elapsed":1119351,"internal_node_id":"0.0-69.0"},{"responses":[{"value":0,"offby":-1,"category":"$90 - $120","category_index":0},{"value":2,"offby":-1,"category":"$121 - $145","category_index":1},{"value":2,"offby":-1,"category":"$146 - $170","category_index":2},{"value":6,"offby":0,"category":"$171 - $195","category_index":3},{"value":4,"offby":0,"category":"$196 - $220","category_index":4},{"value":6,"offby":4,"category":"$221 - $245","category_index":5},{"value":0,"offby":-1,"category":"$246 - $270","category_index":6}],"phase":0,"number":1,"trial_type":"bar-choose","trial_index":70,"time_elapsed":1170795,"internal_node_id":"0.0-70.0"},{"rt":8881,"url":"\/tickets\/utils\/start2.html","trial_type":"html","trial_index":71,"time_elapsed":1180879,"internal_node_id":"0.0-71.0"},{"trial_type":"number-animation","trial_index":72,"time_elapsed":1190245,"internal_node_id":"0.0-72.0"},{"phase":1,"sequence":0,"avg":181,"response":165,"trial_type":"training_avg","trial_index":73,"time_elapsed":1195060,"internal_node_id":"0.0-73.0"},{"trial_type":"number-animation","trial_index":74,"time_elapsed":1203163,"internal_node_id":"0.0-74.0"},{"phase":1,"sequence":1,"avg":188,"response":172,"trial_type":"training_avg","trial_index":75,"time_elapsed":1207910,"internal_node_id":"0.0-75.0"},{"trial_type":"number-animation","trial_index":76,"time_elapsed":1216459,"internal_node_id":"0.0-76.0"},{"phase":1,"sequence":2,"avg":188,"response":196,"trial_type":"training_avg","trial_index":77,"time_elapsed":1221890,"internal_node_id":"0.0-77.0"},{"trial_type":"number-animation","trial_index":78,"time_elapsed":1232088,"internal_node_id":"0.0-78.0"},{"phase":1,"sequence":3,"avg":177,"response":171,"trial_type":"training_avg","trial_index":79,"time_elapsed":1237584,"internal_node_id":"0.0-79.0"},{"trial_type":"number-animation","trial_index":80,"time_elapsed":1259765,"internal_node_id":"0.0-80.0"},{"phase":1,"sequence":4,"avg":182,"response":175,"trial_type":"training_avg","trial_index":81,"time_elapsed":1264446,"internal_node_id":"0.0-81.0"},{"responses":[{"value":0,"offby":0,"category":"$106 - $134","category_index":0},{"value":0,"offby":-1,"category":"$135 - $150","category_index":1},{"value":4,"offby":1,"category":"$151 - $165","category_index":2},{"value":6,"offby":0,"category":"$166 - $180","category_index":3},{"value":5,"offby":-1,"category":"$181 - $195","category_index":4},{"value":5,"offby":2,"category":"$196 - $210","category_index":5},{"value":0,"offby":-1,"category":"$211 - $225","category_index":6}],"phase":1,"number":0,"trial_type":"bar-choose","trial_index":82,"time_elapsed":1279214,"internal_node_id":"0.0-82.0"},{"rt":9652,"url":"\/tickets\/utils\/testing2.html","trial_type":"html","trial_index":83,"time_elapsed":1290074,"internal_node_id":"0.0-83.0"},{"phase":1,"order":[33,0,36,49,10,19,8,9,34,11,4,23,30,39,3,41,15,32,47,27,16,17,44,13,37,14,12,7,28,25,2,6,5,46,20,22,29,21,35,18,1,48,40,38,42,45,31,26,24,43],"trial_type":"store_order","trial_index":84,"time_elapsed":1291077,"internal_node_id":"0.0-84.0"},{"result":176,"points":1,"place":4,"phase":1,"sequence":0,"prices":[157,191,165,175,182,203,170,195,200,176],"times":[2218,1139,318,661,589,819,1346,734,1854,813],"next_num":10,"trial_type":"ticket-choose","trial_index":85,"time_elapsed":1305823,"internal_node_id":"0.0-85.0"},{"result":158,"points":2,"place":1,"phase":1,"sequence":1,"prices":[176,187,158,210,181,187,177,165,208,153],"times":[1293,698,1204],"next_num":3,"trial_type":"ticket-choose","trial_index":86,"time_elapsed":1311335,"internal_node_id":"0.0-86.0"},{"result":182,"points":0,"place":6,"phase":1,"sequence":2,"prices":[181,215,169,147,182,193,177,184,176,179],"times":[4313,1202,989,568,867],"next_num":5,"trial_type":"ticket-choose","trial_index":87,"time_elapsed":1322156,"internal_node_id":"0.0-87.0"},{"result":169,"points":3,"place":0,"phase":1,"sequence":3,"prices":[169,196,170,184,187,211,171,201,202,185],"times":[704],"next_num":1,"trial_type":"ticket-choose","trial_index":88,"time_elapsed":1324748,"internal_node_id":"0.0-88.0"},{"result":161,"points":3,"place":0,"phase":1,"sequence":4,"prices":[161,193,175,181,185,224,180,199,218,184],"times":[701],"next_num":1,"trial_type":"ticket-choose","trial_index":89,"time_elapsed":1327261,"internal_node_id":"0.0-89.0"},{"result":175,"points":1,"place":3,"phase":1,"sequence":5,"prices":[175,186,158,211,180,187,177,166,209,153],"times":[788],"next_num":1,"trial_type":"ticket-choose","trial_index":90,"time_elapsed":1329756,"internal_node_id":"0.0-90.0"},{"result":175,"points":1,"place":3,"phase":1,"sequence":6,"prices":[175,186,178,212,179,187,167,169,209,153],"times":[800],"next_num":1,"trial_type":"ticket-choose","trial_index":91,"time_elapsed":1332267,"internal_node_id":"0.0-91.0"},{"result":176,"points":1,"place":3,"phase":1,"sequence":7,"prices":[176,186,176,210,179,187,163,166,153,208],"times":[752],"next_num":1,"trial_type":"ticket-choose","trial_index":92,"time_elapsed":1334843,"internal_node_id":"0.0-92.0"},{"result":161,"points":3,"place":0,"phase":1,"sequence":8,"prices":[161,193,167,187,190,224,174,194,195,188],"times":[612],"next_num":1,"trial_type":"ticket-choose","trial_index":93,"time_elapsed":1337435,"internal_node_id":"0.0-93.0"},{"result":175,"points":1,"place":3,"phase":1,"sequence":9,"prices":[175,186,158,209,181,188,177,167,208,154],"times":[529],"next_num":1,"trial_type":"ticket-choose","trial_index":94,"time_elapsed":1339850,"internal_node_id":"0.0-94.0"},{"result":175,"points":1,"place":3,"phase":1,"sequence":10,"prices":[175,186,177,209,181,188,158,167,208,154],"times":[8521],"next_num":1,"trial_type":"ticket-choose","trial_index":95,"time_elapsed":1351185,"internal_node_id":"0.0-95.0"},{"result":180,"points":0,"place":7,"phase":1,"sequence":11,"prices":[180,159,149,175,185,141,163,174,178,207],"times":[750],"next_num":1,"trial_type":"ticket-choose","trial_index":96,"time_elapsed":1354110,"internal_node_id":"0.0-96.0"},{"result":189,"points":0,"place":7,"phase":1,"sequence":12,"prices":[189,167,180,197,165,168,172,213,178,171],"times":[725],"next_num":1,"trial_type":"ticket-choose","trial_index":97,"time_elapsed":1356776,"internal_node_id":"0.0-97.0"},{"result":168,"points":1,"place":2,"phase":1,"sequence":13,"prices":[168,199,196,198,185,195,227,163,177,166],"times":[1109],"next_num":1,"trial_type":"ticket-choose","trial_index":98,"time_elapsed":1359785,"internal_node_id":"0.0-98.0"},{"result":222,"points":0,"place":9,"phase":1,"sequence":14,"prices":[222,173,202,197,143,205,198,183,178,186],"times":[625],"next_num":1,"trial_type":"ticket-choose","trial_index":99,"time_elapsed":1362498,"internal_node_id":"0.0-99.0"},{"result":189,"points":0,"place":6,"phase":1,"sequence":15,"prices":[189,150,175,160,188,207,158,194,178,199],"times":[670],"next_num":1,"trial_type":"ticket-choose","trial_index":100,"time_elapsed":1365038,"internal_node_id":"0.0-100.0"},{"result":176,"points":1,"place":3,"phase":1,"sequence":16,"prices":[176,186,163,214,179,187,176,166,153,208],"times":[723],"next_num":1,"trial_type":"ticket-choose","trial_index":101,"time_elapsed":1367542,"internal_node_id":"0.0-101.0"},{"result":181,"points":0,"place":6,"phase":1,"sequence":17,"prices":[181,155,148,161,168,187,172,199,176,194],"times":[1652],"next_num":1,"trial_type":"ticket-choose","trial_index":102,"time_elapsed":1371398,"internal_node_id":"0.0-102.0"},{"result":188,"points":0,"place":7,"phase":1,"sequence":18,"prices":[188,200,165,172,198,174,177,154,177,180],"times":[991],"next_num":1,"trial_type":"ticket-choose","trial_index":103,"time_elapsed":1374215,"internal_node_id":"0.0-103.0"},{"result":152,"points":3,"place":0,"phase":1,"sequence":19,"prices":[152,200,158,173,182,207,161,202,204,180],"times":[603],"next_num":1,"trial_type":"ticket-choose","trial_index":104,"time_elapsed":1376613,"internal_node_id":"0.0-104.0"},{"result":183,"points":0,"place":6,"phase":1,"sequence":20,"prices":[183,163,185,180,166,148,160,186,176,184],"times":[576],"next_num":1,"trial_type":"ticket-choose","trial_index":105,"time_elapsed":1379487,"internal_node_id":"0.0-105.0"},{"result":175,"points":1,"place":3,"phase":1,"sequence":21,"prices":[175,187,167,212,179,187,178,169,208,153],"times":[525],"next_num":1,"trial_type":"ticket-choose","trial_index":106,"time_elapsed":1381908,"internal_node_id":"0.0-106.0"},{"result":175,"points":1,"place":3,"phase":1,"sequence":22,"prices":[175,186,163,211,179,187,176,165,153,210],"times":[1217],"next_num":1,"trial_type":"ticket-choose","trial_index":107,"time_elapsed":1385292,"internal_node_id":"0.0-107.0"},{"result":212,"points":0,"place":9,"phase":1,"sequence":23,"prices":[212,192,188,184,167,193,189,164,176,170],"times":[820],"next_num":1,"trial_type":"ticket-choose","trial_index":108,"time_elapsed":1388043,"internal_node_id":"0.0-108.0"},{"result":176,"points":1,"place":3,"phase":1,"sequence":24,"prices":[176,185,177,218,180,186,158,166,209,154],"times":[805],"next_num":1,"trial_type":"ticket-choose","trial_index":109,"time_elapsed":1391347,"internal_node_id":"0.0-109.0"},{"result":175,"points":1,"place":3,"phase":1,"sequence":25,"prices":[175,187,176,209,180,188,163,165,154,208],"times":[1135],"next_num":1,"trial_type":"ticket-choose","trial_index":110,"time_elapsed":1394307,"internal_node_id":"0.0-110.0"},{"result":175,"points":1,"place":3,"phase":1,"sequence":26,"prices":[175,186,167,225,179,187,178,169,209,153],"times":[1091],"next_num":1,"trial_type":"ticket-choose","trial_index":111,"time_elapsed":1397338,"internal_node_id":"0.0-111.0"},{"result":175,"points":1,"place":3,"phase":1,"sequence":27,"prices":[175,185,178,215,181,186,167,168,208,156],"times":[1309],"next_num":1,"trial_type":"ticket-choose","trial_index":112,"time_elapsed":1400875,"internal_node_id":"0.0-112.0"},{"result":200,"points":0,"place":8,"phase":1,"sequence":28,"prices":[200,181,203,152,175,171,160,154,176,191],"times":[1205],"next_num":1,"trial_type":"ticket-choose","trial_index":113,"time_elapsed":1404251,"internal_node_id":"0.0-113.0"},{"result":174,"points":1,"place":3,"phase":1,"sequence":29,"prices":[174,186,167,211,181,188,178,168,208,156],"times":[677],"next_num":1,"trial_type":"ticket-choose","trial_index":114,"time_elapsed":1406761,"internal_node_id":"0.0-114.0"},{"result":175,"points":1,"place":3,"phase":1,"sequence":30,"prices":[175,185,167,224,181,186,178,168,208,156],"times":[783],"next_num":1,"trial_type":"ticket-choose","trial_index":115,"time_elapsed":1409264,"internal_node_id":"0.0-115.0"},{"result":150,"points":3,"place":0,"phase":1,"sequence":31,"prices":[150,185,154,161,173,199,155,188,191,168],"times":[788],"next_num":1,"trial_type":"ticket-choose","trial_index":116,"time_elapsed":1411817,"internal_node_id":"0.0-116.0"},{"result":156,"points":3,"place":0,"phase":1,"sequence":32,"prices":[156,201,162,166,185,214,165,202,204,179],"times":[924],"next_num":1,"trial_type":"ticket-choose","trial_index":117,"time_elapsed":1414807,"internal_node_id":"0.0-117.0"},{"result":175,"points":1,"place":3,"phase":1,"sequence":33,"prices":[175,187,163,209,180,188,176,165,154,208],"times":[698],"next_num":1,"trial_type":"ticket-choose","trial_index":118,"time_elapsed":1417335,"internal_node_id":"0.0-118.0"},{"result":174,"points":1,"place":3,"phase":1,"sequence":34,"prices":[174,186,178,217,181,188,167,168,208,156],"times":[699],"next_num":1,"trial_type":"ticket-choose","trial_index":119,"time_elapsed":1420351,"internal_node_id":"0.0-119.0"},{"result":159,"points":3,"place":0,"phase":1,"sequence":35,"prices":[159,183,166,168,173,205,167,187,191,170],"times":[732],"next_num":1,"trial_type":"ticket-choose","trial_index":120,"time_elapsed":1422968,"internal_node_id":"0.0-120.0"},{"result":175,"points":1,"place":3,"phase":1,"sequence":36,"prices":[175,186,177,221,180,187,158,166,209,153],"times":[711],"next_num":1,"trial_type":"ticket-choose","trial_index":121,"time_elapsed":1425526,"internal_node_id":"0.0-121.0"},{"result":175,"points":1,"place":3,"phase":1,"sequence":37,"prices":[175,187,178,209,179,187,167,169,208,153],"times":[749],"next_num":1,"trial_type":"ticket-choose","trial_index":122,"time_elapsed":1428000,"internal_node_id":"0.0-122.0"},{"result":148,"points":3,"place":0,"phase":1,"sequence":38,"prices":[148,171,150,163,167,220,162,186,187,165],"times":[715],"next_num":1,"trial_type":"ticket-choose","trial_index":123,"time_elapsed":1430589,"internal_node_id":"0.0-123.0"},{"result":168,"points":1,"place":2,"phase":1,"sequence":39,"prices":[168,154,172,185,195,144,184,211,177,227],"times":[694],"next_num":1,"trial_type":"ticket-choose","trial_index":124,"time_elapsed":1433093,"internal_node_id":"0.0-124.0"},{"result":174,"points":1,"place":3,"phase":1,"sequence":40,"prices":[174,186,163,212,181,187,176,166,153,209],"times":[758],"next_num":1,"trial_type":"ticket-choose","trial_index":125,"time_elapsed":1435637,"internal_node_id":"0.0-125.0"},{"result":174,"points":1,"place":3,"phase":1,"sequence":41,"prices":[174,186,176,217,181,187,163,166,153,209],"times":[556],"next_num":1,"trial_type":"ticket-choose","trial_index":126,"time_elapsed":1438141,"internal_node_id":"0.0-126.0"},{"result":175,"points":1,"place":3,"phase":1,"sequence":42,"prices":[175,186,176,224,179,187,163,165,153,210],"times":[750],"next_num":1,"trial_type":"ticket-choose","trial_index":127,"time_elapsed":1440813,"internal_node_id":"0.0-127.0"},{"result":201,"points":0,"place":9,"phase":1,"sequence":43,"prices":[201,187,157,184,198,179,188,185,178,170],"times":[989],"next_num":1,"trial_type":"ticket-choose","trial_index":128,"time_elapsed":1443667,"internal_node_id":"0.0-128.0"},{"result":168,"points":3,"place":0,"phase":1,"sequence":44,"prices":[168,192,171,178,188,217,172,195,197,186],"times":[758],"next_num":1,"trial_type":"ticket-choose","trial_index":129,"time_elapsed":1446180,"internal_node_id":"0.0-129.0"},{"result":210,"points":0,"place":7,"phase":1,"sequence":45,"prices":[210,184,226,193,215,158,199,175,176,208],"times":[768],"next_num":1,"trial_type":"ticket-choose","trial_index":130,"time_elapsed":1448957,"internal_node_id":"0.0-130.0"},{"result":198,"points":0,"place":8,"phase":1,"sequence":46,"prices":[198,193,169,163,202,182,152,164,177,171],"times":[813],"next_num":1,"trial_type":"ticket-choose","trial_index":131,"time_elapsed":1451690,"internal_node_id":"0.0-131.0"},{"result":176,"points":1,"place":3,"phase":1,"sequence":47,"prices":[176,187,177,225,181,187,158,165,208,153],"times":[835],"next_num":1,"trial_type":"ticket-choose","trial_index":132,"time_elapsed":1455034,"internal_node_id":"0.0-132.0"},{"result":176,"points":1,"place":3,"phase":1,"sequence":48,"prices":[176,185,158,217,180,186,177,166,209,154],"times":[824],"next_num":1,"trial_type":"ticket-choose","trial_index":133,"time_elapsed":1457786,"internal_node_id":"0.0-133.0"},{"result":201,"points":0,"place":8,"phase":1,"sequence":49,"prices":[201,207,155,158,156,165,167,135,178,177],"times":[912],"next_num":1,"trial_type":"ticket-choose","trial_index":134,"time_elapsed":1463122,"internal_node_id":"0.0-134.0"},{"responses":[{"value":0,"offby":0,"category":"$106 - $134","category_index":0},{"value":0,"offby":-1,"category":"$135 - $150","category_index":1},{"value":0,"offby":-3,"category":"$151 - $165","category_index":2},{"value":20,"offby":14,"category":"$166 - $180","category_index":3},{"value":0,"offby":-6,"category":"$181 - $195","category_index":4},{"value":0,"offby":-3,"category":"$196 - $210","category_index":5},{"value":0,"offby":-1,"category":"$211 - $225","category_index":6}],"phase":1,"number":1,"trial_type":"bar-choose","trial_index":135,"time_elapsed":1489833,"internal_node_id":"0.0-135.0"},{"special_comment":"no","trial_type":"special_sequence","trial_index":136,"time_elapsed":1495295,"internal_node_id":"0.0-136.0"},{"during":"Nothing","bonus":212,"trial_type":"final","trial_index":137,"time_elapsed":1510450,"internal_node_id":"0.0-137.0"}],"bonus":212}