{"start_time":"2017-02-27 11:56:26","end_time":"2017-02-27 12:40:15","points_phase0":117,"points_phase1":119,"phase_order":1,"age":41,"gender":"f","tries":1,"during":"Nothing","worker_id":"A2JHBBQHCFGRGG","assignment_id":"36PW28KO40PO0LNK299Z8KU9K5HAEX","data":[{"rt":17291,"url":"\/tickets\/utils\/consent.html","trial_type":"html","trial_index":0,"time_elapsed":18696,"internal_node_id":"0.0-0.0"},{"age":41,"gender":"f","trial_type":"age","trial_index":1,"time_elapsed":30287,"internal_node_id":"0.0-1.0"},{"worker_id":"A2JHBBQHCFGRGG","trial_type":"workerid","trial_index":2,"time_elapsed":326001,"internal_node_id":"0.0-2.0"},{"tries":1,"trial_type":"instructions_check","trial_index":3,"time_elapsed":378694,"internal_node_id":"0.0-3.0"},{"rt":35508,"url":"\/tickets\/utils\/start.html","trial_type":"html","trial_index":4,"time_elapsed":415746,"internal_node_id":"0.0-4.0"},{"trial_type":"number-animation","trial_index":5,"time_elapsed":452474,"internal_node_id":"0.0-5.0"},{"phase":0,"sequence":0,"avg":166,"response":166,"trial_type":"training_avg","trial_index":6,"time_elapsed":524437,"internal_node_id":"0.0-6.0"},{"trial_type":"number-animation","trial_index":7,"time_elapsed":585441,"internal_node_id":"0.0-7.0"},{"phase":0,"sequence":1,"avg":198,"response":216,"trial_type":"training_avg","trial_index":8,"time_elapsed":668450,"internal_node_id":"0.0-8.0"},{"trial_type":"number-animation","trial_index":9,"time_elapsed":730137,"internal_node_id":"0.0-9.0"},{"phase":0,"sequence":2,"avg":177,"response":177,"trial_type":"training_avg","trial_index":10,"time_elapsed":755841,"internal_node_id":"0.0-10.0"},{"trial_type":"number-animation","trial_index":11,"time_elapsed":827639,"internal_node_id":"0.0-11.0"},{"phase":0,"sequence":3,"avg":190,"response":190,"trial_type":"training_avg","trial_index":12,"time_elapsed":843631,"internal_node_id":"0.0-12.0"},{"trial_type":"number-animation","trial_index":13,"time_elapsed":903990,"internal_node_id":"0.0-13.0"},{"phase":0,"sequence":4,"avg":201,"response":201,"trial_type":"training_avg","trial_index":14,"time_elapsed":924249,"internal_node_id":"0.0-14.0"},{"responses":[{"value":0,"offby":-1,"category":"$30 - $75","category_index":0},{"value":1,"offby":-1,"category":"$76 - $120","category_index":1},{"value":3,"offby":-1,"category":"$121 - $165","category_index":2},{"value":10,"offby":4,"category":"$166 - $210","category_index":3},{"value":4,"offby":-2,"category":"$211 - $255","category_index":4},{"value":2,"offby":1,"category":"$256 - $300","category_index":5},{"value":0,"offby":0,"category":"$301 - $345","category_index":6}],"phase":0,"number":0,"trial_type":"bar-choose","trial_index":15,"time_elapsed":1044158,"internal_node_id":"0.0-15.0"},{"rt":32575,"url":"\/tickets\/\/utils\/testing.html","trial_type":"html","trial_index":16,"time_elapsed":1077870,"internal_node_id":"0.0-16.0"},{"phase":0,"order":[39,3,9,18,43,27,4,46,21,13,29,6,7,1,16,15,24,8,31,14,5,37,23,35,30,33,38,25,47,32,45,11,34,20,0,12,28,19,2,41,44,40,49,26,22,48,17,42,10,36],"trial_type":"store_order","trial_index":17,"time_elapsed":1078871,"internal_node_id":"0.0-17.0"},{"result":126,"points":3,"place":0,"phase":0,"sequence":-1,"prices":[184,180,224,165,181,199,185,193,218,126],"times":[3896,1473,1591,2293,656,777,776,1566,1642,2263],"next_num":10,"trial_type":"ticket-choose","trial_index":18,"time_elapsed":1100731,"internal_node_id":"0.0-18.0"},{"rt":17544,"url":"\/tickets\/utils\/testing_after.html","trial_type":"html","trial_index":19,"time_elapsed":1119425,"internal_node_id":"0.0-19.0"},{"result":125,"points":2,"place":1,"phase":0,"sequence":0,"prices":[155,175,166,245,171,190,125,140,101,196],"times":[3675,768,641,605,720,1793,1268],"next_num":7,"trial_type":"ticket-choose","trial_index":20,"time_elapsed":1133566,"internal_node_id":"0.0-20.0"},{"result":136,"points":1,"place":2,"phase":0,"sequence":1,"prices":[255,166,266,175,136,145,155,61,96,301],"times":[2003,884,1019,696,6547],"next_num":5,"trial_type":"ticket-choose","trial_index":21,"time_elapsed":1148276,"internal_node_id":"0.0-21.0"},{"result":111,"points":3,"place":0,"phase":0,"sequence":2,"prices":[156,181,130,255,175,200,170,150,111,205],"times":[1990,523,1034,605,618,572,822,1152,1040],"next_num":9,"trial_type":"ticket-choose","trial_index":22,"time_elapsed":1161791,"internal_node_id":"0.0-22.0"},{"result":91,"points":3,"place":0,"phase":0,"sequence":3,"prices":[176,150,141,91,290,201,106,266,206,126],"times":[1250,789,658,1214],"next_num":4,"trial_type":"ticket-choose","trial_index":23,"time_elapsed":1170806,"internal_node_id":"0.0-23.0"},{"result":96,"points":3,"place":0,"phase":0,"sequence":4,"prices":[150,171,120,241,165,185,160,135,96,190],"times":[1587,650,1457,595,604,697,1293,1792,947],"next_num":9,"trial_type":"ticket-choose","trial_index":24,"time_elapsed":1185468,"internal_node_id":"0.0-24.0"},{"result":185,"points":1,"place":4,"phase":0,"sequence":5,"prices":[105,216,146,165,210,260,161,235,241,185],"times":[5917,542,540,652,588,526,1283,723,901,2471],"next_num":10,"trial_type":"ticket-choose","trial_index":25,"time_elapsed":1204720,"internal_node_id":"0.0-25.0"},{"result":65,"points":2,"place":1,"phase":0,"sequence":6,"prices":[220,236,176,65,185,101,110,61,156,191],"times":[1267,594,683,1003],"next_num":4,"trial_type":"ticket-choose","trial_index":26,"time_elapsed":1211609,"internal_node_id":"0.0-26.0"},{"result":51,"points":3,"place":0,"phase":0,"sequence":7,"prices":[221,175,51,196,146,130,166,80,126,156],"times":[1551,556,1079],"next_num":3,"trial_type":"ticket-choose","trial_index":27,"time_elapsed":1218983,"internal_node_id":"0.0-27.0"},{"result":131,"points":2,"place":1,"phase":0,"sequence":8,"prices":[156,181,171,256,175,200,131,150,110,206],"times":[1139,581,540,550,572,696,6352],"next_num":7,"trial_type":"ticket-choose","trial_index":28,"time_elapsed":1233091,"internal_node_id":"0.0-28.0"},{"result":165,"points":1,"place":2,"phase":0,"sequence":9,"prices":[185,175,276,221,130,141,171,216,235,165],"times":[1109,510,500,539,556,1432,931,941,689,3722],"next_num":11,"trial_type":"ticket-choose","trial_index":29,"time_elapsed":1248332,"internal_node_id":"0.0-29.0"},{"result":130,"points":2,"place":1,"phase":0,"sequence":10,"prices":[155,181,170,255,176,200,130,150,110,205],"times":[1120,500,579,612,618,956,978],"next_num":7,"trial_type":"ticket-choose","trial_index":30,"time_elapsed":1257519,"internal_node_id":"0.0-30.0"},{"result":111,"points":3,"place":0,"phase":0,"sequence":11,"prices":[111,231,131,146,171,295,141,241,271,150],"times":[3340],"next_num":1,"trial_type":"ticket-choose","trial_index":31,"time_elapsed":1264158,"internal_node_id":"0.0-31.0"},{"result":81,"points":3,"place":0,"phase":0,"sequence":12,"prices":[155,245,155,81,180,130,156,306,166,115],"times":[1040,596,650,979],"next_num":4,"trial_type":"ticket-choose","trial_index":32,"time_elapsed":1271227,"internal_node_id":"0.0-32.0"},{"result":45,"points":3,"place":0,"phase":0,"sequence":13,"prices":[186,156,191,120,195,145,45,130,246,176],"times":[4764,736,557,1823,539,540,955],"next_num":7,"trial_type":"ticket-choose","trial_index":33,"time_elapsed":1285123,"internal_node_id":"0.0-33.0"},{"result":30,"points":3,"place":0,"phase":0,"sequence":14,"prices":[155,30,101,55,136,276,70,181,200,261],"times":[994,994],"next_num":2,"trial_type":"ticket-choose","trial_index":34,"time_elapsed":1289831,"internal_node_id":"0.0-34.0"},{"result":111,"points":3,"place":0,"phase":0,"sequence":15,"prices":[156,181,131,256,176,200,171,151,111,206],"times":[1015,550,524,556,603,657,596,1682,988],"next_num":9,"trial_type":"ticket-choose","trial_index":35,"time_elapsed":1301233,"internal_node_id":"0.0-35.0"},{"result":126,"points":2,"place":1,"phase":0,"sequence":16,"prices":[151,175,166,251,170,195,126,146,105,201],"times":[1097,549,526,549,666,557,2098],"next_num":7,"trial_type":"ticket-choose","trial_index":36,"time_elapsed":1310861,"internal_node_id":"0.0-36.0"},{"result":105,"points":3,"place":0,"phase":0,"sequence":17,"prices":[161,180,131,251,175,196,171,146,105,201],"times":[843,557,1113,547,531,567,1182,1148,1003],"next_num":9,"trial_type":"ticket-choose","trial_index":37,"time_elapsed":1322491,"internal_node_id":"0.0-37.0"},{"result":136,"points":3,"place":0,"phase":0,"sequence":18,"prices":[246,145,155,191,176,270,185,136,160,215],"times":[1828,414,1027,573,530,611,791,2426],"next_num":8,"trial_type":"ticket-choose","trial_index":38,"time_elapsed":1334619,"internal_node_id":"0.0-38.0"},{"result":100,"points":3,"place":0,"phase":0,"sequence":19,"prices":[146,171,120,245,165,191,160,140,100,196],"times":[844,492,1520,547,831,589,627,2238,885],"next_num":9,"trial_type":"ticket-choose","trial_index":39,"time_elapsed":1347218,"internal_node_id":"0.0-39.0"},{"result":120,"points":2,"place":1,"phase":0,"sequence":20,"prices":[150,170,160,241,166,186,120,136,96,191],"times":[1188,438,715,548,1268,683,1627],"next_num":7,"trial_type":"ticket-choose","trial_index":40,"time_elapsed":1357281,"internal_node_id":"0.0-40.0"},{"result":131,"points":2,"place":1,"phase":0,"sequence":21,"prices":[160,180,170,251,176,195,131,146,105,200],"times":[838,461,548,604,588,642,2746],"next_num":7,"trial_type":"ticket-choose","trial_index":41,"time_elapsed":1367221,"internal_node_id":"0.0-41.0"},{"result":196,"points":1,"place":4,"phase":0,"sequence":22,"prices":[120,221,135,185,200,261,181,251,255,196],"times":[1197,548,527,610,602,565,797,1033,830,1997],"next_num":10,"trial_type":"ticket-choose","trial_index":42,"time_elapsed":1379912,"internal_node_id":"0.0-42.0"},{"result":105,"points":3,"place":0,"phase":0,"sequence":23,"prices":[151,176,126,251,170,196,165,145,105,201],"times":[862,524,1666,525,559,578,964,777,861],"next_num":9,"trial_type":"ticket-choose","trial_index":43,"time_elapsed":1391275,"internal_node_id":"0.0-43.0"},{"result":150,"points":2,"place":1,"phase":0,"sequence":24,"prices":[181,156,145,165,236,231,201,260,150,185],"times":[1409,625,691,634,613,554,853,674,2215],"next_num":9,"trial_type":"ticket-choose","trial_index":44,"time_elapsed":1403535,"internal_node_id":"0.0-44.0"},{"result":66,"points":3,"place":0,"phase":0,"sequence":25,"prices":[66,201,96,150,185,230,121,216,225,165],"times":[1048],"next_num":1,"trial_type":"ticket-choose","trial_index":45,"time_elapsed":1407391,"internal_node_id":"0.0-45.0"},{"result":81,"points":3,"place":0,"phase":0,"sequence":26,"prices":[81,205,130,151,191,261,145,210,250,165],"times":[1381],"next_num":1,"trial_type":"ticket-choose","trial_index":46,"time_elapsed":1411637,"internal_node_id":"0.0-46.0"},{"result":105,"points":3,"place":0,"phase":0,"sequence":27,"prices":[160,180,130,251,176,195,170,146,105,200],"times":[1196,557,887,589,564,642,580,2285,916],"next_num":9,"trial_type":"ticket-choose","trial_index":47,"time_elapsed":1424172,"internal_node_id":"0.0-47.0"},{"result":120,"points":2,"place":1,"phase":0,"sequence":28,"prices":[145,170,160,245,165,190,120,141,100,195],"times":[1056,581,511,526,531,587,3768],"next_num":7,"trial_type":"ticket-choose","trial_index":48,"time_elapsed":1435371,"internal_node_id":"0.0-48.0"},{"result":145,"points":1,"place":2,"phase":0,"sequence":29,"prices":[150,176,126,251,171,195,165,145,105,200],"times":[1057,900,1576,555,532,644,689,3951],"next_num":8,"trial_type":"ticket-choose","trial_index":49,"time_elapsed":1449035,"internal_node_id":"0.0-49.0"},{"result":106,"points":3,"place":0,"phase":0,"sequence":30,"prices":[180,106,166,245,211,261,215,125,135,190],"times":[1354,1518],"next_num":2,"trial_type":"ticket-choose","trial_index":50,"time_elapsed":1454969,"internal_node_id":"0.0-50.0"},{"result":86,"points":3,"place":0,"phase":0,"sequence":31,"prices":[86,180,130,151,170,271,145,191,220,160],"times":[1290],"next_num":1,"trial_type":"ticket-choose","trial_index":51,"time_elapsed":1458715,"internal_node_id":"0.0-51.0"},{"result":100,"points":3,"place":0,"phase":0,"sequence":32,"prices":[146,170,121,245,166,190,161,141,100,195],"times":[1034,589,1109,576,578,666,597,1049,1119],"next_num":9,"trial_type":"ticket-choose","trial_index":52,"time_elapsed":1469985,"internal_node_id":"0.0-52.0"},{"result":121,"points":2,"place":1,"phase":0,"sequence":33,"prices":[150,170,160,240,166,185,121,136,95,191],"times":[899,549,650,563,551,593,2496],"next_num":7,"trial_type":"ticket-choose","trial_index":53,"time_elapsed":1479737,"internal_node_id":"0.0-53.0"},{"result":125,"points":1,"place":2,"phase":0,"sequence":34,"prices":[226,205,125,120,115,135,180,145,150,220],"times":[928,681,1418],"next_num":3,"trial_type":"ticket-choose","trial_index":54,"time_elapsed":1485477,"internal_node_id":"0.0-54.0"},{"result":155,"points":1,"place":4,"phase":0,"sequence":35,"prices":[135,180,141,151,175,220,145,196,211,155],"times":[935,626,1016,1136,588,596,1706,649,1300,1055],"next_num":10,"trial_type":"ticket-choose","trial_index":55,"time_elapsed":1499098,"internal_node_id":"0.0-55.0"},{"result":120,"points":2,"place":1,"phase":0,"sequence":36,"prices":[145,171,161,245,165,191,120,140,100,196],"times":[912,642,619,658,612,602,1247],"next_num":7,"trial_type":"ticket-choose","trial_index":56,"time_elapsed":1507919,"internal_node_id":"0.0-56.0"},{"result":101,"points":3,"place":0,"phase":0,"sequence":37,"prices":[156,175,125,245,170,190,165,140,101,196],"times":[2963,936,533,618,619,610,651,1903,870],"next_num":9,"trial_type":"ticket-choose","trial_index":57,"time_elapsed":1521461,"internal_node_id":"0.0-57.0"},{"result":95,"points":3,"place":0,"phase":0,"sequence":38,"prices":[150,171,121,241,165,185,160,136,95,191],"times":[2182,494,1161,603,707,618,610,696,1238],"next_num":9,"trial_type":"ticket-choose","trial_index":58,"time_elapsed":1535312,"internal_node_id":"0.0-58.0"},{"result":111,"points":3,"place":0,"phase":0,"sequence":39,"prices":[175,211,266,286,111,216,220,245,230,165],"times":[3183,556,500,462,1440],"next_num":5,"trial_type":"ticket-choose","trial_index":59,"time_elapsed":1544805,"internal_node_id":"0.0-59.0"},{"result":131,"points":2,"place":1,"phase":0,"sequence":40,"prices":[161,180,171,250,176,195,131,146,105,201],"times":[753,542,822,571,601,605,1730],"next_num":7,"trial_type":"ticket-choose","trial_index":60,"time_elapsed":1553868,"internal_node_id":"0.0-60.0"},{"result":126,"points":2,"place":1,"phase":0,"sequence":41,"prices":[150,175,166,251,170,196,126,145,105,201],"times":[1221,596,604,611,1064,611,1595],"next_num":7,"trial_type":"ticket-choose","trial_index":61,"time_elapsed":1563611,"internal_node_id":"0.0-61.0"},{"result":126,"points":2,"place":1,"phase":0,"sequence":42,"prices":[156,176,165,246,171,190,126,141,101,196],"times":[889,432,556,564,596,580,1206],"next_num":7,"trial_type":"ticket-choose","trial_index":62,"time_elapsed":1571937,"internal_node_id":"0.0-62.0"},{"result":106,"points":2,"place":1,"phase":0,"sequence":43,"prices":[185,180,235,210,106,266,76,115,250,205],"times":[969,463,589,533,1020],"next_num":5,"trial_type":"ticket-choose","trial_index":63,"time_elapsed":1578545,"internal_node_id":"0.0-63.0"},{"result":75,"points":3,"place":0,"phase":0,"sequence":44,"prices":[75,171,131,151,161,250,145,190,206,156],"times":[1016],"next_num":1,"trial_type":"ticket-choose","trial_index":64,"time_elapsed":1582198,"internal_node_id":"0.0-64.0"},{"result":175,"points":1,"place":4,"phase":0,"sequence":45,"prices":[130,195,141,155,181,226,150,216,221,175],"times":[1596,1136,673,524,557,556,556,940,651,2005],"next_num":11,"trial_type":"ticket-choose","trial_index":65,"time_elapsed":1595740,"internal_node_id":"0.0-65.0"},{"result":106,"points":3,"place":0,"phase":0,"sequence":46,"prices":[155,225,245,130,176,106,180,211,165,200],"times":[1257,605,683,2048,516,947],"next_num":6,"trial_type":"ticket-choose","trial_index":66,"time_elapsed":1605197,"internal_node_id":"0.0-66.0"},{"result":95,"points":3,"place":0,"phase":0,"sequence":47,"prices":[95,205,106,151,186,271,145,210,215,181],"times":[1438],"next_num":1,"trial_type":"ticket-choose","trial_index":67,"time_elapsed":1608988,"internal_node_id":"0.0-67.0"},{"result":116,"points":3,"place":0,"phase":0,"sequence":48,"prices":[176,150,276,171,261,116,130,201,166,231],"times":[1056,572,559,861,674,1051],"next_num":6,"trial_type":"ticket-choose","trial_index":68,"time_elapsed":1617560,"internal_node_id":"0.0-68.0"},{"result":140,"points":1,"place":2,"phase":0,"sequence":49,"prices":[156,175,126,246,170,190,165,140,100,196],"times":[1541,541,1307,565,609,720,753,1730],"next_num":8,"trial_type":"ticket-choose","trial_index":69,"time_elapsed":1629167,"internal_node_id":"0.0-69.0"},{"responses":[{"value":0,"offby":-1,"category":"$30 - $75","category_index":0},{"value":0,"offby":-2,"category":"$76 - $120","category_index":1},{"value":4,"offby":0,"category":"$121 - $165","category_index":2},{"value":8,"offby":2,"category":"$166 - $210","category_index":3},{"value":4,"offby":-2,"category":"$211 - $255","category_index":4},{"value":2,"offby":1,"category":"$256 - $300","category_index":5},{"value":0,"offby":0,"category":"$301 - $345","category_index":6}],"phase":0,"number":1,"trial_type":"bar-choose","trial_index":70,"time_elapsed":1701618,"internal_node_id":"0.0-70.0"},{"rt":12491,"url":"\/tickets\/utils\/start2.html","trial_type":"html","trial_index":71,"time_elapsed":1715244,"internal_node_id":"0.0-71.0"},{"trial_type":"number-animation","trial_index":72,"time_elapsed":1754651,"internal_node_id":"0.0-72.0"},{"phase":1,"sequence":0,"avg":180,"response":180,"trial_type":"training_avg","trial_index":73,"time_elapsed":1763204,"internal_node_id":"0.0-73.0"},{"trial_type":"number-animation","trial_index":74,"time_elapsed":1844109,"internal_node_id":"0.0-74.0"},{"phase":1,"sequence":1,"avg":178,"response":178,"trial_type":"training_avg","trial_index":75,"time_elapsed":1851959,"internal_node_id":"0.0-75.0"},{"trial_type":"number-animation","trial_index":76,"time_elapsed":1898706,"internal_node_id":"0.0-76.0"},{"phase":1,"sequence":2,"avg":176,"response":171,"trial_type":"training_avg","trial_index":77,"time_elapsed":1903976,"internal_node_id":"0.0-77.0"},{"trial_type":"number-animation","trial_index":78,"time_elapsed":1949356,"internal_node_id":"0.0-78.0"},{"phase":1,"sequence":3,"avg":178,"response":178,"trial_type":"training_avg","trial_index":79,"time_elapsed":1956773,"internal_node_id":"0.0-79.0"},{"trial_type":"number-animation","trial_index":80,"time_elapsed":1993148,"internal_node_id":"0.0-80.0"},{"phase":1,"sequence":4,"avg":179,"response":179,"trial_type":"training_avg","trial_index":81,"time_elapsed":2000180,"internal_node_id":"0.0-81.0"},{"responses":[{"value":0,"offby":0,"category":"$140 - $250","category_index":0},{"value":2,"offby":2,"category":"$151 - $160","category_index":1},{"value":4,"offby":0,"category":"$161 - $170","category_index":2},{"value":8,"offby":2,"category":"$171 - $180","category_index":3},{"value":2,"offby":-5,"category":"$181 - $190","category_index":4},{"value":3,"offby":0,"category":"$191 - $200","category_index":5},{"value":1,"offby":1,"category":"$201 - $210","category_index":6}],"phase":1,"number":0,"trial_type":"bar-choose","trial_index":82,"time_elapsed":2065798,"internal_node_id":"0.0-82.0"},{"rt":11539,"url":"\/tickets\/utils\/testing2.html","trial_type":"html","trial_index":83,"time_elapsed":2078463,"internal_node_id":"0.0-83.0"},{"phase":1,"order":[4,39,11,45,17,26,43,35,15,38,14,29,42,37,44,10,7,8,48,18,21,13,27,2,47,31,30,9,23,3,41,24,19,20,36,32,22,1,16,46,12,6,5,34,28,33,49,25,40,0],"trial_type":"store_order","trial_index":84,"time_elapsed":2079465,"internal_node_id":"0.0-84.0"},{"result":156,"points":3,"place":0,"phase":1,"sequence":0,"prices":[195,177,197,179,171,173,175,156,163,204],"times":[3552,1009,557,540,714,1056,682,1567],"next_num":8,"trial_type":"ticket-choose","trial_index":85,"time_elapsed":2094571,"internal_node_id":"0.0-85.0"},{"result":165,"points":3,"place":0,"phase":1,"sequence":1,"prices":[174,179,169,194,178,183,177,173,165,184],"times":[5650,519,721,580,557,663,604,1048,1534],"next_num":9,"trial_type":"ticket-choose","trial_index":86,"time_elapsed":2110617,"internal_node_id":"0.0-86.0"},{"result":165,"points":3,"place":0,"phase":1,"sequence":2,"prices":[176,180,170,194,179,183,178,173,165,184],"times":[1721,610,853,531,838,1276,979,596,1157],"next_num":9,"trial_type":"ticket-choose","trial_index":87,"time_elapsed":2123411,"internal_node_id":"0.0-87.0"},{"result":164,"points":3,"place":0,"phase":1,"sequence":3,"prices":[173,178,168,193,177,182,176,172,164,183],"times":[5093,563,997,517,564,598,854,689,1066],"next_num":9,"trial_type":"ticket-choose","trial_index":88,"time_elapsed":2138471,"internal_node_id":"0.0-88.0"},{"result":164,"points":1,"place":2,"phase":1,"sequence":4,"prices":[188,191,179,157,181,164,166,156,175,182],"times":[1622,486,477,531,1926,1307],"next_num":6,"trial_type":"ticket-choose","trial_index":89,"time_elapsed":2148128,"internal_node_id":"0.0-89.0"},{"result":183,"points":1,"place":4,"phase":1,"sequence":5,"prices":[168,188,171,181,184,196,180,194,195,183],"times":[1006,453,548,662,559,647,698,619,1691,1590],"next_num":10,"trial_type":"ticket-choose","trial_index":90,"time_elapsed":2160630,"internal_node_id":"0.0-90.0"},{"result":169,"points":2,"place":1,"phase":1,"sequence":6,"prices":[175,179,177,193,178,182,169,172,164,183],"times":[774,518,517,596,533,564,964],"next_num":7,"trial_type":"ticket-choose","trial_index":91,"time_elapsed":2168452,"internal_node_id":"0.0-91.0"},{"result":166,"points":3,"place":0,"phase":1,"sequence":7,"prices":[179,186,197,201,166,187,188,193,190,177],"times":[2627,627,620,626,972],"next_num":5,"trial_type":"ticket-choose","trial_index":92,"time_elapsed":2176974,"internal_node_id":"0.0-92.0"},{"result":168,"points":2,"place":1,"phase":1,"sequence":8,"prices":[174,178,176,192,177,181,168,171,163,182],"times":[858,706,586,629,609,737,972],"next_num":7,"trial_type":"ticket-choose","trial_index":93,"time_elapsed":2185396,"internal_node_id":"0.0-93.0"},{"result":165,"points":3,"place":0,"phase":1,"sequence":9,"prices":[176,180,178,194,179,183,170,173,165,184],"times":[816,1628,557,611,605,681,1300,1042,869],"next_num":9,"trial_type":"ticket-choose","trial_index":94,"time_elapsed":2197704,"internal_node_id":"0.0-94.0"},{"result":166,"points":3,"place":0,"phase":1,"sequence":10,"prices":[166,190,170,173,178,203,172,192,198,174],"times":[1358],"next_num":1,"trial_type":"ticket-choose","trial_index":95,"time_elapsed":2201370,"internal_node_id":"0.0-95.0"},{"result":169,"points":2,"place":1,"phase":1,"sequence":11,"prices":[174,179,177,194,178,183,169,173,165,184],"times":[889,531,581,1103,542,1018,932],"next_num":7,"trial_type":"ticket-choose","trial_index":96,"time_elapsed":2210332,"internal_node_id":"0.0-96.0"},{"result":169,"points":2,"place":1,"phase":1,"sequence":12,"prices":[174,179,177,194,178,183,169,173,165,184],"times":[760,540,729,556,525,595,1424],"next_num":7,"trial_type":"ticket-choose","trial_index":97,"time_elapsed":2218720,"internal_node_id":"0.0-97.0"},{"result":164,"points":3,"place":0,"phase":1,"sequence":13,"prices":[175,179,169,193,178,182,177,172,164,183],"times":[1061,449,421,970,613,573,751,2269,823],"next_num":9,"trial_type":"ticket-choose","trial_index":98,"time_elapsed":2230616,"internal_node_id":"0.0-98.0"},{"result":171,"points":1,"place":2,"phase":1,"sequence":14,"prices":[174,178,168,192,177,181,176,171,163,182],"times":[1121,753,1932,555,643,580,581,1628],"next_num":8,"trial_type":"ticket-choose","trial_index":99,"time_elapsed":2242170,"internal_node_id":"0.0-99.0"},{"result":166,"points":3,"place":0,"phase":1,"sequence":15,"prices":[175,180,178,195,179,184,170,174,166,185],"times":[1070,509,972,861,571,633,675,1261,846],"next_num":9,"trial_type":"ticket-choose","trial_index":100,"time_elapsed":2253586,"internal_node_id":"0.0-100.0"},{"result":176,"points":1,"place":4,"phase":1,"sequence":16,"prices":[161,180,170,174,178,198,173,182,188,176],"times":[1243,1026,525,883,612,728,659,639,815,1103],"next_num":10,"trial_type":"ticket-choose","trial_index":101,"time_elapsed":2265721,"internal_node_id":"0.0-101.0"},{"result":165,"points":3,"place":0,"phase":1,"sequence":17,"prices":[176,180,170,194,179,183,178,173,165,184],"times":[1150,592,604,783,719,636,619,1144,885],"next_num":9,"trial_type":"ticket-choose","trial_index":102,"time_elapsed":2276564,"internal_node_id":"0.0-102.0"},{"result":157,"points":3,"place":0,"phase":1,"sequence":18,"prices":[157,184,163,174,181,190,168,187,189,177],"times":[1100],"next_num":1,"trial_type":"ticket-choose","trial_index":103,"time_elapsed":2279770,"internal_node_id":"0.0-103.0"},{"result":166,"points":3,"place":0,"phase":1,"sequence":19,"prices":[175,180,178,195,179,184,170,174,166,185],"times":[1399,633,565,550,613,578,611,734,979],"next_num":9,"trial_type":"ticket-choose","trial_index":104,"time_elapsed":2290121,"internal_node_id":"0.0-104.0"},{"result":169,"points":2,"place":1,"phase":1,"sequence":20,"prices":[175,179,177,193,178,182,169,172,164,183],"times":[961,564,518,650,626,855,1011],"next_num":7,"trial_type":"ticket-choose","trial_index":105,"time_elapsed":2298566,"internal_node_id":"0.0-105.0"},{"result":168,"points":2,"place":1,"phase":1,"sequence":21,"prices":[181,175,182,168,183,173,153,170,193,179],"times":[1157,538,525,1299],"next_num":4,"trial_type":"ticket-choose","trial_index":106,"time_elapsed":2304727,"internal_node_id":"0.0-106.0"},{"result":168,"points":2,"place":1,"phase":1,"sequence":22,"prices":[173,178,176,193,177,182,168,172,164,183],"times":[786,501,766,629,680,602,2410],"next_num":7,"trial_type":"ticket-choose","trial_index":107,"time_elapsed":2314510,"internal_node_id":"0.0-107.0"},{"result":154,"points":3,"place":0,"phase":1,"sequence":23,"prices":[188,179,154,183,173,170,177,160,169,175],"times":[1412,752,1800],"next_num":3,"trial_type":"ticket-choose","trial_index":108,"time_elapsed":2321038,"internal_node_id":"0.0-108.0"},{"result":160,"points":3,"place":0,"phase":1,"sequence":24,"prices":[160,185,170,174,182,196,173,186,194,177],"times":[1270],"next_num":1,"trial_type":"ticket-choose","trial_index":109,"time_elapsed":2324547,"internal_node_id":"0.0-109.0"},{"result":179,"points":1,"place":4,"phase":1,"sequence":25,"prices":[170,183,172,175,180,189,174,187,188,179],"times":[588,578,532,596,674,651,1018,721,691,1369],"next_num":10,"trial_type":"ticket-choose","trial_index":110,"time_elapsed":2335799,"internal_node_id":"0.0-110.0"},{"result":177,"points":1,"place":2,"phase":1,"sequence":26,"prices":[181,179,199,188,170,172,178,187,191,177],"times":[1227,617,596,682,988,783,808,1000,901,1019],"next_num":10,"trial_type":"ticket-choose","trial_index":111,"time_elapsed":2348568,"internal_node_id":"0.0-111.0"},{"result":163,"points":3,"place":0,"phase":1,"sequence":27,"prices":[163,185,165,174,181,198,173,186,187,180],"times":[1293],"next_num":1,"trial_type":"ticket-choose","trial_index":112,"time_elapsed":2352390,"internal_node_id":"0.0-112.0"},{"result":174,"points":2,"place":1,"phase":1,"sequence":28,"prices":[180,175,173,177,191,190,184,196,174,181],"times":[1353,686,743,605,596,720,1284,933,1171],"next_num":9,"trial_type":"ticket-choose","trial_index":113,"time_elapsed":2364455,"internal_node_id":"0.0-113.0"},{"result":175,"points":1,"place":4,"phase":1,"sequence":29,"prices":[171,180,172,174,179,188,173,183,186,175],"times":[1226,586,549,736,737,642,1675,690,1707,1315],"next_num":10,"trial_type":"ticket-choose","trial_index":114,"time_elapsed":2378170,"internal_node_id":"0.0-114.0"},{"result":162,"points":3,"place":0,"phase":1,"sequence":30,"prices":[179,174,172,162,202,184,165,197,185,169],"times":[1300,674,1416,1088],"next_num":4,"trial_type":"ticket-choose","trial_index":115,"time_elapsed":2385458,"internal_node_id":"0.0-115.0"},{"result":166,"points":3,"place":0,"phase":1,"sequence":31,"prices":[175,180,170,195,179,184,178,174,166,185],"times":[923,548,1816,586,574,594,972,679,1088],"next_num":9,"trial_type":"ticket-choose","trial_index":116,"time_elapsed":2397130,"internal_node_id":"0.0-116.0"},{"result":165,"points":2,"place":1,"phase":1,"sequence":32,"prices":[181,180,191,186,165,197,159,167,194,185],"times":[1228,728,619,618,1096],"next_num":5,"trial_type":"ticket-choose","trial_index":117,"time_elapsed":2404432,"internal_node_id":"0.0-117.0"},{"result":168,"points":2,"place":1,"phase":1,"sequence":33,"prices":[174,178,176,192,177,181,168,171,163,182],"times":[733,565,509,729,604,955,1024],"next_num":7,"trial_type":"ticket-choose","trial_index":118,"time_elapsed":2412971,"internal_node_id":"0.0-118.0"},{"result":164,"points":3,"place":0,"phase":1,"sequence":34,"prices":[175,179,169,193,178,182,177,172,164,183],"times":[1416,635,2992,518,446,596,503,561,1207],"next_num":9,"trial_type":"ticket-choose","trial_index":119,"time_elapsed":2425684,"internal_node_id":"0.0-119.0"},{"result":170,"points":2,"place":1,"phase":1,"sequence":35,"prices":[176,180,178,194,179,183,170,173,165,184],"times":[1255,564,511,573,573,556,1200],"next_num":7,"trial_type":"ticket-choose","trial_index":120,"time_elapsed":2434372,"internal_node_id":"0.0-120.0"},{"result":159,"points":3,"place":0,"phase":1,"sequence":36,"prices":[159,178,170,174,176,194,173,182,185,175],"times":[1345],"next_num":1,"trial_type":"ticket-choose","trial_index":121,"time_elapsed":2438287,"internal_node_id":"0.0-121.0"},{"result":168,"points":2,"place":1,"phase":1,"sequence":37,"prices":[173,178,168,193,177,182,176,172,164,183],"times":[1415,549,970],"next_num":3,"trial_type":"ticket-choose","trial_index":122,"time_elapsed":2443893,"internal_node_id":"0.0-122.0"},{"result":169,"points":2,"place":1,"phase":1,"sequence":38,"prices":[174,179,169,194,178,183,177,173,165,184],"times":[801,495,988],"next_num":3,"trial_type":"ticket-choose","trial_index":123,"time_elapsed":2448735,"internal_node_id":"0.0-123.0"},{"result":165,"points":3,"place":0,"phase":1,"sequence":39,"prices":[180,165,177,193,186,196,187,169,171,182],"times":[1313,1291],"next_num":2,"trial_type":"ticket-choose","trial_index":124,"time_elapsed":2454357,"internal_node_id":"0.0-124.0"},{"result":150,"points":3,"place":0,"phase":1,"sequence":40,"prices":[175,150,164,155,171,199,158,180,184,196],"times":[1005,949],"next_num":2,"trial_type":"ticket-choose","trial_index":125,"time_elapsed":2460302,"internal_node_id":"0.0-125.0"},{"result":167,"points":3,"place":0,"phase":1,"sequence":41,"prices":[179,174,199,178,196,167,170,184,177,190],"times":[971,550,586,675,645,1072],"next_num":6,"trial_type":"ticket-choose","trial_index":126,"time_elapsed":2467895,"internal_node_id":"0.0-126.0"},{"result":165,"points":3,"place":0,"phase":1,"sequence":42,"prices":[175,189,193,170,179,165,180,186,177,184],"times":[4590,548,534,1996,867,1136],"next_num":6,"trial_type":"ticket-choose","trial_index":127,"time_elapsed":2480667,"internal_node_id":"0.0-127.0"},{"result":165,"points":3,"place":0,"phase":1,"sequence":43,"prices":[165,187,173,177,186,196,176,191,192,181],"times":[2989],"next_num":1,"trial_type":"ticket-choose","trial_index":128,"time_elapsed":2486034,"internal_node_id":"0.0-128.0"},{"result":168,"points":2,"place":1,"phase":1,"sequence":44,"prices":[173,178,176,193,177,182,168,172,164,183],"times":[1262,541,565,1081,621,642,963],"next_num":7,"trial_type":"ticket-choose","trial_index":129,"time_elapsed":2495089,"internal_node_id":"0.0-129.0"},{"result":171,"points":3,"place":0,"phase":1,"sequence":45,"prices":[193,173,175,182,179,198,181,171,176,187],"times":[1382,1675,550,572,627,753,666,1354],"next_num":8,"trial_type":"ticket-choose","trial_index":130,"time_elapsed":2506529,"internal_node_id":"0.0-130.0"},{"result":168,"points":2,"place":1,"phase":1,"sequence":46,"prices":[174,178,168,192,177,181,176,171,163,182],"times":[1325,556,994],"next_num":3,"trial_type":"ticket-choose","trial_index":131,"time_elapsed":2511933,"internal_node_id":"0.0-131.0"},{"result":160,"points":3,"place":0,"phase":1,"sequence":47,"prices":[175,193,175,160,180,170,175,205,177,167],"times":[1053,586,526,1207],"next_num":4,"trial_type":"ticket-choose","trial_index":132,"time_elapsed":2518235,"internal_node_id":"0.0-132.0"},{"result":166,"points":3,"place":0,"phase":1,"sequence":48,"prices":[175,180,170,195,179,184,178,174,166,185],"times":[900,550,515,580,719,597,1157,629,1197],"next_num":9,"trial_type":"ticket-choose","trial_index":133,"time_elapsed":2528845,"internal_node_id":"0.0-133.0"},{"result":169,"points":1,"place":2,"phase":1,"sequence":49,"prices":[189,185,169,168,167,171,180,173,174,188],"times":[1210,1370,1432],"next_num":3,"trial_type":"ticket-choose","trial_index":134,"time_elapsed":2535515,"internal_node_id":"0.0-134.0"},{"responses":[{"value":0,"offby":0,"category":"$140 - $250","category_index":0},{"value":1,"offby":1,"category":"$151 - $160","category_index":1},{"value":3,"offby":-1,"category":"$161 - $170","category_index":2},{"value":7,"offby":1,"category":"$171 - $180","category_index":3},{"value":5,"offby":-2,"category":"$181 - $190","category_index":4},{"value":2,"offby":-1,"category":"$191 - $200","category_index":5},{"value":1,"offby":1,"category":"$201 - $210","category_index":6}],"phase":1,"number":1,"trial_type":"bar-choose","trial_index":135,"time_elapsed":2574772,"internal_node_id":"0.0-135.0"},{"special_comment":"notreally","trial_type":"special_sequence","trial_index":136,"time_elapsed":2592159,"internal_node_id":"0.0-136.0"},{"during":"Nothing","bonus":316,"trial_type":"final","trial_index":137,"time_elapsed":2624356,"internal_node_id":"0.0-137.0"}],"bonus":316}