{"start_time":"2017-02-15 11:06:09","end_time":"2017-02-15 11:37:38","points_phase0":118,"points_phase1":116,"phase_order":1,"age":36,"gender":"m","tries":1,"during":"Nothing","worker_id":"A2KVYVMF3P6AOI","assignment_id":"3J2UYBXQQM5OMTWN4PT87QQJT7G06H","data":[{"rt":75619,"url":"\/tickets\/utils\/consent.html","trial_type":"html","trial_index":0,"time_elapsed":75672,"internal_node_id":"0.0-0.0"},{"age":36,"gender":"m","trial_type":"age","trial_index":1,"time_elapsed":79880,"internal_node_id":"0.0-1.0"},{"worker_id":"A2KVYVMF3P6AOI","trial_type":"workerid","trial_index":2,"time_elapsed":96416,"internal_node_id":"0.0-2.0"},{"tries":1,"trial_type":"instructions_check","trial_index":3,"time_elapsed":164592,"internal_node_id":"0.0-3.0"},{"rt":16999,"url":"\/tickets\/utils\/start.html","trial_type":"html","trial_index":4,"time_elapsed":182661,"internal_node_id":"0.0-4.0"},{"trial_type":"number-animation","trial_index":5,"time_elapsed":208302,"internal_node_id":"0.0-5.0"},{"phase":0,"sequence":0,"avg":182,"response":155,"trial_type":"training_avg","trial_index":6,"time_elapsed":220864,"internal_node_id":"0.0-6.0"},{"trial_type":"number-animation","trial_index":7,"time_elapsed":246598,"internal_node_id":"0.0-7.0"},{"phase":0,"sequence":1,"avg":188,"response":184,"trial_type":"training_avg","trial_index":8,"time_elapsed":256167,"internal_node_id":"0.0-8.0"},{"trial_type":"number-animation","trial_index":9,"time_elapsed":284214,"internal_node_id":"0.0-9.0"},{"phase":0,"sequence":2,"avg":176,"response":178,"trial_type":"training_avg","trial_index":10,"time_elapsed":291818,"internal_node_id":"0.0-10.0"},{"trial_type":"number-animation","trial_index":11,"time_elapsed":321333,"internal_node_id":"0.0-11.0"},{"phase":0,"sequence":3,"avg":180,"response":185,"trial_type":"training_avg","trial_index":12,"time_elapsed":328909,"internal_node_id":"0.0-12.0"},{"trial_type":"number-animation","trial_index":13,"time_elapsed":357524,"internal_node_id":"0.0-13.0"},{"phase":0,"sequence":4,"avg":174,"response":182,"trial_type":"training_avg","trial_index":14,"time_elapsed":365506,"internal_node_id":"0.0-14.0"},{"responses":[{"value":0,"offby":-1,"category":"$90 - $120","category_index":0},{"value":2,"offby":-1,"category":"$121 - $145","category_index":1},{"value":4,"offby":1,"category":"$146 - $170","category_index":2},{"value":7,"offby":1,"category":"$171 - $195","category_index":3},{"value":5,"offby":1,"category":"$196 - $220","category_index":4},{"value":2,"offby":0,"category":"$221 - $245","category_index":5},{"value":0,"offby":-1,"category":"$246 - $270","category_index":6}],"phase":0,"number":0,"trial_type":"bar-choose","trial_index":15,"time_elapsed":459874,"internal_node_id":"0.0-15.0"},{"rt":21240,"url":"\/tickets\/\/utils\/testing.html","trial_type":"html","trial_index":16,"time_elapsed":482181,"internal_node_id":"0.0-16.0"},{"phase":0,"order":[3,36,25,48,26,0,14,31,43,11,42,39,29,6,40,10,37,1,20,35,8,27,9,17,19,23,2,41,16,22,49,21,28,15,34,33,45,44,38,30,46,4,13,5,24,18,47,7,32,12],"trial_type":"store_order","trial_index":17,"time_elapsed":483184,"internal_node_id":"0.0-17.0"},{"result":126,"points":3,"place":0,"phase":0,"sequence":-1,"times":[2162,1397,1128,1511,1140,971,926,948,1062,1355],"next_num":10,"trial_type":"ticket-choose","trial_index":18,"time_elapsed":500294,"internal_node_id":"0.0-18.0"},{"rt":30872,"url":"\/tickets\/utils\/testing_after.html","trial_type":"html","trial_index":19,"time_elapsed":532259,"internal_node_id":"0.0-19.0"},{"result":146,"points":2,"place":1,"phase":0,"sequence":0,"times":[8021,1148,1377],"next_num":3,"trial_type":"ticket-choose","trial_index":20,"time_elapsed":547218,"internal_node_id":"0.0-20.0"},{"result":126,"points":3,"place":0,"phase":0,"sequence":1,"times":[1823,868,3299,834,738,723,745,1118,1162],"next_num":9,"trial_type":"ticket-choose","trial_index":21,"time_elapsed":564081,"internal_node_id":"0.0-21.0"},{"result":136,"points":2,"place":1,"phase":0,"sequence":2,"times":[1855,1186,982,892,857,937,1004],"next_num":7,"trial_type":"ticket-choose","trial_index":22,"time_elapsed":576332,"internal_node_id":"0.0-22.0"},{"result":126,"points":3,"place":0,"phase":0,"sequence":3,"times":[1532,868,858,938,984,869,2265,1039,1049],"next_num":9,"trial_type":"ticket-choose","trial_index":23,"time_elapsed":592029,"internal_node_id":"0.0-23.0"},{"result":149,"points":3,"place":0,"phase":0,"sequence":4,"times":[5463,1330,938,756,1343,892,735,1049],"next_num":8,"trial_type":"ticket-choose","trial_index":24,"time_elapsed":609341,"internal_node_id":"0.0-24.0"},{"result":105,"points":3,"place":0,"phase":0,"sequence":5,"times":[5037,1927,665,848,1164],"next_num":5,"trial_type":"ticket-choose","trial_index":25,"time_elapsed":622334,"internal_node_id":"0.0-25.0"},{"result":135,"points":3,"place":0,"phase":0,"sequence":6,"times":[1604,791,1127],"next_num":3,"trial_type":"ticket-choose","trial_index":26,"time_elapsed":629005,"internal_node_id":"0.0-26.0"},{"result":146,"points":3,"place":0,"phase":0,"sequence":7,"times":[1958,746,914,746,768,803,870,994],"next_num":8,"trial_type":"ticket-choose","trial_index":27,"time_elapsed":640932,"internal_node_id":"0.0-27.0"},{"result":136,"points":2,"place":1,"phase":0,"sequence":8,"times":[1810,780,1084],"next_num":3,"trial_type":"ticket-choose","trial_index":28,"time_elapsed":647365,"internal_node_id":"0.0-28.0"},{"result":131,"points":3,"place":0,"phase":0,"sequence":9,"times":[1194,801,915,837,916,960,1297,1173,915,926],"next_num":10,"trial_type":"ticket-choose","trial_index":29,"time_elapsed":662080,"internal_node_id":"0.0-29.0"},{"result":136,"points":2,"place":1,"phase":0,"sequence":10,"times":[1593,872,3231],"next_num":3,"trial_type":"ticket-choose","trial_index":30,"time_elapsed":670271,"internal_node_id":"0.0-30.0"},{"result":136,"points":2,"place":1,"phase":0,"sequence":11,"times":[1304,756,917,830,848,758,1365],"next_num":7,"trial_type":"ticket-choose","trial_index":31,"time_elapsed":680681,"internal_node_id":"0.0-31.0"},{"result":132,"points":3,"place":0,"phase":0,"sequence":12,"times":[3567],"next_num":1,"trial_type":"ticket-choose","trial_index":32,"time_elapsed":687190,"internal_node_id":"0.0-32.0"},{"result":133,"points":3,"place":0,"phase":0,"sequence":13,"times":[1357,823,2288,837,746,678,702,2233,959,825],"next_num":10,"trial_type":"ticket-choose","trial_index":33,"time_elapsed":702997,"internal_node_id":"0.0-33.0"},{"result":192,"points":1,"place":4,"phase":0,"sequence":14,"times":[1731,1072,848,826,723,768,1152,881,958,1295],"next_num":10,"trial_type":"ticket-choose","trial_index":34,"time_elapsed":717488,"internal_node_id":"0.0-34.0"},{"result":121,"points":3,"place":0,"phase":0,"sequence":15,"times":[1323],"next_num":1,"trial_type":"ticket-choose","trial_index":35,"time_elapsed":721200,"internal_node_id":"0.0-35.0"},{"result":124,"points":3,"place":0,"phase":0,"sequence":16,"times":[1584,758,757,995],"next_num":4,"trial_type":"ticket-choose","trial_index":36,"time_elapsed":728197,"internal_node_id":"0.0-36.0"},{"result":116,"points":3,"place":0,"phase":0,"sequence":17,"times":[3339,1567,802,903,1445,904],"next_num":6,"trial_type":"ticket-choose","trial_index":37,"time_elapsed":740381,"internal_node_id":"0.0-37.0"},{"result":128,"points":3,"place":0,"phase":0,"sequence":18,"times":[3734,722,1219,667,701,632,690,884],"next_num":8,"trial_type":"ticket-choose","trial_index":38,"time_elapsed":753218,"internal_node_id":"0.0-38.0"},{"result":136,"points":3,"place":0,"phase":0,"sequence":19,"times":[2495,814,757,1185,645,960],"next_num":6,"trial_type":"ticket-choose","trial_index":39,"time_elapsed":797083,"internal_node_id":"0.0-39.0"},{"result":136,"points":2,"place":1,"phase":0,"sequence":20,"times":[4807,1691,984],"next_num":3,"trial_type":"ticket-choose","trial_index":40,"time_elapsed":807623,"internal_node_id":"0.0-40.0"},{"result":162,"points":1,"place":3,"phase":0,"sequence":21,"times":[1756,913,969,836,1893,825,701,701,713,1006],"next_num":10,"trial_type":"ticket-choose","trial_index":41,"time_elapsed":822215,"internal_node_id":"0.0-41.0"},{"result":136,"points":2,"place":1,"phase":0,"sequence":22,"times":[1146,1107,937,826,937,825,1072],"next_num":7,"trial_type":"ticket-choose","trial_index":42,"time_elapsed":832519,"internal_node_id":"0.0-42.0"},{"result":124,"points":3,"place":0,"phase":0,"sequence":23,"times":[1099],"next_num":1,"trial_type":"ticket-choose","trial_index":43,"time_elapsed":835816,"internal_node_id":"0.0-43.0"},{"result":127,"points":3,"place":0,"phase":0,"sequence":24,"times":[1394,734,692,745,725,770,711,1207,824,882],"next_num":10,"trial_type":"ticket-choose","trial_index":44,"time_elapsed":848708,"internal_node_id":"0.0-44.0"},{"result":114,"points":3,"place":0,"phase":0,"sequence":25,"times":[1374,633,1229,893],"next_num":4,"trial_type":"ticket-choose","trial_index":45,"time_elapsed":855694,"internal_node_id":"0.0-45.0"},{"result":146,"points":2,"place":1,"phase":0,"sequence":26,"times":[1261,680,724,662,982,870,1140],"next_num":7,"trial_type":"ticket-choose","trial_index":46,"time_elapsed":865494,"internal_node_id":"0.0-46.0"},{"result":196,"points":1,"place":4,"phase":0,"sequence":27,"times":[1852,723,837,723,701,645,702,838,912,1028],"next_num":10,"trial_type":"ticket-choose","trial_index":47,"time_elapsed":878476,"internal_node_id":"0.0-47.0"},{"result":188,"points":1,"place":4,"phase":0,"sequence":28,"times":[1867,657,668,691,624,661,701,690,713,849],"next_num":10,"trial_type":"ticket-choose","trial_index":48,"time_elapsed":890727,"internal_node_id":"0.0-48.0"},{"result":136,"points":2,"place":1,"phase":0,"sequence":29,"times":[1202,1018,857,791,848,813,937],"next_num":7,"trial_type":"ticket-choose","trial_index":49,"time_elapsed":900661,"internal_node_id":"0.0-49.0"},{"result":130,"points":2,"place":1,"phase":0,"sequence":30,"times":[1680,915],"next_num":2,"trial_type":"ticket-choose","trial_index":50,"time_elapsed":905611,"internal_node_id":"0.0-50.0"},{"result":156,"points":1,"place":2,"phase":0,"sequence":31,"times":[1236,702,724,734,768,690,848,2060],"next_num":8,"trial_type":"ticket-choose","trial_index":51,"time_elapsed":917210,"internal_node_id":"0.0-51.0"},{"result":135,"points":3,"place":0,"phase":0,"sequence":32,"times":[1158],"next_num":1,"trial_type":"ticket-choose","trial_index":52,"time_elapsed":920911,"internal_node_id":"0.0-52.0"},{"result":131,"points":2,"place":1,"phase":0,"sequence":33,"times":[1385,747,893],"next_num":3,"trial_type":"ticket-choose","trial_index":53,"time_elapsed":926513,"internal_node_id":"0.0-53.0"},{"result":189,"points":1,"place":4,"phase":0,"sequence":34,"times":[1217,644,702,678,635,735,666,791,950,1014],"next_num":10,"trial_type":"ticket-choose","trial_index":54,"time_elapsed":938495,"internal_node_id":"0.0-54.0"},{"result":154,"points":2,"place":1,"phase":0,"sequence":35,"times":[2510,904,869,767,825,869,1006],"next_num":7,"trial_type":"ticket-choose","trial_index":55,"time_elapsed":949779,"internal_node_id":"0.0-55.0"},{"result":136,"points":2,"place":1,"phase":0,"sequence":36,"times":[4847,892,1050],"next_num":3,"trial_type":"ticket-choose","trial_index":56,"time_elapsed":958982,"internal_node_id":"0.0-56.0"},{"result":137,"points":3,"place":0,"phase":0,"sequence":37,"times":[1302],"next_num":1,"trial_type":"ticket-choose","trial_index":57,"time_elapsed":962390,"internal_node_id":"0.0-57.0"},{"result":154,"points":2,"place":1,"phase":0,"sequence":38,"times":[8156,723,590,576,621,735,2939],"next_num":7,"trial_type":"ticket-choose","trial_index":58,"time_elapsed":980143,"internal_node_id":"0.0-58.0"},{"result":146,"points":2,"place":1,"phase":0,"sequence":39,"times":[1156,1107,1465],"next_num":3,"trial_type":"ticket-choose","trial_index":59,"time_elapsed":986431,"internal_node_id":"0.0-59.0"},{"result":146,"points":2,"place":1,"phase":0,"sequence":40,"times":[1339,700,622,757,679,767,1274],"next_num":7,"trial_type":"ticket-choose","trial_index":60,"time_elapsed":995938,"internal_node_id":"0.0-60.0"},{"result":119,"points":3,"place":0,"phase":0,"sequence":41,"times":[1133,837],"next_num":2,"trial_type":"ticket-choose","trial_index":61,"time_elapsed":1000449,"internal_node_id":"0.0-61.0"},{"result":129,"points":2,"place":1,"phase":0,"sequence":42,"times":[1235,1038],"next_num":2,"trial_type":"ticket-choose","trial_index":62,"time_elapsed":1005118,"internal_node_id":"0.0-62.0"},{"result":117,"points":3,"place":0,"phase":0,"sequence":43,"times":[1275],"next_num":1,"trial_type":"ticket-choose","trial_index":63,"time_elapsed":1008639,"internal_node_id":"0.0-63.0"},{"result":126,"points":3,"place":0,"phase":0,"sequence":44,"times":[1295,634,724,927,881,725,802,1476,868,734],"next_num":10,"trial_type":"ticket-choose","trial_index":64,"time_elapsed":1021892,"internal_node_id":"0.0-64.0"},{"result":126,"points":3,"place":0,"phase":0,"sequence":45,"times":[1519,667,1634,668,768,690,779,1782,871],"next_num":9,"trial_type":"ticket-choose","trial_index":65,"time_elapsed":1035032,"internal_node_id":"0.0-65.0"},{"result":124,"points":3,"place":0,"phase":0,"sequence":46,"times":[1351,950,1509,2140,645,746,858],"next_num":7,"trial_type":"ticket-choose","trial_index":66,"time_elapsed":1046574,"internal_node_id":"0.0-66.0"},{"result":146,"points":2,"place":1,"phase":0,"sequence":47,"times":[1133,960,791,803,688,733,1152],"next_num":7,"trial_type":"ticket-choose","trial_index":67,"time_elapsed":1056013,"internal_node_id":"0.0-67.0"},{"result":138,"points":1,"place":2,"phase":0,"sequence":48,"times":[1395,1399],"next_num":2,"trial_type":"ticket-choose","trial_index":68,"time_elapsed":1061255,"internal_node_id":"0.0-68.0"},{"result":132,"points":3,"place":0,"phase":0,"sequence":49,"times":[821,589,677,644,870,791,972,1342,870,700],"next_num":10,"trial_type":"ticket-choose","trial_index":69,"time_elapsed":1073755,"internal_node_id":"0.0-69.0"},{"responses":[{"value":0,"offby":-1,"category":"$90 - $120","category_index":0},{"value":2,"offby":-1,"category":"$121 - $145","category_index":1},{"value":8,"offby":5,"category":"$146 - $170","category_index":2},{"value":6,"offby":0,"category":"$171 - $195","category_index":3},{"value":3,"offby":-1,"category":"$196 - $220","category_index":4},{"value":1,"offby":-1,"category":"$221 - $245","category_index":5},{"value":0,"offby":-1,"category":"$246 - $270","category_index":6}],"phase":0,"number":1,"trial_type":"bar-choose","trial_index":70,"time_elapsed":1116642,"internal_node_id":"0.0-70.0"},{"rt":6468,"url":"\/tickets\/utils\/start2.html","trial_type":"html","trial_index":71,"time_elapsed":1124178,"internal_node_id":"0.0-71.0"},{"trial_type":"number-animation","trial_index":72,"time_elapsed":1143442,"internal_node_id":"0.0-72.0"},{"phase":1,"sequence":0,"avg":181,"response":180,"trial_type":"training_avg","trial_index":73,"time_elapsed":1149524,"internal_node_id":"0.0-73.0"},{"trial_type":"number-animation","trial_index":74,"time_elapsed":1176401,"internal_node_id":"0.0-74.0"},{"phase":1,"sequence":1,"avg":188,"response":187,"trial_type":"training_avg","trial_index":75,"time_elapsed":1183106,"internal_node_id":"0.0-75.0"},{"trial_type":"number-animation","trial_index":76,"time_elapsed":1223133,"internal_node_id":"0.0-76.0"},{"phase":1,"sequence":2,"avg":188,"response":189,"trial_type":"training_avg","trial_index":77,"time_elapsed":1231279,"internal_node_id":"0.0-77.0"},{"trial_type":"number-animation","trial_index":78,"time_elapsed":1265861,"internal_node_id":"0.0-78.0"},{"phase":1,"sequence":3,"avg":177,"response":178,"trial_type":"training_avg","trial_index":79,"time_elapsed":1271026,"internal_node_id":"0.0-79.0"},{"trial_type":"number-animation","trial_index":80,"time_elapsed":1295618,"internal_node_id":"0.0-80.0"},{"phase":1,"sequence":4,"avg":182,"response":180,"trial_type":"training_avg","trial_index":81,"time_elapsed":1301366,"internal_node_id":"0.0-81.0"},{"responses":[{"value":0,"offby":0,"category":"$106 - $134","category_index":0},{"value":2,"offby":1,"category":"$135 - $150","category_index":1},{"value":4,"offby":1,"category":"$151 - $165","category_index":2},{"value":7,"offby":1,"category":"$166 - $180","category_index":3},{"value":4,"offby":-2,"category":"$181 - $195","category_index":4},{"value":3,"offby":0,"category":"$196 - $210","category_index":5},{"value":0,"offby":-1,"category":"$211 - $225","category_index":6}],"phase":1,"number":0,"trial_type":"bar-choose","trial_index":82,"time_elapsed":1328266,"internal_node_id":"0.0-82.0"},{"rt":29714,"url":"\/tickets\/utils\/testing2.html","trial_type":"html","trial_index":83,"time_elapsed":1359104,"internal_node_id":"0.0-83.0"},{"phase":1,"order":[3,0,22,4,45,42,43,38,18,13,16,23,25,9,27,29,47,49,36,46,17,39,20,26,11,48,7,32,24,21,34,8,30,41,28,15,19,33,14,1,5,40,35,31,10,2,37,6,44,12],"trial_type":"store_order","trial_index":84,"time_elapsed":1360109,"internal_node_id":"0.0-84.0"},{"result":165,"points":1,"place":2,"phase":1,"sequence":0,"times":[8527,767,1095,847,926,938,1646,2612],"next_num":8,"trial_type":"ticket-choose","trial_index":85,"time_elapsed":1381276,"internal_node_id":"0.0-85.0"},{"result":154,"points":3,"place":0,"phase":1,"sequence":1,"times":[1526,701,824,801,746,792,916,1794],"next_num":8,"trial_type":"ticket-choose","trial_index":86,"time_elapsed":1394742,"internal_node_id":"0.0-86.0"},{"result":156,"points":3,"place":0,"phase":1,"sequence":2,"times":[1798],"next_num":1,"trial_type":"ticket-choose","trial_index":87,"time_elapsed":1399264,"internal_node_id":"0.0-87.0"},{"result":147,"points":3,"place":0,"phase":1,"sequence":3,"times":[1856,847,1183,1061],"next_num":4,"trial_type":"ticket-choose","trial_index":88,"time_elapsed":1407207,"internal_node_id":"0.0-88.0"},{"result":152,"points":3,"place":0,"phase":1,"sequence":4,"times":[2262],"next_num":1,"trial_type":"ticket-choose","trial_index":89,"time_elapsed":1411684,"internal_node_id":"0.0-89.0"},{"result":166,"points":1,"place":2,"phase":1,"sequence":5,"times":[1656,848,2446,700,666,701,792,1029],"next_num":8,"trial_type":"ticket-choose","trial_index":90,"time_elapsed":1424026,"internal_node_id":"0.0-90.0"},{"result":153,"points":3,"place":0,"phase":1,"sequence":6,"times":[1528,711,836,803,781,724,1612,1017,810,892],"next_num":10,"trial_type":"ticket-choose","trial_index":91,"time_elapsed":1437751,"internal_node_id":"0.0-91.0"},{"result":148,"points":3,"place":0,"phase":1,"sequence":7,"times":[2316],"next_num":1,"trial_type":"ticket-choose","trial_index":92,"time_elapsed":1442284,"internal_node_id":"0.0-92.0"},{"result":157,"points":3,"place":0,"phase":1,"sequence":8,"times":[4531,858,1175],"next_num":3,"trial_type":"ticket-choose","trial_index":93,"time_elapsed":1451836,"internal_node_id":"0.0-93.0"},{"result":153,"points":3,"place":0,"phase":1,"sequence":9,"times":[1618,1068,1185,634,646,666,645,1691,797,606],"next_num":10,"trial_type":"ticket-choose","trial_index":94,"time_elapsed":1465201,"internal_node_id":"0.0-94.0"},{"result":143,"points":3,"place":0,"phase":1,"sequence":10,"times":[1305,746,713,735,972],"next_num":5,"trial_type":"ticket-choose","trial_index":95,"time_elapsed":1472626,"internal_node_id":"0.0-95.0"},{"result":165,"points":3,"place":0,"phase":1,"sequence":11,"times":[1970,1971,859,870,961],"next_num":5,"trial_type":"ticket-choose","trial_index":96,"time_elapsed":1482121,"internal_node_id":"0.0-96.0"},{"result":150,"points":3,"place":0,"phase":1,"sequence":12,"times":[1846],"next_num":1,"trial_type":"ticket-choose","trial_index":97,"time_elapsed":1486060,"internal_node_id":"0.0-97.0"},{"result":163,"points":2,"place":1,"phase":1,"sequence":13,"times":[1057,712,700,655,735,668,948],"next_num":7,"trial_type":"ticket-choose","trial_index":98,"time_elapsed":1494811,"internal_node_id":"0.0-98.0"},{"result":150,"points":3,"place":0,"phase":1,"sequence":14,"times":[1506,1186],"next_num":2,"trial_type":"ticket-choose","trial_index":99,"time_elapsed":1499907,"internal_node_id":"0.0-99.0"},{"result":153,"points":3,"place":0,"phase":1,"sequence":15,"times":[2133,1151,1163,522,622,632,611,1948,589,668],"next_num":10,"trial_type":"ticket-choose","trial_index":100,"time_elapsed":1513813,"internal_node_id":"0.0-100.0"},{"result":163,"points":2,"place":1,"phase":1,"sequence":16,"times":[1386,656,915,1084],"next_num":4,"trial_type":"ticket-choose","trial_index":101,"time_elapsed":1520484,"internal_node_id":"0.0-101.0"},{"result":165,"points":1,"place":2,"phase":1,"sequence":17,"times":[1103,746,960,587,611,600,621,2692],"next_num":8,"trial_type":"ticket-choose","trial_index":102,"time_elapsed":1531959,"internal_node_id":"0.0-102.0"},{"result":158,"points":2,"place":1,"phase":1,"sequence":18,"times":[1009,644,666,680,700,622,1085],"next_num":7,"trial_type":"ticket-choose","trial_index":103,"time_elapsed":1540757,"internal_node_id":"0.0-103.0"},{"result":154,"points":2,"place":1,"phase":1,"sequence":19,"times":[1247,927],"next_num":2,"trial_type":"ticket-choose","trial_index":104,"time_elapsed":1545133,"internal_node_id":"0.0-104.0"},{"result":156,"points":3,"place":0,"phase":1,"sequence":20,"times":[1134,713,723,667,655,644,622,859,689,713],"next_num":10,"trial_type":"ticket-choose","trial_index":105,"time_elapsed":1556484,"internal_node_id":"0.0-105.0"},{"result":186,"points":1,"place":4,"phase":1,"sequence":21,"times":[4344,666,668,868,2224,770,846,701,748,947],"next_num":10,"trial_type":"ticket-choose","trial_index":106,"time_elapsed":1573202,"internal_node_id":"0.0-106.0"},{"result":156,"points":3,"place":0,"phase":1,"sequence":22,"times":[1552,667,1138,679,667,679,734,1849,702,846],"next_num":10,"trial_type":"ticket-choose","trial_index":107,"time_elapsed":1586758,"internal_node_id":"0.0-107.0"},{"result":158,"points":2,"place":1,"phase":1,"sequence":23,"times":[1277,746,1299],"next_num":3,"trial_type":"ticket-choose","trial_index":108,"time_elapsed":1592574,"internal_node_id":"0.0-108.0"},{"result":158,"points":2,"place":1,"phase":1,"sequence":24,"times":[952,667,915],"next_num":3,"trial_type":"ticket-choose","trial_index":109,"time_elapsed":1597479,"internal_node_id":"0.0-109.0"},{"result":158,"points":2,"place":1,"phase":1,"sequence":25,"times":[1171,700,623,656,645,712,1141],"next_num":7,"trial_type":"ticket-choose","trial_index":110,"time_elapsed":1606401,"internal_node_id":"0.0-110.0"},{"result":163,"points":2,"place":1,"phase":1,"sequence":26,"times":[866,690,1907],"next_num":3,"trial_type":"ticket-choose","trial_index":111,"time_elapsed":1612363,"internal_node_id":"0.0-111.0"},{"result":155,"points":2,"place":1,"phase":1,"sequence":27,"times":[1024,656,1028],"next_num":3,"trial_type":"ticket-choose","trial_index":112,"time_elapsed":1617482,"internal_node_id":"0.0-112.0"},{"result":158,"points":2,"place":1,"phase":1,"sequence":28,"times":[946,589,2106],"next_num":3,"trial_type":"ticket-choose","trial_index":113,"time_elapsed":1623546,"internal_node_id":"0.0-113.0"},{"result":158,"points":2,"place":1,"phase":1,"sequence":29,"times":[722,645,610,611,702,634,1107],"next_num":7,"trial_type":"ticket-choose","trial_index":114,"time_elapsed":1631983,"internal_node_id":"0.0-114.0"},{"result":148,"points":3,"place":0,"phase":1,"sequence":30,"times":[1576,3535,577,702,815,1048],"next_num":6,"trial_type":"ticket-choose","trial_index":115,"time_elapsed":1643436,"internal_node_id":"0.0-115.0"},{"result":158,"points":2,"place":1,"phase":1,"sequence":31,"times":[1777,711,768,769,691,631,1050],"next_num":7,"trial_type":"ticket-choose","trial_index":116,"time_elapsed":1653167,"internal_node_id":"0.0-116.0"},{"result":185,"points":1,"place":4,"phase":1,"sequence":32,"times":[1470,679,646,589,544,600,589,657,668,939],"next_num":10,"trial_type":"ticket-choose","trial_index":117,"time_elapsed":1664542,"internal_node_id":"0.0-117.0"},{"result":167,"points":2,"place":1,"phase":1,"sequence":33,"times":[1282,713,634,645,599,579,1522],"next_num":7,"trial_type":"ticket-choose","trial_index":118,"time_elapsed":1676242,"internal_node_id":"0.0-118.0"},{"result":155,"points":2,"place":1,"phase":1,"sequence":34,"times":[1470,982],"next_num":2,"trial_type":"ticket-choose","trial_index":119,"time_elapsed":1681012,"internal_node_id":"0.0-119.0"},{"result":159,"points":3,"place":0,"phase":1,"sequence":35,"times":[1710],"next_num":1,"trial_type":"ticket-choose","trial_index":120,"time_elapsed":1684802,"internal_node_id":"0.0-120.0"},{"result":170,"points":1,"place":2,"phase":1,"sequence":36,"times":[1150,556,588,612,788,656,666,713,632,893],"next_num":10,"trial_type":"ticket-choose","trial_index":121,"time_elapsed":1695974,"internal_node_id":"0.0-121.0"},{"result":159,"points":1,"place":2,"phase":1,"sequence":37,"times":[1684,1235],"next_num":2,"trial_type":"ticket-choose","trial_index":122,"time_elapsed":1701621,"internal_node_id":"0.0-122.0"},{"result":163,"points":3,"place":0,"phase":1,"sequence":38,"times":[1158,882,587,589,803,644,857,1207],"next_num":8,"trial_type":"ticket-choose","trial_index":123,"time_elapsed":1711859,"internal_node_id":"0.0-123.0"},{"result":157,"points":3,"place":0,"phase":1,"sequence":39,"times":[2027],"next_num":1,"trial_type":"ticket-choose","trial_index":124,"time_elapsed":1716887,"internal_node_id":"0.0-124.0"},{"result":158,"points":3,"place":0,"phase":1,"sequence":40,"times":[1441,780,745,757,802,1127],"next_num":6,"trial_type":"ticket-choose","trial_index":125,"time_elapsed":1725696,"internal_node_id":"0.0-125.0"},{"result":163,"points":2,"place":1,"phase":1,"sequence":41,"times":[2296,678,646,712,824,871,1138],"next_num":7,"trial_type":"ticket-choose","trial_index":126,"time_elapsed":1736474,"internal_node_id":"0.0-126.0"},{"result":168,"points":1,"place":2,"phase":1,"sequence":42,"times":[1633,914,758,691,803,881,1591,1421],"next_num":8,"trial_type":"ticket-choose","trial_index":127,"time_elapsed":1748646,"internal_node_id":"0.0-127.0"},{"result":163,"points":2,"place":1,"phase":1,"sequence":43,"times":[1488,814,915,702,702,836,1036],"next_num":7,"trial_type":"ticket-choose","trial_index":128,"time_elapsed":1758524,"internal_node_id":"0.0-128.0"},{"result":161,"points":3,"place":0,"phase":1,"sequence":44,"times":[3354],"next_num":1,"trial_type":"ticket-choose","trial_index":129,"time_elapsed":1764076,"internal_node_id":"0.0-129.0"},{"result":158,"points":2,"place":1,"phase":1,"sequence":45,"times":[1162,621,1197],"next_num":3,"trial_type":"ticket-choose","trial_index":130,"time_elapsed":1769842,"internal_node_id":"0.0-130.0"},{"result":152,"points":3,"place":0,"phase":1,"sequence":46,"times":[1439,1083,1322,960],"next_num":4,"trial_type":"ticket-choose","trial_index":131,"time_elapsed":1777458,"internal_node_id":"0.0-131.0"},{"result":163,"points":2,"place":1,"phase":1,"sequence":47,"times":[1566,743,642,655,737,687,1601],"next_num":7,"trial_type":"ticket-choose","trial_index":132,"time_elapsed":1787527,"internal_node_id":"0.0-132.0"},{"result":161,"points":3,"place":0,"phase":1,"sequence":48,"times":[1565],"next_num":1,"trial_type":"ticket-choose","trial_index":133,"time_elapsed":1791341,"internal_node_id":"0.0-133.0"},{"result":156,"points":3,"place":0,"phase":1,"sequence":49,"times":[1245,623,646,656,657,635,937,969,813,646],"next_num":10,"trial_type":"ticket-choose","trial_index":134,"time_elapsed":1803423,"internal_node_id":"0.0-134.0"},{"responses":[{"value":0,"offby":0,"category":"$106 - $134","category_index":0},{"value":2,"offby":1,"category":"$135 - $150","category_index":1},{"value":3,"offby":0,"category":"$151 - $165","category_index":2},{"value":6,"offby":0,"category":"$166 - $180","category_index":3},{"value":5,"offby":-1,"category":"$181 - $195","category_index":4},{"value":4,"offby":1,"category":"$196 - $210","category_index":5},{"value":0,"offby":-1,"category":"$211 - $225","category_index":6}],"phase":1,"number":1,"trial_type":"bar-choose","trial_index":135,"time_elapsed":1841495,"internal_node_id":"0.0-135.0"},{"special_comment":"notespecially.","trial_type":"special_sequence","trial_index":136,"time_elapsed":1853802,"internal_node_id":"0.0-136.0"},{"during":"Nothing","bonus":312,"trial_type":"final","trial_index":137,"time_elapsed":1887178,"internal_node_id":"0.0-137.0"}],"bonus":312}