{"start_time":"2017-02-24 14:40:36","end_time":"2017-02-24 15:11:48","points_phase0":124,"points_phase1":109,"phase_order":1,"age":29,"gender":"m","tries":2,"during":"Nothing","worker_id":"A2LSOEPMGWPAR3","assignment_id":"3OONKJ5DKDCFVM5121CR878T6HOBOX","data":[{"rt":15649,"url":"\/tickets\/utils\/consent.html","trial_type":"html","trial_index":0,"time_elapsed":16006,"internal_node_id":"0.0-0.0"},{"age":29,"gender":"m","trial_type":"age","trial_index":1,"time_elapsed":21122,"internal_node_id":"0.0-1.0"},{"worker_id":"A2LSOEPMGWPAR3","trial_type":"workerid","trial_index":2,"time_elapsed":33445,"internal_node_id":"0.0-2.0"},{"tries":2,"trial_type":"instructions_check","trial_index":3,"time_elapsed":72865,"internal_node_id":"0.0-3.0"},{"rt":11082,"url":"\/tickets\/utils\/start.html","trial_type":"html","trial_index":4,"time_elapsed":85068,"internal_node_id":"0.0-4.0"},{"trial_type":"number-animation","trial_index":5,"time_elapsed":104199,"internal_node_id":"0.0-5.0"},{"phase":0,"sequence":0,"avg":166,"response":150,"trial_type":"training_avg","trial_index":6,"time_elapsed":117290,"internal_node_id":"0.0-6.0"},{"trial_type":"number-animation","trial_index":7,"time_elapsed":173618,"internal_node_id":"0.0-7.0"},{"phase":0,"sequence":1,"avg":198,"response":197,"trial_type":"training_avg","trial_index":8,"time_elapsed":193819,"internal_node_id":"0.0-8.0"},{"trial_type":"number-animation","trial_index":9,"time_elapsed":224844,"internal_node_id":"0.0-9.0"},{"phase":0,"sequence":2,"avg":177,"response":177,"trial_type":"training_avg","trial_index":10,"time_elapsed":242641,"internal_node_id":"0.0-10.0"},{"trial_type":"number-animation","trial_index":11,"time_elapsed":271086,"internal_node_id":"0.0-11.0"},{"phase":0,"sequence":3,"avg":190,"response":220,"trial_type":"training_avg","trial_index":12,"time_elapsed":284114,"internal_node_id":"0.0-12.0"},{"trial_type":"number-animation","trial_index":13,"time_elapsed":311582,"internal_node_id":"0.0-13.0"},{"phase":0,"sequence":4,"avg":201,"response":201,"trial_type":"training_avg","trial_index":14,"time_elapsed":322820,"internal_node_id":"0.0-14.0"},{"responses":[{"value":0,"offby":-1,"category":"$30 - $75","category_index":0},{"value":4,"offby":2,"category":"$76 - $120","category_index":1},{"value":7,"offby":3,"category":"$121 - $165","category_index":2},{"value":6,"offby":0,"category":"$166 - $210","category_index":3},{"value":3,"offby":-3,"category":"$211 - $255","category_index":4},{"value":0,"offby":-1,"category":"$256 - $300","category_index":5},{"value":0,"offby":0,"category":"$301 - $345","category_index":6}],"phase":0,"number":0,"trial_type":"bar-choose","trial_index":15,"time_elapsed":395364,"internal_node_id":"0.0-15.0"},{"rt":1904,"url":"\/tickets\/\/utils\/testing.html","trial_type":"html","trial_index":16,"time_elapsed":398422,"internal_node_id":"0.0-16.0"},{"phase":0,"order":[40,46,28,42,0,13,34,33,7,14,22,8,19,11,4,49,32,38,25,48,24,23,20,18,37,3,43,44,10,27,9,12,39,45,1,17,47,31,29,6,26,2,16,35,21,5,36,41,30,15],"trial_type":"store_order","trial_index":17,"time_elapsed":399423,"internal_node_id":"0.0-17.0"},{"result":126,"points":3,"place":0,"phase":0,"sequence":-1,"prices":[184,180,224,165,181,199,185,193,218,126],"times":[5479,1122,923,974,1133,1049,1036,949,1109,1493],"next_num":10,"trial_type":"ticket-choose","trial_index":18,"time_elapsed":419424,"internal_node_id":"0.0-18.0"},{"rt":12583,"url":"\/tickets\/utils\/testing_after.html","trial_type":"html","trial_index":19,"time_elapsed":433129,"internal_node_id":"0.0-19.0"},{"result":126,"points":2,"place":1,"phase":0,"sequence":0,"prices":[151,176,126,251,170,196,165,145,105,201],"times":[1816,911,1530],"next_num":3,"trial_type":"ticket-choose","trial_index":20,"time_elapsed":446317,"internal_node_id":"0.0-20.0"},{"result":81,"points":3,"place":0,"phase":0,"sequence":1,"prices":[155,245,155,81,180,130,156,306,166,115],"times":[1396,801,912,1331],"next_num":4,"trial_type":"ticket-choose","trial_index":21,"time_elapsed":455955,"internal_node_id":"0.0-21.0"},{"result":101,"points":3,"place":0,"phase":0,"sequence":2,"prices":[156,176,165,246,171,190,126,141,101,196],"times":[1299,777,751,752,776,817,1847,776,1676],"next_num":9,"trial_type":"ticket-choose","trial_index":22,"time_elapsed":471153,"internal_node_id":"0.0-22.0"},{"result":66,"points":3,"place":0,"phase":0,"sequence":3,"prices":[66,201,96,150,185,230,121,216,225,165],"times":[1926],"next_num":1,"trial_type":"ticket-choose","trial_index":23,"time_elapsed":476219,"internal_node_id":"0.0-23.0"},{"result":51,"points":3,"place":0,"phase":0,"sequence":4,"prices":[221,175,51,196,146,130,166,80,126,156],"times":[1334,949,1306],"next_num":3,"trial_type":"ticket-choose","trial_index":24,"time_elapsed":483061,"internal_node_id":"0.0-24.0"},{"result":101,"points":3,"place":0,"phase":0,"sequence":5,"prices":[155,175,166,245,171,190,125,140,101,196],"times":[1420,779,764,814,764,788,1516,888,1269],"next_num":9,"trial_type":"ticket-choose","trial_index":25,"time_elapsed":497027,"internal_node_id":"0.0-25.0"},{"result":105,"points":3,"place":0,"phase":0,"sequence":6,"prices":[150,175,166,251,170,196,126,145,105,201],"times":[1373,814,825,801,801,827,1281,827,1368],"next_num":9,"trial_type":"ticket-choose","trial_index":26,"time_elapsed":510376,"internal_node_id":"0.0-26.0"},{"result":155,"points":1,"place":4,"phase":0,"sequence":7,"prices":[135,180,141,151,175,220,145,196,211,155],"times":[2260,815,825,3427,925,788,1035,839,1209,1428],"next_num":10,"trial_type":"ticket-choose","trial_index":27,"time_elapsed":529802,"internal_node_id":"0.0-27.0"},{"result":121,"points":2,"place":1,"phase":0,"sequence":8,"prices":[146,170,121,245,166,190,161,141,100,195],"times":[1582,839,1307],"next_num":3,"trial_type":"ticket-choose","trial_index":28,"time_elapsed":536507,"internal_node_id":"0.0-28.0"},{"result":81,"points":3,"place":0,"phase":0,"sequence":9,"prices":[81,205,130,151,191,261,145,210,250,165],"times":[2050],"next_num":1,"trial_type":"ticket-choose","trial_index":29,"time_elapsed":541462,"internal_node_id":"0.0-29.0"},{"result":106,"points":3,"place":0,"phase":0,"sequence":10,"prices":[180,106,166,245,211,261,215,125,135,190],"times":[1175,1332],"next_num":2,"trial_type":"ticket-choose","trial_index":30,"time_elapsed":546675,"internal_node_id":"0.0-30.0"},{"result":106,"points":2,"place":1,"phase":0,"sequence":11,"prices":[185,180,235,210,106,266,76,115,250,205],"times":[6068,862,925,815,1344],"next_num":5,"trial_type":"ticket-choose","trial_index":31,"time_elapsed":560370,"internal_node_id":"0.0-31.0"},{"result":30,"points":3,"place":0,"phase":0,"sequence":12,"prices":[155,30,101,55,136,276,70,181,200,261],"times":[1607,1418],"next_num":2,"trial_type":"ticket-choose","trial_index":32,"time_elapsed":566066,"internal_node_id":"0.0-32.0"},{"result":150,"points":1,"place":4,"phase":0,"sequence":13,"prices":[111,231,131,146,171,295,141,241,271,150],"times":[1433,765,900,750,950,1170,1579,875,790,1725],"next_num":11,"trial_type":"ticket-choose","trial_index":33,"time_elapsed":582644,"internal_node_id":"0.0-33.0"},{"result":130,"points":2,"place":1,"phase":0,"sequence":14,"prices":[155,181,170,255,176,200,130,150,110,205],"times":[1348,777,764,790,864,888,1355],"next_num":7,"trial_type":"ticket-choose","trial_index":34,"time_elapsed":593071,"internal_node_id":"0.0-34.0"},{"result":136,"points":3,"place":0,"phase":0,"sequence":15,"prices":[246,145,155,191,176,270,185,136,160,215],"times":[1285,716,715,789,764,814,776,1714],"next_num":8,"trial_type":"ticket-choose","trial_index":35,"time_elapsed":605472,"internal_node_id":"0.0-35.0"},{"result":86,"points":3,"place":0,"phase":0,"sequence":16,"prices":[86,180,130,151,170,271,145,191,220,160],"times":[1398],"next_num":1,"trial_type":"ticket-choose","trial_index":36,"time_elapsed":609304,"internal_node_id":"0.0-36.0"},{"result":131,"points":2,"place":1,"phase":0,"sequence":17,"prices":[160,180,170,251,176,195,131,146,105,200],"times":[1496,715,778,751,790,716,1813],"next_num":7,"trial_type":"ticket-choose","trial_index":37,"time_elapsed":619966,"internal_node_id":"0.0-37.0"},{"result":126,"points":2,"place":1,"phase":0,"sequence":18,"prices":[156,175,126,246,170,190,165,140,100,196],"times":[1965,4524,1440],"next_num":3,"trial_type":"ticket-choose","trial_index":38,"time_elapsed":630603,"internal_node_id":"0.0-38.0"},{"result":96,"points":3,"place":0,"phase":0,"sequence":19,"prices":[150,171,120,241,165,185,160,135,96,190],"times":[1371,715,2513,728,765,739,790,1194,1295],"next_num":9,"trial_type":"ticket-choose","trial_index":39,"time_elapsed":644816,"internal_node_id":"0.0-39.0"},{"result":65,"points":2,"place":1,"phase":0,"sequence":20,"prices":[220,236,176,65,185,101,110,61,156,191],"times":[1420,840,1058,3218],"next_num":4,"trial_type":"ticket-choose","trial_index":40,"time_elapsed":657932,"internal_node_id":"0.0-40.0"},{"result":100,"points":3,"place":0,"phase":0,"sequence":21,"prices":[145,170,160,245,165,190,120,141,100,195],"times":[1211,703,715,691,727,740,815,815,1294],"next_num":9,"trial_type":"ticket-choose","trial_index":41,"time_elapsed":669630,"internal_node_id":"0.0-41.0"},{"result":111,"points":3,"place":0,"phase":0,"sequence":22,"prices":[156,181,130,255,175,200,170,150,111,205],"times":[1298,729,1132,776,714,1677,985,765,1183],"next_num":9,"trial_type":"ticket-choose","trial_index":42,"time_elapsed":683090,"internal_node_id":"0.0-42.0"},{"result":91,"points":3,"place":0,"phase":0,"sequence":23,"prices":[176,150,141,91,290,201,106,266,206,126],"times":[1445,864,764,1269],"next_num":4,"trial_type":"ticket-choose","trial_index":43,"time_elapsed":690474,"internal_node_id":"0.0-43.0"},{"result":111,"points":3,"place":0,"phase":0,"sequence":24,"prices":[175,211,266,286,111,216,220,245,230,165],"times":[1100,753,850,776,1615],"next_num":5,"trial_type":"ticket-choose","trial_index":44,"time_elapsed":699101,"internal_node_id":"0.0-44.0"},{"result":130,"points":3,"place":0,"phase":0,"sequence":25,"prices":[185,175,276,221,130,141,171,216,235,165],"times":[1039,740,766,1071,1344],"next_num":5,"trial_type":"ticket-choose","trial_index":45,"time_elapsed":707226,"internal_node_id":"0.0-45.0"},{"result":111,"points":3,"place":0,"phase":0,"sequence":26,"prices":[156,181,131,256,176,200,171,151,111,206],"times":[1200,996,1431,739,838,936,765,815,1282],"next_num":9,"trial_type":"ticket-choose","trial_index":46,"time_elapsed":720181,"internal_node_id":"0.0-46.0"},{"result":45,"points":3,"place":0,"phase":0,"sequence":27,"prices":[186,156,191,120,195,145,45,130,246,176],"times":[890,726,727,815,812,838,1330],"next_num":7,"trial_type":"ticket-choose","trial_index":47,"time_elapsed":729806,"internal_node_id":"0.0-47.0"},{"result":61,"points":3,"place":0,"phase":0,"sequence":28,"prices":[255,166,266,175,136,145,155,61,96,301],"times":[965,912,1295,2589,3044,850,815,1799],"next_num":8,"trial_type":"ticket-choose","trial_index":48,"time_elapsed":747986,"internal_node_id":"0.0-48.0"},{"result":131,"points":2,"place":1,"phase":0,"sequence":29,"prices":[156,181,171,256,175,200,131,150,110,206],"times":[1175,1084,2577,1935,20831,775,1344],"next_num":7,"trial_type":"ticket-choose","trial_index":49,"time_elapsed":781317,"internal_node_id":"0.0-49.0"},{"result":185,"points":0,"place":5,"phase":0,"sequence":30,"prices":[181,156,145,165,236,231,201,260,150,185],"times":[1126,1600,912,2441,790,752,874,788,1133,1137],"next_num":10,"trial_type":"ticket-choose","trial_index":50,"time_elapsed":797243,"internal_node_id":"0.0-50.0"},{"result":125,"points":1,"place":2,"phase":0,"sequence":31,"prices":[226,205,125,120,115,135,180,145,150,220],"times":[1151,912,1307],"next_num":3,"trial_type":"ticket-choose","trial_index":51,"time_elapsed":803297,"internal_node_id":"0.0-51.0"},{"result":105,"points":3,"place":0,"phase":0,"sequence":32,"prices":[105,216,146,165,210,260,161,235,241,185],"times":[1655],"next_num":1,"trial_type":"ticket-choose","trial_index":52,"time_elapsed":807574,"internal_node_id":"0.0-52.0"},{"result":120,"points":2,"place":1,"phase":0,"sequence":33,"prices":[150,170,160,241,166,186,120,136,96,191],"times":[989,703,712,703,752,740,1199],"next_num":7,"trial_type":"ticket-choose","trial_index":53,"time_elapsed":816757,"internal_node_id":"0.0-53.0"},{"result":106,"points":3,"place":0,"phase":0,"sequence":34,"prices":[155,225,245,130,176,106,180,211,165,200],"times":[1359,763,727,1861,766,1256],"next_num":6,"trial_type":"ticket-choose","trial_index":54,"time_elapsed":827345,"internal_node_id":"0.0-54.0"},{"result":95,"points":3,"place":0,"phase":0,"sequence":35,"prices":[150,171,121,241,165,185,160,136,95,191],"times":[1224,789,715,690,714,741,716,1037,1479],"next_num":9,"trial_type":"ticket-choose","trial_index":55,"time_elapsed":841571,"internal_node_id":"0.0-55.0"},{"result":95,"points":3,"place":0,"phase":0,"sequence":36,"prices":[95,205,106,151,186,271,145,210,215,181],"times":[32228],"next_num":1,"trial_type":"ticket-choose","trial_index":56,"time_elapsed":876432,"internal_node_id":"0.0-56.0"},{"result":120,"points":2,"place":1,"phase":0,"sequence":37,"prices":[145,171,161,245,165,191,120,140,100,196],"times":[1296,749,752,766,727,751,2824],"next_num":7,"trial_type":"ticket-choose","trial_index":57,"time_elapsed":887798,"internal_node_id":"0.0-57.0"},{"result":105,"points":3,"place":0,"phase":0,"sequence":38,"prices":[160,180,130,251,176,195,170,146,105,200],"times":[915,1210,826,727,726,714,716,727,1394],"next_num":9,"trial_type":"ticket-choose","trial_index":58,"time_elapsed":899708,"internal_node_id":"0.0-58.0"},{"result":121,"points":2,"place":1,"phase":0,"sequence":39,"prices":[150,170,160,240,166,185,121,136,95,191],"times":[1051,727,839,727,691,717,1294],"next_num":7,"trial_type":"ticket-choose","trial_index":59,"time_elapsed":909201,"internal_node_id":"0.0-59.0"},{"result":105,"points":3,"place":0,"phase":0,"sequence":40,"prices":[150,176,126,251,171,195,165,145,105,200],"times":[952,4402,1565,728,729,727,764,937,1234],"next_num":9,"trial_type":"ticket-choose","trial_index":60,"time_elapsed":925942,"internal_node_id":"0.0-60.0"},{"result":120,"points":3,"place":0,"phase":0,"sequence":41,"prices":[120,221,135,185,200,261,181,251,255,196],"times":[1421],"next_num":1,"trial_type":"ticket-choose","trial_index":61,"time_elapsed":929688,"internal_node_id":"0.0-61.0"},{"result":75,"points":3,"place":0,"phase":0,"sequence":42,"prices":[75,171,131,151,161,250,145,190,206,156],"times":[1199],"next_num":1,"trial_type":"ticket-choose","trial_index":62,"time_elapsed":933104,"internal_node_id":"0.0-62.0"},{"result":105,"points":3,"place":0,"phase":0,"sequence":43,"prices":[161,180,131,251,175,196,171,146,105,201],"times":[3343,1073,1984,692,703,726,813,715,1233],"next_num":9,"trial_type":"ticket-choose","trial_index":63,"time_elapsed":948342,"internal_node_id":"0.0-63.0"},{"result":231,"points":0,"place":7,"phase":0,"sequence":44,"prices":[176,150,276,171,261,116,130,201,166,231],"times":[892,899,727,788,801,702,851,911,752,1293],"next_num":10,"trial_type":"ticket-choose","trial_index":64,"time_elapsed":961508,"internal_node_id":"0.0-64.0"},{"result":126,"points":2,"place":1,"phase":0,"sequence":45,"prices":[151,175,166,251,170,195,126,146,105,201],"times":[1074,717,813,728,703,800,1357],"next_num":7,"trial_type":"ticket-choose","trial_index":65,"time_elapsed":971137,"internal_node_id":"0.0-65.0"},{"result":101,"points":3,"place":0,"phase":0,"sequence":46,"prices":[156,175,125,245,170,190,165,140,101,196],"times":[977,703,702,728,765,789,740,1257,1171],"next_num":9,"trial_type":"ticket-choose","trial_index":66,"time_elapsed":982896,"internal_node_id":"0.0-66.0"},{"result":105,"points":3,"place":0,"phase":0,"sequence":47,"prices":[161,180,171,250,176,195,131,146,105,201],"times":[1101,764,1307,763,777,862,1209,777,1136],"next_num":9,"trial_type":"ticket-choose","trial_index":67,"time_elapsed":995594,"internal_node_id":"0.0-67.0"},{"result":100,"points":3,"place":0,"phase":0,"sequence":48,"prices":[146,171,120,245,165,191,160,140,100,196],"times":[1040,753,1122,727,740,753,704,975,1158],"next_num":9,"trial_type":"ticket-choose","trial_index":68,"time_elapsed":1007578,"internal_node_id":"0.0-68.0"},{"result":175,"points":1,"place":4,"phase":0,"sequence":49,"prices":[130,195,141,155,181,226,150,216,221,175],"times":[2802,727,702,715,777,777,975,776,766,1281],"next_num":10,"trial_type":"ticket-choose","trial_index":69,"time_elapsed":1022184,"internal_node_id":"0.0-69.0"},{"responses":[{"value":1,"offby":0,"category":"$30 - $75","category_index":0},{"value":2,"offby":0,"category":"$76 - $120","category_index":1},{"value":3,"offby":-1,"category":"$121 - $165","category_index":2},{"value":5,"offby":-1,"category":"$166 - $210","category_index":3},{"value":6,"offby":0,"category":"$211 - $255","category_index":4},{"value":3,"offby":2,"category":"$256 - $300","category_index":5},{"value":0,"offby":0,"category":"$301 - $345","category_index":6}],"phase":0,"number":1,"trial_type":"bar-choose","trial_index":70,"time_elapsed":1070542,"internal_node_id":"0.0-70.0"},{"rt":11044,"url":"\/tickets\/utils\/start2.html","trial_type":"html","trial_index":71,"time_elapsed":1082708,"internal_node_id":"0.0-71.0"},{"trial_type":"number-animation","trial_index":72,"time_elapsed":1117156,"internal_node_id":"0.0-72.0"},{"phase":1,"sequence":0,"avg":180,"response":186,"trial_type":"training_avg","trial_index":73,"time_elapsed":1142938,"internal_node_id":"0.0-73.0"},{"trial_type":"number-animation","trial_index":74,"time_elapsed":1171616,"internal_node_id":"0.0-74.0"},{"phase":1,"sequence":1,"avg":178,"response":178,"trial_type":"training_avg","trial_index":75,"time_elapsed":1182020,"internal_node_id":"0.0-75.0"},{"trial_type":"number-animation","trial_index":76,"time_elapsed":1210330,"internal_node_id":"0.0-76.0"},{"phase":1,"sequence":2,"avg":176,"response":176,"trial_type":"training_avg","trial_index":77,"time_elapsed":1221141,"internal_node_id":"0.0-77.0"},{"trial_type":"number-animation","trial_index":78,"time_elapsed":1256279,"internal_node_id":"0.0-78.0"},{"phase":1,"sequence":3,"avg":178,"response":178,"trial_type":"training_avg","trial_index":79,"time_elapsed":1266138,"internal_node_id":"0.0-79.0"},{"trial_type":"number-animation","trial_index":80,"time_elapsed":1302013,"internal_node_id":"0.0-80.0"},{"phase":1,"sequence":4,"avg":179,"response":183,"trial_type":"training_avg","trial_index":81,"time_elapsed":1311477,"internal_node_id":"0.0-81.0"},{"responses":[{"value":0,"offby":0,"category":"$140 - $250","category_index":0},{"value":2,"offby":2,"category":"$151 - $160","category_index":1},{"value":2,"offby":-2,"category":"$161 - $170","category_index":2},{"value":6,"offby":0,"category":"$171 - $180","category_index":3},{"value":7,"offby":0,"category":"$181 - $190","category_index":4},{"value":3,"offby":0,"category":"$191 - $200","category_index":5},{"value":0,"offby":0,"category":"$201 - $210","category_index":6}],"phase":1,"number":0,"trial_type":"bar-choose","trial_index":82,"time_elapsed":1344709,"internal_node_id":"0.0-82.0"},{"rt":6950,"url":"\/tickets\/utils\/testing2.html","trial_type":"html","trial_index":83,"time_elapsed":1352783,"internal_node_id":"0.0-83.0"},{"phase":1,"order":[2,42,5,31,35,4,6,32,19,30,41,34,44,29,14,48,24,13,0,17,43,23,11,45,46,38,10,37,39,15,47,36,26,21,49,16,25,22,9,20,3,27,28,8,40,7,1,12,18,33],"trial_type":"store_order","trial_index":84,"time_elapsed":1353784,"internal_node_id":"0.0-84.0"},{"result":177,"points":1,"place":3,"phase":1,"sequence":0,"prices":[179,174,199,178,196,167,170,184,177,190],"times":[1911,740,838,763,826,727,851,715,1073],"next_num":9,"trial_type":"ticket-choose","trial_index":85,"time_elapsed":1366159,"internal_node_id":"0.0-85.0"},{"result":166,"points":3,"place":0,"phase":1,"sequence":1,"prices":[179,186,197,201,166,187,188,193,190,177],"times":[1347,727,754,961,1108],"next_num":5,"trial_type":"ticket-choose","trial_index":86,"time_elapsed":1374024,"internal_node_id":"0.0-86.0"},{"result":159,"points":3,"place":0,"phase":1,"sequence":2,"prices":[159,178,170,174,176,194,173,182,185,175],"times":[1334],"next_num":1,"trial_type":"ticket-choose","trial_index":87,"time_elapsed":1377511,"internal_node_id":"0.0-87.0"},{"result":160,"points":3,"place":0,"phase":1,"sequence":3,"prices":[175,193,175,160,180,170,175,205,177,167],"times":[1139,753,753,1382],"next_num":4,"trial_type":"ticket-choose","trial_index":88,"time_elapsed":1384120,"internal_node_id":"0.0-88.0"},{"result":169,"points":2,"place":1,"phase":1,"sequence":4,"prices":[175,179,169,193,178,182,177,172,164,183],"times":[854,701,1123],"next_num":3,"trial_type":"ticket-choose","trial_index":89,"time_elapsed":1389272,"internal_node_id":"0.0-89.0"},{"result":165,"points":3,"place":0,"phase":1,"sequence":5,"prices":[176,180,178,194,179,183,170,173,165,184],"times":[988,702,690,740,688,703,739,825,1013],"next_num":9,"trial_type":"ticket-choose","trial_index":90,"time_elapsed":1400822,"internal_node_id":"0.0-90.0"},{"result":165,"points":2,"place":1,"phase":1,"sequence":6,"prices":[181,180,191,186,165,197,159,167,194,185],"times":[1198,764,751,716,1306],"next_num":5,"trial_type":"ticket-choose","trial_index":91,"time_elapsed":1408353,"internal_node_id":"0.0-91.0"},{"result":179,"points":1,"place":4,"phase":1,"sequence":7,"prices":[170,183,172,175,180,189,174,187,188,179],"times":[914,763,1147,728,789,727,752,764,888,875],"next_num":10,"trial_type":"ticket-choose","trial_index":92,"time_elapsed":1420679,"internal_node_id":"0.0-92.0"},{"result":169,"points":2,"place":1,"phase":1,"sequence":8,"prices":[174,179,177,194,178,183,169,173,165,184],"times":[793,728,738,850,754,838,1257],"next_num":7,"trial_type":"ticket-choose","trial_index":93,"time_elapsed":1429851,"internal_node_id":"0.0-93.0"},{"result":166,"points":3,"place":0,"phase":1,"sequence":9,"prices":[175,180,178,195,179,184,170,174,166,185],"times":[718,764,752,1504,851,765,725,765,1159],"next_num":9,"trial_type":"ticket-choose","trial_index":94,"time_elapsed":1441635,"internal_node_id":"0.0-94.0"},{"result":168,"points":2,"place":1,"phase":1,"sequence":10,"prices":[173,178,176,193,177,182,168,172,164,183],"times":[903,505,629,604,653,715,1564],"next_num":7,"trial_type":"ticket-choose","trial_index":95,"time_elapsed":1450460,"internal_node_id":"0.0-95.0"},{"result":165,"points":3,"place":0,"phase":1,"sequence":11,"prices":[176,180,170,194,179,183,178,173,165,184],"times":[829,530,628,704,715,765,753,764,1110],"next_num":9,"trial_type":"ticket-choose","trial_index":96,"time_elapsed":1460863,"internal_node_id":"0.0-96.0"},{"result":164,"points":3,"place":0,"phase":1,"sequence":12,"prices":[173,178,168,193,177,182,176,172,164,183],"times":[658,923,579,580,688,740,740,901,974],"next_num":9,"trial_type":"ticket-choose","trial_index":97,"time_elapsed":1471538,"internal_node_id":"0.0-97.0"},{"result":166,"points":3,"place":0,"phase":1,"sequence":13,"prices":[175,180,170,195,179,184,178,174,166,185],"times":[902,838,776,765,727,766,753,824,1197],"next_num":9,"trial_type":"ticket-choose","trial_index":98,"time_elapsed":1482829,"internal_node_id":"0.0-98.0"},{"result":169,"points":2,"place":1,"phase":1,"sequence":14,"prices":[175,179,177,193,178,182,169,172,164,183],"times":[1163,713,665,752,666,678,1282],"next_num":7,"trial_type":"ticket-choose","trial_index":99,"time_elapsed":1491987,"internal_node_id":"0.0-99.0"},{"result":184,"points":0,"place":6,"phase":1,"sequence":15,"prices":[175,189,193,170,179,165,180,186,177,184],"times":[915,702,839,752,790,629,716,727,727,949],"next_num":10,"trial_type":"ticket-choose","trial_index":100,"time_elapsed":1503746,"internal_node_id":"0.0-100.0"},{"result":175,"points":1,"place":4,"phase":1,"sequence":16,"prices":[171,180,172,174,179,188,173,183,186,175],"times":[632,556,653,775,728,789,764,752,937,924],"next_num":10,"trial_type":"ticket-choose","trial_index":101,"time_elapsed":1515568,"internal_node_id":"0.0-101.0"},{"result":177,"points":1,"place":2,"phase":1,"sequence":17,"prices":[181,179,199,188,170,172,178,187,191,177],"times":[756,704,716,1148,752,801,729,679,1295,985],"next_num":10,"trial_type":"ticket-choose","trial_index":102,"time_elapsed":1528068,"internal_node_id":"0.0-102.0"},{"result":163,"points":3,"place":0,"phase":1,"sequence":18,"prices":[163,185,165,174,181,198,173,186,187,180],"times":[1421],"next_num":1,"trial_type":"ticket-choose","trial_index":103,"time_elapsed":1531556,"internal_node_id":"0.0-103.0"},{"result":187,"points":0,"place":7,"phase":1,"sequence":19,"prices":[193,173,175,182,179,198,181,171,176,187],"times":[1122,715,740,739,740,740,716,703,2021,851],"next_num":10,"trial_type":"ticket-choose","trial_index":104,"time_elapsed":1544498,"internal_node_id":"0.0-104.0"},{"result":176,"points":1,"place":4,"phase":1,"sequence":20,"prices":[161,180,170,174,178,198,173,182,188,176],"times":[597,579,443,554,580,765,654,740,813,714],"next_num":10,"trial_type":"ticket-choose","trial_index":105,"time_elapsed":1554792,"internal_node_id":"0.0-105.0"},{"result":164,"points":3,"place":0,"phase":1,"sequence":21,"prices":[173,178,176,193,177,182,168,172,164,183],"times":[1185,481,482,493,962,777,690,592,1061],"next_num":9,"trial_type":"ticket-choose","trial_index":106,"time_elapsed":1566070,"internal_node_id":"0.0-106.0"},{"result":168,"points":2,"place":1,"phase":1,"sequence":22,"prices":[174,178,176,192,177,181,168,171,163,182],"times":[1592,703,1714,814,800,1492,1271],"next_num":7,"trial_type":"ticket-choose","trial_index":107,"time_elapsed":1577966,"internal_node_id":"0.0-107.0"},{"result":168,"points":2,"place":1,"phase":1,"sequence":23,"prices":[173,178,168,193,177,182,176,172,164,183],"times":[1125,702,1293],"next_num":3,"trial_type":"ticket-choose","trial_index":108,"time_elapsed":1583597,"internal_node_id":"0.0-108.0"},{"result":179,"points":0,"place":5,"phase":1,"sequence":24,"prices":[181,175,182,168,183,173,153,170,193,179],"times":[693,654,717,662,555,704,715,790,961,837],"next_num":10,"trial_type":"ticket-choose","trial_index":109,"time_elapsed":1594938,"internal_node_id":"0.0-109.0"},{"result":165,"points":3,"place":0,"phase":1,"sequence":25,"prices":[174,179,169,194,178,183,177,173,165,184],"times":[1175,665,581,690,986,837,740,790,1184],"next_num":9,"trial_type":"ticket-choose","trial_index":110,"time_elapsed":1606907,"internal_node_id":"0.0-110.0"},{"result":166,"points":1,"place":3,"phase":1,"sequence":26,"prices":[188,191,179,157,181,164,166,156,175,182],"times":[1334,788,741,888,900,680,1428],"next_num":7,"trial_type":"ticket-choose","trial_index":111,"time_elapsed":1617039,"internal_node_id":"0.0-111.0"},{"result":150,"points":3,"place":0,"phase":1,"sequence":27,"prices":[175,150,164,155,171,199,158,180,184,196],"times":[952,1245],"next_num":2,"trial_type":"ticket-choose","trial_index":112,"time_elapsed":1621576,"internal_node_id":"0.0-112.0"},{"result":166,"points":3,"place":0,"phase":1,"sequence":28,"prices":[175,180,170,195,179,184,178,174,166,185],"times":[1125,529,6275,776,741,739,767,714,1197],"next_num":9,"trial_type":"ticket-choose","trial_index":113,"time_elapsed":1638131,"internal_node_id":"0.0-113.0"},{"result":168,"points":3,"place":0,"phase":1,"sequence":29,"prices":[168,188,171,181,184,196,180,194,195,183],"times":[1409],"next_num":1,"trial_type":"ticket-choose","trial_index":114,"time_elapsed":1641657,"internal_node_id":"0.0-114.0"},{"result":165,"points":3,"place":0,"phase":1,"sequence":30,"prices":[176,180,170,194,179,183,178,173,165,184],"times":[1459,1442,691,678,739,766,751,752,1109],"next_num":9,"trial_type":"ticket-choose","trial_index":115,"time_elapsed":1653738,"internal_node_id":"0.0-115.0"},{"result":165,"points":3,"place":0,"phase":1,"sequence":31,"prices":[176,180,178,194,179,183,170,173,165,184],"times":[805,701,643,789,666,888,838,951,1036],"next_num":9,"trial_type":"ticket-choose","trial_index":116,"time_elapsed":1664761,"internal_node_id":"0.0-116.0"},{"result":156,"points":3,"place":0,"phase":1,"sequence":32,"prices":[195,177,197,179,171,173,175,156,163,204],"times":[1457,714,689,715,851,740,814,1209],"next_num":8,"trial_type":"ticket-choose","trial_index":117,"time_elapsed":1678379,"internal_node_id":"0.0-117.0"},{"result":162,"points":3,"place":0,"phase":1,"sequence":33,"prices":[179,174,172,162,202,184,165,197,185,169],"times":[1532,802,850,1220],"next_num":4,"trial_type":"ticket-choose","trial_index":118,"time_elapsed":1685554,"internal_node_id":"0.0-118.0"},{"result":169,"points":2,"place":1,"phase":1,"sequence":34,"prices":[175,179,169,193,178,182,177,172,164,183],"times":[964,691,1380],"next_num":3,"trial_type":"ticket-choose","trial_index":119,"time_elapsed":1691174,"internal_node_id":"0.0-119.0"},{"result":168,"points":2,"place":1,"phase":1,"sequence":35,"prices":[174,178,168,192,177,181,176,171,163,182],"times":[903,665,1282],"next_num":3,"trial_type":"ticket-choose","trial_index":120,"time_elapsed":1696499,"internal_node_id":"0.0-120.0"},{"result":181,"points":0,"place":5,"phase":1,"sequence":36,"prices":[180,175,173,177,191,190,184,196,174,181],"times":[818,702,641,727,765,788,740,1024,1122,1060],"next_num":10,"trial_type":"ticket-choose","trial_index":121,"time_elapsed":1708901,"internal_node_id":"0.0-121.0"},{"result":157,"points":3,"place":0,"phase":1,"sequence":37,"prices":[157,184,163,174,181,190,168,187,189,177],"times":[1221],"next_num":1,"trial_type":"ticket-choose","trial_index":122,"time_elapsed":1712167,"internal_node_id":"0.0-122.0"},{"result":166,"points":3,"place":0,"phase":1,"sequence":38,"prices":[166,190,170,173,178,203,172,192,198,174],"times":[1002],"next_num":1,"trial_type":"ticket-choose","trial_index":123,"time_elapsed":1715137,"internal_node_id":"0.0-123.0"},{"result":169,"points":2,"place":1,"phase":1,"sequence":39,"prices":[174,179,177,194,178,183,169,173,165,184],"times":[1161,752,727,765,729,765,1210],"next_num":7,"trial_type":"ticket-choose","trial_index":124,"time_elapsed":1724469,"internal_node_id":"0.0-124.0"},{"result":165,"points":3,"place":0,"phase":1,"sequence":40,"prices":[165,187,173,177,186,196,176,191,192,181],"times":[1816],"next_num":1,"trial_type":"ticket-choose","trial_index":125,"time_elapsed":1728735,"internal_node_id":"0.0-125.0"},{"result":169,"points":2,"place":1,"phase":1,"sequence":41,"prices":[174,179,169,194,178,183,177,173,165,184],"times":[1101,714,1221],"next_num":3,"trial_type":"ticket-choose","trial_index":126,"time_elapsed":1734171,"internal_node_id":"0.0-126.0"},{"result":168,"points":2,"place":1,"phase":1,"sequence":42,"prices":[174,178,168,192,177,181,176,171,163,182],"times":[977,642,1159],"next_num":3,"trial_type":"ticket-choose","trial_index":127,"time_elapsed":1739313,"internal_node_id":"0.0-127.0"},{"result":175,"points":0,"place":5,"phase":1,"sequence":43,"prices":[188,179,154,183,173,170,177,160,169,175],"times":[878,676,705,703,679,725,716,716,813,739],"next_num":11,"trial_type":"ticket-choose","trial_index":128,"time_elapsed":1751948,"internal_node_id":"0.0-128.0"},{"result":163,"points":3,"place":0,"phase":1,"sequence":44,"prices":[174,178,176,192,177,181,168,171,163,182],"times":[1063,654,692,826,764,790,1012,715,1209],"next_num":9,"trial_type":"ticket-choose","trial_index":129,"time_elapsed":1763417,"internal_node_id":"0.0-129.0"},{"result":169,"points":2,"place":1,"phase":1,"sequence":45,"prices":[175,179,177,193,178,182,169,172,164,183],"times":[997,727,791,912,726,814,1245],"next_num":7,"trial_type":"ticket-choose","trial_index":130,"time_elapsed":1772930,"internal_node_id":"0.0-130.0"},{"result":167,"points":3,"place":0,"phase":1,"sequence":46,"prices":[189,185,169,168,167,171,180,173,174,188],"times":[1395,605,555,592,1219],"next_num":5,"trial_type":"ticket-choose","trial_index":131,"time_elapsed":1780314,"internal_node_id":"0.0-131.0"},{"result":169,"points":2,"place":1,"phase":1,"sequence":47,"prices":[180,165,177,193,186,196,187,169,171,182],"times":[978,555,616,569,628,715,753,1184],"next_num":8,"trial_type":"ticket-choose","trial_index":132,"time_elapsed":1791027,"internal_node_id":"0.0-132.0"},{"result":160,"points":3,"place":0,"phase":1,"sequence":48,"prices":[160,185,170,174,182,196,173,186,194,177],"times":[1444],"next_num":1,"trial_type":"ticket-choose","trial_index":133,"time_elapsed":1794490,"internal_node_id":"0.0-133.0"},{"result":166,"points":3,"place":0,"phase":1,"sequence":49,"prices":[175,180,178,195,179,184,170,174,166,185],"times":[1422,703,666,728,740,715,863,737,1209],"next_num":9,"trial_type":"ticket-choose","trial_index":134,"time_elapsed":1806017,"internal_node_id":"0.0-134.0"},{"responses":[{"value":0,"offby":0,"category":"$140 - $250","category_index":0},{"value":1,"offby":1,"category":"$151 - $160","category_index":1},{"value":6,"offby":2,"category":"$161 - $170","category_index":2},{"value":5,"offby":-1,"category":"$171 - $180","category_index":3},{"value":6,"offby":-1,"category":"$181 - $190","category_index":4},{"value":2,"offby":-1,"category":"$191 - $200","category_index":5},{"value":0,"offby":0,"category":"$201 - $210","category_index":6}],"phase":1,"number":1,"trial_type":"bar-choose","trial_index":135,"time_elapsed":1826568,"internal_node_id":"0.0-135.0"},{"special_comment":"no","trial_type":"special_sequence","trial_index":136,"time_elapsed":1833679,"internal_node_id":"0.0-136.0"},{"during":"Nothing","bonus":312,"trial_type":"final","trial_index":137,"time_elapsed":1868935,"internal_node_id":"0.0-137.0"}],"bonus":312}