{"start_time":"2017-02-24 14:39:05","end_time":"2017-02-24 15:04:18","points_phase0":116,"points_phase1":115,"phase_order":1,"age":32,"gender":"m","tries":2,"during":"Nothing","worker_id":"A2MCG5W6LHSRG9","assignment_id":"3IFS6Q0HJJC4GMB0FSLHEZM7YWBISA","data":[{"rt":13766,"url":"\/tickets\/utils\/consent.html","trial_type":"html","trial_index":0,"time_elapsed":13843,"internal_node_id":"0.0-0.0"},{"age":32,"gender":"m","trial_type":"age","trial_index":1,"time_elapsed":19452,"internal_node_id":"0.0-1.0"},{"worker_id":"A2MCG5W6LHSRG9","trial_type":"workerid","trial_index":2,"time_elapsed":24350,"internal_node_id":"0.0-2.0"},{"tries":2,"trial_type":"instructions_check","trial_index":3,"time_elapsed":84521,"internal_node_id":"0.0-3.0"},{"rt":12043,"url":"\/tickets\/utils\/start.html","trial_type":"html","trial_index":4,"time_elapsed":97641,"internal_node_id":"0.0-4.0"},{"trial_type":"number-animation","trial_index":5,"time_elapsed":109455,"internal_node_id":"0.0-5.0"},{"phase":0,"sequence":0,"avg":166,"response":189,"trial_type":"training_avg","trial_index":6,"time_elapsed":124679,"internal_node_id":"0.0-6.0"},{"trial_type":"number-animation","trial_index":7,"time_elapsed":138103,"internal_node_id":"0.0-7.0"},{"phase":0,"sequence":1,"avg":198,"response":230,"trial_type":"training_avg","trial_index":8,"time_elapsed":151167,"internal_node_id":"0.0-8.0"},{"trial_type":"number-animation","trial_index":9,"time_elapsed":164946,"internal_node_id":"0.0-9.0"},{"phase":0,"sequence":2,"avg":177,"response":170,"trial_type":"training_avg","trial_index":10,"time_elapsed":173332,"internal_node_id":"0.0-10.0"},{"trial_type":"number-animation","trial_index":11,"time_elapsed":187942,"internal_node_id":"0.0-11.0"},{"phase":0,"sequence":3,"avg":190,"response":188,"trial_type":"training_avg","trial_index":12,"time_elapsed":199232,"internal_node_id":"0.0-12.0"},{"trial_type":"number-animation","trial_index":13,"time_elapsed":209816,"internal_node_id":"0.0-13.0"},{"phase":0,"sequence":4,"avg":201,"response":200,"trial_type":"training_avg","trial_index":14,"time_elapsed":216557,"internal_node_id":"0.0-14.0"},{"responses":[{"value":1,"offby":0,"category":"$30 - $75","category_index":0},{"value":2,"offby":0,"category":"$76 - $120","category_index":1},{"value":4,"offby":0,"category":"$121 - $165","category_index":2},{"value":7,"offby":1,"category":"$166 - $210","category_index":3},{"value":4,"offby":-2,"category":"$211 - $255","category_index":4},{"value":1,"offby":0,"category":"$256 - $300","category_index":5},{"value":1,"offby":1,"category":"$301 - $345","category_index":6}],"phase":0,"number":0,"trial_type":"bar-choose","trial_index":15,"time_elapsed":280315,"internal_node_id":"0.0-15.0"},{"rt":27144,"url":"\/tickets\/\/utils\/testing.html","trial_type":"html","trial_index":16,"time_elapsed":308546,"internal_node_id":"0.0-16.0"},{"phase":0,"order":[10,30,6,9,1,21,32,25,29,8,4,31,27,39,23,46,0,7,34,28,40,14,22,2,17,44,13,11,35,24,36,16,5,20,12,3,19,42,26,45,38,18,49,47,43,33,15,41,37,48],"trial_type":"store_order","trial_index":17,"time_elapsed":309547,"internal_node_id":"0.0-17.0"},{"result":126,"points":3,"place":0,"phase":0,"sequence":-1,"prices":[184,180,224,165,181,199,185,193,218,126],"times":[1802,590,670,1501,571,623,1344,805,831,1159],"next_num":10,"trial_type":"ticket-choose","trial_index":18,"time_elapsed":323408,"internal_node_id":"0.0-18.0"},{"rt":27951,"url":"\/tickets\/utils\/testing_after.html","trial_type":"html","trial_index":19,"time_elapsed":352439,"internal_node_id":"0.0-19.0"},{"result":161,"points":1,"place":3,"phase":0,"sequence":0,"prices":[161,180,171,250,176,195,131,146,105,201],"times":[4894],"next_num":1,"trial_type":"ticket-choose","trial_index":20,"time_elapsed":360371,"internal_node_id":"0.0-20.0"},{"result":120,"points":2,"place":1,"phase":0,"sequence":1,"prices":[150,170,160,241,166,186,120,136,96,191],"times":[1533,569,804,620,1198,617,933],"next_num":7,"trial_type":"ticket-choose","trial_index":21,"time_elapsed":369963,"internal_node_id":"0.0-21.0"},{"result":126,"points":2,"place":1,"phase":0,"sequence":2,"prices":[151,176,126,251,170,196,165,145,105,201],"times":[1329,604,943],"next_num":3,"trial_type":"ticket-choose","trial_index":22,"time_elapsed":375427,"internal_node_id":"0.0-22.0"},{"result":150,"points":2,"place":1,"phase":0,"sequence":3,"prices":[181,156,145,165,236,231,201,260,150,185],"times":[3051,1939,627,563,619,629,659,641,853],"next_num":9,"trial_type":"ticket-choose","trial_index":23,"time_elapsed":388573,"internal_node_id":"0.0-23.0"},{"result":131,"points":2,"place":1,"phase":0,"sequence":4,"prices":[156,181,171,256,175,200,131,150,110,206],"times":[1147,619,679,609,571,802,802],"next_num":7,"trial_type":"ticket-choose","trial_index":24,"time_elapsed":397539,"internal_node_id":"0.0-24.0"},{"result":65,"points":2,"place":1,"phase":0,"sequence":5,"prices":[220,236,176,65,185,101,110,61,156,191],"times":[866,652,991,835],"next_num":4,"trial_type":"ticket-choose","trial_index":25,"time_elapsed":404451,"internal_node_id":"0.0-25.0"},{"result":120,"points":2,"place":1,"phase":0,"sequence":6,"prices":[146,171,120,245,165,191,160,140,100,196],"times":[769,745,825],"next_num":3,"trial_type":"ticket-choose","trial_index":26,"time_elapsed":409165,"internal_node_id":"0.0-26.0"},{"result":81,"points":3,"place":0,"phase":0,"sequence":7,"prices":[155,245,155,81,180,130,156,306,166,115],"times":[1079,589,1343,738],"next_num":4,"trial_type":"ticket-choose","trial_index":27,"time_elapsed":417344,"internal_node_id":"0.0-27.0"},{"result":130,"points":2,"place":1,"phase":0,"sequence":8,"prices":[155,225,245,130,176,106,180,211,165,200],"times":[1180,539,572,833],"next_num":4,"trial_type":"ticket-choose","trial_index":28,"time_elapsed":422870,"internal_node_id":"0.0-28.0"},{"result":81,"points":3,"place":0,"phase":0,"sequence":9,"prices":[81,205,130,151,191,261,145,210,250,165],"times":[902],"next_num":1,"trial_type":"ticket-choose","trial_index":29,"time_elapsed":426480,"internal_node_id":"0.0-29.0"},{"result":126,"points":2,"place":1,"phase":0,"sequence":10,"prices":[150,175,166,251,170,196,126,145,105,201],"times":[1720,561,918,620,817,803,1798],"next_num":7,"trial_type":"ticket-choose","trial_index":30,"time_elapsed":436926,"internal_node_id":"0.0-30.0"},{"result":120,"points":2,"place":1,"phase":0,"sequence":11,"prices":[186,156,191,120,195,145,45,130,246,176],"times":[719,1126,883,967],"next_num":4,"trial_type":"ticket-choose","trial_index":31,"time_elapsed":443076,"internal_node_id":"0.0-31.0"},{"result":121,"points":2,"place":1,"phase":0,"sequence":12,"prices":[146,170,121,245,166,190,161,141,100,195],"times":[4559,560,776],"next_num":3,"trial_type":"ticket-choose","trial_index":32,"time_elapsed":451162,"internal_node_id":"0.0-32.0"},{"result":131,"points":2,"place":1,"phase":0,"sequence":13,"prices":[156,181,131,256,176,200,171,151,111,206],"times":[906,644,1976],"next_num":3,"trial_type":"ticket-choose","trial_index":33,"time_elapsed":457026,"internal_node_id":"0.0-33.0"},{"result":51,"points":3,"place":0,"phase":0,"sequence":14,"prices":[221,175,51,196,146,130,166,80,126,156],"times":[678,622,802],"next_num":3,"trial_type":"ticket-choose","trial_index":34,"time_elapsed":461944,"internal_node_id":"0.0-34.0"},{"result":136,"points":3,"place":0,"phase":0,"sequence":15,"prices":[246,145,155,191,176,270,185,136,160,215],"times":[712,650,643,609,585,666,571,1037],"next_num":8,"trial_type":"ticket-choose","trial_index":35,"time_elapsed":471386,"internal_node_id":"0.0-35.0"},{"result":125,"points":2,"place":1,"phase":0,"sequence":16,"prices":[156,175,125,245,170,190,165,140,101,196],"times":[924,637,1175],"next_num":3,"trial_type":"ticket-choose","trial_index":36,"time_elapsed":476296,"internal_node_id":"0.0-36.0"},{"result":105,"points":3,"place":0,"phase":0,"sequence":17,"prices":[160,180,170,251,176,195,131,146,105,200],"times":[619,567,624,632,557,630,1549,595,768],"next_num":9,"trial_type":"ticket-choose","trial_index":37,"time_elapsed":487122,"internal_node_id":"0.0-37.0"},{"result":105,"points":3,"place":0,"phase":0,"sequence":18,"prices":[161,180,131,251,175,196,171,146,105,201],"times":[1819,534,684,574,587,546,613,607,829],"next_num":9,"trial_type":"ticket-choose","trial_index":38,"time_elapsed":499326,"internal_node_id":"0.0-38.0"},{"result":130,"points":3,"place":0,"phase":0,"sequence":19,"prices":[185,175,276,221,130,141,171,216,235,165],"times":[1536,589,576,643,1152],"next_num":5,"trial_type":"ticket-choose","trial_index":39,"time_elapsed":507604,"internal_node_id":"0.0-39.0"},{"result":126,"points":2,"place":1,"phase":0,"sequence":20,"prices":[150,176,126,251,171,195,165,145,105,200],"times":[1332,585,1590],"next_num":3,"trial_type":"ticket-choose","trial_index":40,"time_elapsed":514102,"internal_node_id":"0.0-40.0"},{"result":121,"points":2,"place":1,"phase":0,"sequence":21,"prices":[150,171,121,241,165,185,160,136,95,191],"times":[818,712,812],"next_num":3,"trial_type":"ticket-choose","trial_index":41,"time_elapsed":518718,"internal_node_id":"0.0-41.0"},{"result":130,"points":2,"place":1,"phase":0,"sequence":22,"prices":[156,181,130,255,175,200,170,150,111,205],"times":[1536,566,987],"next_num":3,"trial_type":"ticket-choose","trial_index":42,"time_elapsed":523990,"internal_node_id":"0.0-42.0"},{"result":126,"points":2,"place":1,"phase":0,"sequence":23,"prices":[156,176,165,246,171,190,126,141,101,196],"times":[682,540,577,967,645,626,945],"next_num":7,"trial_type":"ticket-choose","trial_index":43,"time_elapsed":532096,"internal_node_id":"0.0-43.0"},{"result":111,"points":3,"place":0,"phase":0,"sequence":24,"prices":[175,211,266,286,111,216,220,245,230,165],"times":[774,729,629,894,847],"next_num":5,"trial_type":"ticket-choose","trial_index":44,"time_elapsed":540624,"internal_node_id":"0.0-44.0"},{"result":126,"points":2,"place":1,"phase":0,"sequence":25,"prices":[151,175,166,251,170,195,126,146,105,201],"times":[686,500,524,562,529,578,2157],"next_num":7,"trial_type":"ticket-choose","trial_index":45,"time_elapsed":549374,"internal_node_id":"0.0-45.0"},{"result":120,"points":2,"place":1,"phase":0,"sequence":26,"prices":[145,170,160,245,165,190,120,141,100,195],"times":[626,549,534,556,572,1019,869],"next_num":7,"trial_type":"ticket-choose","trial_index":46,"time_elapsed":557371,"internal_node_id":"0.0-46.0"},{"result":121,"points":2,"place":1,"phase":0,"sequence":27,"prices":[150,170,160,240,166,185,121,136,95,191],"times":[5249,547,597,547,637,611,858],"next_num":7,"trial_type":"ticket-choose","trial_index":47,"time_elapsed":569564,"internal_node_id":"0.0-47.0"},{"result":125,"points":2,"place":1,"phase":0,"sequence":28,"prices":[155,175,166,245,171,190,125,140,101,196],"times":[1681,519,533,565,629,801,869],"next_num":7,"trial_type":"ticket-choose","trial_index":48,"time_elapsed":578316,"internal_node_id":"0.0-48.0"},{"result":155,"points":1,"place":4,"phase":0,"sequence":29,"prices":[135,180,141,151,175,220,145,196,211,155],"times":[1264,1196,655,658,567,582,581,988,976,730],"next_num":10,"trial_type":"ticket-choose","trial_index":49,"time_elapsed":590736,"internal_node_id":"0.0-49.0"},{"result":120,"points":3,"place":0,"phase":0,"sequence":30,"prices":[120,221,135,185,200,261,181,251,255,196],"times":[970],"next_num":1,"trial_type":"ticket-choose","trial_index":50,"time_elapsed":594494,"internal_node_id":"0.0-50.0"},{"result":116,"points":3,"place":0,"phase":0,"sequence":31,"prices":[176,150,276,171,261,116,130,201,166,231],"times":[709,582,573,675,631,896],"next_num":6,"trial_type":"ticket-choose","trial_index":51,"time_elapsed":601752,"internal_node_id":"0.0-51.0"},{"result":125,"points":1,"place":2,"phase":0,"sequence":32,"prices":[226,205,125,120,115,135,180,145,150,220],"times":[696,742,1777],"next_num":3,"trial_type":"ticket-choose","trial_index":52,"time_elapsed":609056,"internal_node_id":"0.0-52.0"},{"result":106,"points":3,"place":0,"phase":0,"sequence":33,"prices":[180,106,166,245,211,261,215,125,135,190],"times":[730,814],"next_num":2,"trial_type":"ticket-choose","trial_index":53,"time_elapsed":613546,"internal_node_id":"0.0-53.0"},{"result":95,"points":3,"place":0,"phase":0,"sequence":34,"prices":[95,205,106,151,186,271,145,210,215,181],"times":[1122],"next_num":1,"trial_type":"ticket-choose","trial_index":54,"time_elapsed":617244,"internal_node_id":"0.0-54.0"},{"result":30,"points":3,"place":0,"phase":0,"sequence":35,"prices":[155,30,101,55,136,276,70,181,200,261],"times":[902,856],"next_num":2,"trial_type":"ticket-choose","trial_index":55,"time_elapsed":621374,"internal_node_id":"0.0-55.0"},{"result":91,"points":3,"place":0,"phase":0,"sequence":36,"prices":[176,150,141,91,290,201,106,266,206,126],"times":[775,640,609,929],"next_num":4,"trial_type":"ticket-choose","trial_index":56,"time_elapsed":627260,"internal_node_id":"0.0-56.0"},{"result":105,"points":3,"place":0,"phase":0,"sequence":37,"prices":[105,216,146,165,210,260,161,235,241,185],"times":[1740],"next_num":1,"trial_type":"ticket-choose","trial_index":57,"time_elapsed":631288,"internal_node_id":"0.0-57.0"},{"result":120,"points":2,"place":1,"phase":0,"sequence":38,"prices":[150,171,120,241,165,185,160,135,96,190],"times":[1064,539,1558],"next_num":3,"trial_type":"ticket-choose","trial_index":58,"time_elapsed":636750,"internal_node_id":"0.0-58.0"},{"result":130,"points":2,"place":1,"phase":0,"sequence":39,"prices":[155,181,170,255,176,200,130,150,110,205],"times":[1085,4165,612,605,698,583,984],"next_num":7,"trial_type":"ticket-choose","trial_index":59,"time_elapsed":648618,"internal_node_id":"0.0-59.0"},{"result":120,"points":2,"place":1,"phase":0,"sequence":40,"prices":[145,171,161,245,165,191,120,140,100,196],"times":[1188,733,627,636,608,605,926],"next_num":7,"trial_type":"ticket-choose","trial_index":60,"time_elapsed":658862,"internal_node_id":"0.0-60.0"},{"result":175,"points":1,"place":4,"phase":0,"sequence":41,"prices":[130,195,141,155,181,226,150,216,221,175],"times":[1150,536,874,672,562,583,884,581,672,842],"next_num":10,"trial_type":"ticket-choose","trial_index":61,"time_elapsed":670590,"internal_node_id":"0.0-61.0"},{"result":111,"points":3,"place":0,"phase":0,"sequence":42,"prices":[111,231,131,146,171,295,141,241,271,150],"times":[1436],"next_num":1,"trial_type":"ticket-choose","trial_index":62,"time_elapsed":674108,"internal_node_id":"0.0-62.0"},{"result":86,"points":3,"place":0,"phase":0,"sequence":43,"prices":[86,180,130,151,170,271,145,191,220,160],"times":[800],"next_num":1,"trial_type":"ticket-choose","trial_index":63,"time_elapsed":676932,"internal_node_id":"0.0-63.0"},{"result":66,"points":3,"place":0,"phase":0,"sequence":44,"prices":[66,201,96,150,185,230,121,216,225,165],"times":[977],"next_num":1,"trial_type":"ticket-choose","trial_index":64,"time_elapsed":679804,"internal_node_id":"0.0-64.0"},{"result":126,"points":2,"place":1,"phase":0,"sequence":45,"prices":[156,175,126,246,170,190,165,140,100,196],"times":[846,540,1505],"next_num":3,"trial_type":"ticket-choose","trial_index":65,"time_elapsed":684974,"internal_node_id":"0.0-65.0"},{"result":61,"points":3,"place":0,"phase":0,"sequence":46,"prices":[255,166,266,175,136,145,155,61,96,301],"times":[597,586,538,539,1082,598,569,771],"next_num":8,"trial_type":"ticket-choose","trial_index":66,"time_elapsed":694784,"internal_node_id":"0.0-66.0"},{"result":130,"points":2,"place":1,"phase":0,"sequence":47,"prices":[160,180,130,251,176,195,170,146,105,200],"times":[1810,618,927],"next_num":3,"trial_type":"ticket-choose","trial_index":67,"time_elapsed":700524,"internal_node_id":"0.0-67.0"},{"result":75,"points":3,"place":0,"phase":0,"sequence":48,"prices":[75,171,131,151,161,250,145,190,206,156],"times":[855],"next_num":1,"trial_type":"ticket-choose","trial_index":68,"time_elapsed":703644,"internal_node_id":"0.0-68.0"},{"result":106,"points":2,"place":1,"phase":0,"sequence":49,"prices":[185,180,235,210,106,266,76,115,250,205],"times":[805,558,551,614,1108],"next_num":5,"trial_type":"ticket-choose","trial_index":69,"time_elapsed":710047,"internal_node_id":"0.0-69.0"},{"responses":[{"value":3,"offby":2,"category":"$30 - $75","category_index":0},{"value":5,"offby":3,"category":"$76 - $120","category_index":1},{"value":5,"offby":1,"category":"$121 - $165","category_index":2},{"value":4,"offby":-2,"category":"$166 - $210","category_index":3},{"value":2,"offby":-4,"category":"$211 - $255","category_index":4},{"value":1,"offby":0,"category":"$256 - $300","category_index":5},{"value":0,"offby":0,"category":"$301 - $345","category_index":6}],"phase":0,"number":1,"trial_type":"bar-choose","trial_index":70,"time_elapsed":786673,"internal_node_id":"0.0-70.0"},{"rt":16014,"url":"\/tickets\/utils\/start2.html","trial_type":"html","trial_index":71,"time_elapsed":803776,"internal_node_id":"0.0-71.0"},{"trial_type":"number-animation","trial_index":72,"time_elapsed":814502,"internal_node_id":"0.0-72.0"},{"phase":1,"sequence":0,"avg":180,"response":180,"trial_type":"training_avg","trial_index":73,"time_elapsed":829465,"internal_node_id":"0.0-73.0"},{"trial_type":"number-animation","trial_index":74,"time_elapsed":840223,"internal_node_id":"0.0-74.0"},{"phase":1,"sequence":1,"avg":178,"response":175,"trial_type":"training_avg","trial_index":75,"time_elapsed":844561,"internal_node_id":"0.0-75.0"},{"trial_type":"number-animation","trial_index":76,"time_elapsed":854573,"internal_node_id":"0.0-76.0"},{"phase":1,"sequence":2,"avg":176,"response":177,"trial_type":"training_avg","trial_index":77,"time_elapsed":859867,"internal_node_id":"0.0-77.0"},{"trial_type":"number-animation","trial_index":78,"time_elapsed":871579,"internal_node_id":"0.0-78.0"},{"phase":1,"sequence":3,"avg":178,"response":181,"trial_type":"training_avg","trial_index":79,"time_elapsed":877643,"internal_node_id":"0.0-79.0"},{"trial_type":"number-animation","trial_index":80,"time_elapsed":886585,"internal_node_id":"0.0-80.0"},{"phase":1,"sequence":4,"avg":179,"response":175,"trial_type":"training_avg","trial_index":81,"time_elapsed":890519,"internal_node_id":"0.0-81.0"},{"responses":[{"value":1,"offby":1,"category":"$140 - $250","category_index":0},{"value":2,"offby":2,"category":"$151 - $160","category_index":1},{"value":4,"offby":0,"category":"$161 - $170","category_index":2},{"value":8,"offby":2,"category":"$171 - $180","category_index":3},{"value":4,"offby":-3,"category":"$181 - $190","category_index":4},{"value":1,"offby":-2,"category":"$191 - $200","category_index":5},{"value":0,"offby":0,"category":"$201 - $210","category_index":6}],"phase":1,"number":0,"trial_type":"bar-choose","trial_index":82,"time_elapsed":950338,"internal_node_id":"0.0-82.0"},{"rt":59244,"url":"\/tickets\/utils\/testing2.html","trial_type":"html","trial_index":83,"time_elapsed":1010676,"internal_node_id":"0.0-83.0"},{"phase":1,"order":[12,21,2,47,15,43,18,42,49,30,6,37,19,10,35,48,1,13,8,38,3,16,11,5,46,7,23,20,4,32,27,40,36,41,25,44,45,26,17,14,22,33,29,24,31,0,39,9,28,34],"trial_type":"store_order","trial_index":84,"time_elapsed":1013060,"internal_node_id":"0.0-84.0"},{"result":174,"points":1,"place":2,"phase":1,"sequence":0,"prices":[175,180,170,195,179,184,178,174,166,185],"times":[12661,570,1283,6626,1214,562,590,1111],"next_num":8,"trial_type":"ticket-choose","trial_index":85,"time_elapsed":1041101,"internal_node_id":"0.0-85.0"},{"result":177,"points":1,"place":4,"phase":1,"sequence":1,"prices":[160,185,170,174,182,196,173,186,194,177],"times":[948,1099,558,609,609,740,593,768,629,1748],"next_num":10,"trial_type":"ticket-choose","trial_index":86,"time_elapsed":1053367,"internal_node_id":"0.0-86.0"},{"result":169,"points":2,"place":1,"phase":1,"sequence":2,"prices":[174,179,177,194,178,183,169,173,165,184],"times":[750,510,547,802,789,645,1008],"next_num":7,"trial_type":"ticket-choose","trial_index":87,"time_elapsed":1063825,"internal_node_id":"0.0-87.0"},{"result":165,"points":3,"place":0,"phase":1,"sequence":3,"prices":[176,180,170,194,179,183,178,173,165,184],"times":[1006,544,1132,560,945,593,588,1110,886],"next_num":9,"trial_type":"ticket-choose","trial_index":88,"time_elapsed":1075328,"internal_node_id":"0.0-88.0"},{"result":169,"points":2,"place":1,"phase":1,"sequence":4,"prices":[175,179,169,193,178,182,177,172,164,183],"times":[969,625,2119],"next_num":3,"trial_type":"ticket-choose","trial_index":89,"time_elapsed":1081368,"internal_node_id":"0.0-89.0"},{"result":168,"points":2,"place":1,"phase":1,"sequence":5,"prices":[174,178,176,192,177,181,168,171,163,182],"times":[635,550,568,828,625,816,797],"next_num":7,"trial_type":"ticket-choose","trial_index":90,"time_elapsed":1089298,"internal_node_id":"0.0-90.0"},{"result":171,"points":3,"place":0,"phase":1,"sequence":6,"prices":[171,180,172,174,179,188,173,183,186,175],"times":[1266],"next_num":1,"trial_type":"ticket-choose","trial_index":91,"time_elapsed":1092489,"internal_node_id":"0.0-91.0"},{"result":163,"points":3,"place":0,"phase":1,"sequence":7,"prices":[163,185,165,174,181,198,173,186,187,180],"times":[3097],"next_num":1,"trial_type":"ticket-choose","trial_index":92,"time_elapsed":1098090,"internal_node_id":"0.0-92.0"},{"result":166,"points":3,"place":0,"phase":1,"sequence":8,"prices":[166,190,170,173,178,203,172,192,198,174],"times":[937],"next_num":1,"trial_type":"ticket-choose","trial_index":93,"time_elapsed":1101037,"internal_node_id":"0.0-93.0"},{"result":170,"points":2,"place":1,"phase":1,"sequence":9,"prices":[176,180,170,194,179,183,178,173,165,184],"times":[1308,801,1309],"next_num":3,"trial_type":"ticket-choose","trial_index":94,"time_elapsed":1108874,"internal_node_id":"0.0-94.0"},{"result":169,"points":2,"place":1,"phase":1,"sequence":10,"prices":[175,179,177,193,178,182,169,172,164,183],"times":[3788,586,1070,644,633,631,1135],"next_num":7,"trial_type":"ticket-choose","trial_index":95,"time_elapsed":1120648,"internal_node_id":"0.0-95.0"},{"result":157,"points":3,"place":0,"phase":1,"sequence":11,"prices":[157,184,163,174,181,190,168,187,189,177],"times":[1070],"next_num":1,"trial_type":"ticket-choose","trial_index":96,"time_elapsed":1123440,"internal_node_id":"0.0-96.0"},{"result":168,"points":3,"place":0,"phase":1,"sequence":12,"prices":[168,188,171,181,184,196,180,194,195,183],"times":[849],"next_num":1,"trial_type":"ticket-choose","trial_index":97,"time_elapsed":1126122,"internal_node_id":"0.0-97.0"},{"result":156,"points":3,"place":0,"phase":1,"sequence":13,"prices":[195,177,197,179,171,173,175,156,163,204],"times":[1092,592,586,617,1120,687,598,955],"next_num":8,"trial_type":"ticket-choose","trial_index":98,"time_elapsed":1135642,"internal_node_id":"0.0-98.0"},{"result":168,"points":2,"place":1,"phase":1,"sequence":14,"prices":[173,178,176,193,177,182,168,172,164,183],"times":[3711,681,546,665,623,650,867],"next_num":7,"trial_type":"ticket-choose","trial_index":99,"time_elapsed":1147443,"internal_node_id":"0.0-99.0"},{"result":166,"points":3,"place":0,"phase":1,"sequence":15,"prices":[179,186,197,201,166,187,188,193,190,177],"times":[842,2095,579,607,895],"next_num":5,"trial_type":"ticket-choose","trial_index":100,"time_elapsed":1155140,"internal_node_id":"0.0-100.0"},{"result":169,"points":2,"place":1,"phase":1,"sequence":16,"prices":[175,179,169,193,178,182,177,172,164,183],"times":[684,1522,894],"next_num":3,"trial_type":"ticket-choose","trial_index":101,"time_elapsed":1160528,"internal_node_id":"0.0-101.0"},{"result":169,"points":2,"place":1,"phase":1,"sequence":17,"prices":[174,179,177,194,178,183,169,173,165,184],"times":[3760,673,3083,690,744,817,876],"next_num":7,"trial_type":"ticket-choose","trial_index":102,"time_elapsed":1174248,"internal_node_id":"0.0-102.0"},{"result":159,"points":3,"place":0,"phase":1,"sequence":18,"prices":[181,180,191,186,165,197,159,167,194,185],"times":[646,544,594,558,625,1058,862],"next_num":7,"trial_type":"ticket-choose","trial_index":103,"time_elapsed":1182044,"internal_node_id":"0.0-103.0"},{"result":159,"points":3,"place":0,"phase":1,"sequence":19,"prices":[159,178,170,174,176,194,173,182,185,175],"times":[933],"next_num":1,"trial_type":"ticket-choose","trial_index":104,"time_elapsed":1187302,"internal_node_id":"0.0-104.0"},{"result":167,"points":3,"place":0,"phase":1,"sequence":20,"prices":[179,174,199,178,196,167,170,184,177,190],"times":[806,560,1006,537,829,750],"next_num":6,"trial_type":"ticket-choose","trial_index":105,"time_elapsed":1194752,"internal_node_id":"0.0-105.0"},{"result":170,"points":2,"place":1,"phase":1,"sequence":21,"prices":[175,180,178,195,179,184,170,174,166,185],"times":[650,543,607,538,550,713,2261],"next_num":7,"trial_type":"ticket-choose","trial_index":106,"time_elapsed":1203780,"internal_node_id":"0.0-106.0"},{"result":168,"points":2,"place":1,"phase":1,"sequence":22,"prices":[173,178,176,193,177,182,168,172,164,183],"times":[804,492,565,575,569,572,1325],"next_num":7,"trial_type":"ticket-choose","trial_index":107,"time_elapsed":1211718,"internal_node_id":"0.0-107.0"},{"result":169,"points":2,"place":1,"phase":1,"sequence":23,"prices":[174,179,169,194,178,183,177,173,165,184],"times":[2945,505,1033],"next_num":3,"trial_type":"ticket-choose","trial_index":108,"time_elapsed":1218427,"internal_node_id":"0.0-108.0"},{"result":168,"points":2,"place":1,"phase":1,"sequence":24,"prices":[174,178,168,192,177,181,176,171,163,182],"times":[1605,839,800],"next_num":3,"trial_type":"ticket-choose","trial_index":109,"time_elapsed":1225500,"internal_node_id":"0.0-109.0"},{"result":150,"points":3,"place":0,"phase":1,"sequence":25,"prices":[175,150,164,155,171,199,158,180,184,196],"times":[1068,859],"next_num":2,"trial_type":"ticket-choose","trial_index":110,"time_elapsed":1230418,"internal_node_id":"0.0-110.0"},{"result":165,"points":3,"place":0,"phase":1,"sequence":26,"prices":[176,180,178,194,179,183,170,173,165,184],"times":[1080,615,511,599,545,1772,566,586,804],"next_num":9,"trial_type":"ticket-choose","trial_index":111,"time_elapsed":1240930,"internal_node_id":"0.0-111.0"},{"result":166,"points":3,"place":0,"phase":1,"sequence":27,"prices":[175,180,170,195,179,184,178,174,166,185],"times":[1090,574,582,575,540,573,593,612,977],"next_num":9,"trial_type":"ticket-choose","trial_index":112,"time_elapsed":1250473,"internal_node_id":"0.0-112.0"},{"result":154,"points":3,"place":0,"phase":1,"sequence":28,"prices":[188,179,154,183,173,170,177,160,169,175],"times":[616,532,815],"next_num":3,"trial_type":"ticket-choose","trial_index":113,"time_elapsed":1254492,"internal_node_id":"0.0-113.0"},{"result":161,"points":3,"place":0,"phase":1,"sequence":29,"prices":[161,180,170,174,178,198,173,182,188,176],"times":[1470],"next_num":1,"trial_type":"ticket-choose","trial_index":114,"time_elapsed":1257739,"internal_node_id":"0.0-114.0"},{"result":169,"points":1,"place":2,"phase":1,"sequence":30,"prices":[189,185,169,168,167,171,180,173,174,188],"times":[654,663,1061],"next_num":3,"trial_type":"ticket-choose","trial_index":115,"time_elapsed":1262387,"internal_node_id":"0.0-115.0"},{"result":168,"points":2,"place":1,"phase":1,"sequence":31,"prices":[174,178,168,192,177,181,176,171,163,182],"times":[826,483,882],"next_num":3,"trial_type":"ticket-choose","trial_index":116,"time_elapsed":1266764,"internal_node_id":"0.0-116.0"},{"result":169,"points":2,"place":1,"phase":1,"sequence":32,"prices":[175,179,177,193,178,182,169,172,164,183],"times":[869,587,553,525,494,541,907],"next_num":7,"trial_type":"ticket-choose","trial_index":117,"time_elapsed":1278904,"internal_node_id":"0.0-117.0"},{"result":168,"points":2,"place":1,"phase":1,"sequence":33,"prices":[174,178,176,192,177,181,168,171,163,182],"times":[790,503,589,606,628,543,899],"next_num":7,"trial_type":"ticket-choose","trial_index":118,"time_elapsed":1286535,"internal_node_id":"0.0-118.0"},{"result":165,"points":3,"place":0,"phase":1,"sequence":34,"prices":[176,180,178,194,179,183,170,173,165,184],"times":[2218,537,501,713,574,570,782,595,774],"next_num":9,"trial_type":"ticket-choose","trial_index":119,"time_elapsed":1297269,"internal_node_id":"0.0-119.0"},{"result":165,"points":3,"place":0,"phase":1,"sequence":35,"prices":[174,179,169,194,178,183,177,173,165,184],"times":[674,526,1340,637,556,588,710,726,862],"next_num":9,"trial_type":"ticket-choose","trial_index":120,"time_elapsed":1307329,"internal_node_id":"0.0-120.0"},{"result":168,"points":2,"place":1,"phase":1,"sequence":36,"prices":[173,178,168,193,177,182,176,172,164,183],"times":[652,487,2470],"next_num":3,"trial_type":"ticket-choose","trial_index":121,"time_elapsed":1313196,"internal_node_id":"0.0-121.0"},{"result":160,"points":3,"place":0,"phase":1,"sequence":37,"prices":[175,193,175,160,180,170,175,205,177,167],"times":[618,577,579,959],"next_num":4,"trial_type":"ticket-choose","trial_index":122,"time_elapsed":1318283,"internal_node_id":"0.0-122.0"},{"result":165,"points":3,"place":0,"phase":1,"sequence":38,"prices":[165,187,173,177,186,196,176,191,192,181],"times":[2379],"next_num":1,"trial_type":"ticket-choose","trial_index":123,"time_elapsed":1322645,"internal_node_id":"0.0-123.0"},{"result":162,"points":3,"place":0,"phase":1,"sequence":39,"prices":[179,174,172,162,202,184,165,197,185,169],"times":[1237,699,617,853],"next_num":4,"trial_type":"ticket-choose","trial_index":124,"time_elapsed":1331685,"internal_node_id":"0.0-124.0"},{"result":177,"points":1,"place":2,"phase":1,"sequence":40,"prices":[181,179,199,188,170,172,178,187,191,177],"times":[754,591,632,614,562,583,602,585,642,731],"next_num":10,"trial_type":"ticket-choose","trial_index":125,"time_elapsed":1341841,"internal_node_id":"0.0-125.0"},{"result":164,"points":3,"place":0,"phase":1,"sequence":41,"prices":[173,178,168,193,177,182,176,172,164,183],"times":[632,527,1373,593,562,582,553,578,963],"next_num":9,"trial_type":"ticket-choose","trial_index":126,"time_elapsed":1351847,"internal_node_id":"0.0-126.0"},{"result":165,"points":3,"place":0,"phase":1,"sequence":42,"prices":[175,189,193,170,179,165,180,186,177,184],"times":[1005,495,582,919,524,789],"next_num":6,"trial_type":"ticket-choose","trial_index":127,"time_elapsed":1359176,"internal_node_id":"0.0-127.0"},{"result":181,"points":0,"place":5,"phase":1,"sequence":43,"prices":[180,175,173,177,191,190,184,196,174,181],"times":[630,452,476,544,586,580,638,685,605,709],"next_num":10,"trial_type":"ticket-choose","trial_index":128,"time_elapsed":1368831,"internal_node_id":"0.0-128.0"},{"result":157,"points":2,"place":1,"phase":1,"sequence":44,"prices":[188,191,179,157,181,164,166,156,175,182],"times":[713,571,562,1178],"next_num":4,"trial_type":"ticket-choose","trial_index":129,"time_elapsed":1374263,"internal_node_id":"0.0-129.0"},{"result":179,"points":1,"place":4,"phase":1,"sequence":45,"prices":[170,183,172,175,180,189,174,187,188,179],"times":[991,544,576,530,624,583,1042,588,602,1559],"next_num":10,"trial_type":"ticket-choose","trial_index":130,"time_elapsed":1390015,"internal_node_id":"0.0-130.0"},{"result":170,"points":2,"place":1,"phase":1,"sequence":46,"prices":[175,180,178,195,179,184,170,174,166,185],"times":[746,859,733,615,1111,596,804],"next_num":7,"trial_type":"ticket-choose","trial_index":131,"time_elapsed":1398663,"internal_node_id":"0.0-131.0"},{"result":165,"points":3,"place":0,"phase":1,"sequence":47,"prices":[180,165,177,193,186,196,187,169,171,182],"times":[941,996],"next_num":2,"trial_type":"ticket-choose","trial_index":132,"time_elapsed":1402721,"internal_node_id":"0.0-132.0"},{"result":168,"points":2,"place":1,"phase":1,"sequence":48,"prices":[181,175,182,168,183,173,153,170,193,179],"times":[812,647,593,922],"next_num":4,"trial_type":"ticket-choose","trial_index":133,"time_elapsed":1408111,"internal_node_id":"0.0-133.0"},{"result":187,"points":0,"place":7,"phase":1,"sequence":49,"prices":[193,173,175,182,179,198,181,171,176,187],"times":[590,535,556,576,536,559,590,1541,700,2192],"next_num":10,"trial_type":"ticket-choose","trial_index":134,"time_elapsed":1420545,"internal_node_id":"0.0-134.0"},{"responses":[{"value":1,"offby":1,"category":"$140 - $250","category_index":0},{"value":4,"offby":4,"category":"$151 - $160","category_index":1},{"value":5,"offby":1,"category":"$161 - $170","category_index":2},{"value":4,"offby":-2,"category":"$171 - $180","category_index":3},{"value":3,"offby":-4,"category":"$181 - $190","category_index":4},{"value":2,"offby":-1,"category":"$191 - $200","category_index":5},{"value":1,"offby":1,"category":"$201 - $210","category_index":6}],"phase":1,"number":1,"trial_type":"bar-choose","trial_index":135,"time_elapsed":1468327,"internal_node_id":"0.0-135.0"},{"special_comment":"ithink at the end there were way higher numbers","trial_type":"special_sequence","trial_index":136,"time_elapsed":1483155,"internal_node_id":"0.0-136.0"},{"during":"Nothing","bonus":308,"trial_type":"final","trial_index":137,"time_elapsed":1511255,"internal_node_id":"0.0-137.0"}],"bonus":308}