{"start_time":"2017-02-27 11:40:05","end_time":"2017-02-27 12:16:20","points_phase0":107,"points_phase1":98,"phase_order":1,"age":30,"gender":"m","tries":1,"during":"Nothing","worker_id":"A2MUCL20GTQJA0","assignment_id":"34FNN24DCN2P0KSU7EUC7C63A3KY5T","data":[{"rt":177690,"url":"\/tickets\/utils\/consent.html","trial_type":"html","trial_index":0,"time_elapsed":177797,"internal_node_id":"0.0-0.0"},{"age":30,"gender":"m","trial_type":"age","trial_index":1,"time_elapsed":190607,"internal_node_id":"0.0-1.0"},{"worker_id":"A2MUCL20GTQJA0","trial_type":"workerid","trial_index":2,"time_elapsed":213320,"internal_node_id":"0.0-2.0"},{"tries":1,"trial_type":"instructions_check","trial_index":3,"time_elapsed":311285,"internal_node_id":"0.0-3.0"},{"rt":41773,"url":"\/tickets\/utils\/start.html","trial_type":"html","trial_index":4,"time_elapsed":354166,"internal_node_id":"0.0-4.0"},{"trial_type":"number-animation","trial_index":5,"time_elapsed":443885,"internal_node_id":"0.0-5.0"},{"phase":0,"sequence":0,"avg":166,"response":230,"trial_type":"training_avg","trial_index":6,"time_elapsed":474314,"internal_node_id":"0.0-6.0"},{"trial_type":"number-animation","trial_index":7,"time_elapsed":533954,"internal_node_id":"0.0-7.0"},{"phase":0,"sequence":1,"avg":198,"response":198,"trial_type":"training_avg","trial_index":8,"time_elapsed":552693,"internal_node_id":"0.0-8.0"},{"trial_type":"number-animation","trial_index":9,"time_elapsed":591962,"internal_node_id":"0.0-9.0"},{"phase":0,"sequence":2,"avg":177,"response":177,"trial_type":"training_avg","trial_index":10,"time_elapsed":605985,"internal_node_id":"0.0-10.0"},{"trial_type":"number-animation","trial_index":11,"time_elapsed":650286,"internal_node_id":"0.0-11.0"},{"phase":0,"sequence":3,"avg":190,"response":145,"trial_type":"training_avg","trial_index":12,"time_elapsed":656761,"internal_node_id":"0.0-12.0"},{"trial_type":"number-animation","trial_index":13,"time_elapsed":701540,"internal_node_id":"0.0-13.0"},{"phase":0,"sequence":4,"avg":201,"response":200,"trial_type":"training_avg","trial_index":14,"time_elapsed":719976,"internal_node_id":"0.0-14.0"},{"responses":[{"value":2,"offby":1,"category":"$30 - $75","category_index":0},{"value":6,"offby":4,"category":"$76 - $120","category_index":1},{"value":6,"offby":2,"category":"$121 - $165","category_index":2},{"value":6,"offby":0,"category":"$166 - $210","category_index":3},{"value":0,"offby":-6,"category":"$211 - $255","category_index":4},{"value":0,"offby":-1,"category":"$256 - $300","category_index":5},{"value":0,"offby":0,"category":"$301 - $345","category_index":6}],"phase":0,"number":0,"trial_type":"bar-choose","trial_index":15,"time_elapsed":823822,"internal_node_id":"0.0-15.0"},{"rt":25581,"url":"\/tickets\/\/utils\/testing.html","trial_type":"html","trial_index":16,"time_elapsed":850511,"internal_node_id":"0.0-16.0"},{"phase":0,"order":[1,9,26,25,15,38,29,17,32,19,40,10,12,22,3,6,13,39,36,45,7,4,37,5,33,27,34,44,42,41,49,21,43,46,35,20,31,48,18,0,23,16,28,24,14,47,8,11,30,2],"trial_type":"store_order","trial_index":17,"time_elapsed":851512,"internal_node_id":"0.0-17.0"},{"result":126,"points":3,"place":0,"phase":0,"sequence":-1,"prices":[184,180,224,165,181,199,185,193,218,126],"times":[4938,1752,1440,2785,1312,632,1394,718,736,1005],"next_num":10,"trial_type":"ticket-choose","trial_index":18,"time_elapsed":872623,"internal_node_id":"0.0-18.0"},{"rt":18187,"url":"\/tickets\/utils\/testing_after.html","trial_type":"html","trial_index":19,"time_elapsed":891916,"internal_node_id":"0.0-19.0"},{"result":121,"points":2,"place":1,"phase":0,"sequence":0,"prices":[150,171,121,241,165,185,160,136,95,191],"times":[4463,1196,3735],"next_num":3,"trial_type":"ticket-choose","trial_index":20,"time_elapsed":906891,"internal_node_id":"0.0-20.0"},{"result":126,"points":2,"place":1,"phase":0,"sequence":1,"prices":[150,176,126,251,171,195,165,145,105,200],"times":[1914,1362,1220],"next_num":3,"trial_type":"ticket-choose","trial_index":21,"time_elapsed":914463,"internal_node_id":"0.0-21.0"},{"result":65,"points":2,"place":1,"phase":0,"sequence":2,"prices":[220,236,176,65,185,101,110,61,156,191],"times":[1121,670,671,974],"next_num":4,"trial_type":"ticket-choose","trial_index":22,"time_elapsed":920757,"internal_node_id":"0.0-22.0"},{"result":150,"points":2,"place":1,"phase":0,"sequence":3,"prices":[181,156,145,165,236,231,201,260,150,185],"times":[875,600,497,537,561,760,529,576,2545],"next_num":9,"trial_type":"ticket-choose","trial_index":23,"time_elapsed":931970,"internal_node_id":"0.0-23.0"},{"result":130,"points":2,"place":1,"phase":0,"sequence":4,"prices":[155,225,245,130,176,106,180,211,165,200],"times":[1082,593,663,1123],"next_num":4,"trial_type":"ticket-choose","trial_index":24,"time_elapsed":938135,"internal_node_id":"0.0-24.0"},{"result":130,"points":2,"place":1,"phase":0,"sequence":5,"prices":[155,181,170,255,176,200,130,150,110,205],"times":[1033,592,617,601,561,593,1021],"next_num":7,"trial_type":"ticket-choose","trial_index":25,"time_elapsed":946350,"internal_node_id":"0.0-25.0"},{"result":120,"points":2,"place":1,"phase":0,"sequence":6,"prices":[186,156,191,120,195,145,45,130,246,176],"times":[922,854,577,2029],"next_num":4,"trial_type":"ticket-choose","trial_index":26,"time_elapsed":953588,"internal_node_id":"0.0-26.0"},{"result":91,"points":3,"place":0,"phase":0,"sequence":7,"prices":[176,150,141,91,290,201,106,266,206,126],"times":[787,521,4109,933],"next_num":4,"trial_type":"ticket-choose","trial_index":27,"time_elapsed":962810,"internal_node_id":"0.0-27.0"},{"result":165,"points":1,"place":4,"phase":0,"sequence":8,"prices":[156,175,126,246,170,190,165,140,100,196],"times":[844,498,330,545,560,498,1869],"next_num":7,"trial_type":"ticket-choose","trial_index":28,"time_elapsed":971240,"internal_node_id":"0.0-28.0"},{"result":106,"points":2,"place":1,"phase":0,"sequence":9,"prices":[185,180,235,210,106,266,76,115,250,205],"times":[889,600,624,760,1059],"next_num":5,"trial_type":"ticket-choose","trial_index":29,"time_elapsed":977873,"internal_node_id":"0.0-29.0"},{"result":126,"points":2,"place":1,"phase":0,"sequence":10,"prices":[156,176,165,246,171,190,126,141,101,196],"times":[762,553,894,617,608,577,972],"next_num":7,"trial_type":"ticket-choose","trial_index":30,"time_elapsed":986039,"internal_node_id":"0.0-30.0"},{"result":116,"points":3,"place":0,"phase":0,"sequence":11,"prices":[176,150,276,171,261,116,130,201,166,231],"times":[772,1037,567,656,536,910],"next_num":6,"trial_type":"ticket-choose","trial_index":31,"time_elapsed":993705,"internal_node_id":"0.0-31.0"},{"result":131,"points":2,"place":1,"phase":0,"sequence":12,"prices":[161,180,171,250,176,195,131,146,105,201],"times":[813,513,482,560,560,490,933],"next_num":7,"trial_type":"ticket-choose","trial_index":32,"time_elapsed":1001151,"internal_node_id":"0.0-32.0"},{"result":70,"points":1,"place":2,"phase":0,"sequence":13,"prices":[155,30,101,55,136,276,70,181,200,261],"times":[764,442,585,489,490,576,965],"next_num":7,"trial_type":"ticket-choose","trial_index":33,"time_elapsed":1008419,"internal_node_id":"0.0-33.0"},{"result":155,"points":1,"place":4,"phase":0,"sequence":14,"prices":[135,180,141,151,175,220,145,196,211,155],"times":[748,925,640,815,602,591,3196,592,585,759],"next_num":10,"trial_type":"ticket-choose","trial_index":34,"time_elapsed":1021523,"internal_node_id":"0.0-34.0"},{"result":120,"points":2,"place":1,"phase":0,"sequence":15,"prices":[150,170,160,241,166,186,120,136,96,191],"times":[1542,623,623,632,829,616,940],"next_num":7,"trial_type":"ticket-choose","trial_index":35,"time_elapsed":1030412,"internal_node_id":"0.0-35.0"},{"result":125,"points":2,"place":1,"phase":0,"sequence":16,"prices":[156,175,125,245,170,190,165,140,101,196],"times":[1842,593,2085],"next_num":3,"trial_type":"ticket-choose","trial_index":36,"time_elapsed":1037285,"internal_node_id":"0.0-36.0"},{"result":120,"points":2,"place":1,"phase":0,"sequence":17,"prices":[146,171,120,245,165,191,160,140,100,196],"times":[773,616,1585],"next_num":3,"trial_type":"ticket-choose","trial_index":37,"time_elapsed":1042736,"internal_node_id":"0.0-37.0"},{"result":121,"points":2,"place":1,"phase":0,"sequence":18,"prices":[146,170,121,245,166,190,161,141,100,195],"times":[686,575,1467],"next_num":3,"trial_type":"ticket-choose","trial_index":38,"time_elapsed":1047779,"internal_node_id":"0.0-38.0"},{"result":125,"points":2,"place":1,"phase":0,"sequence":19,"prices":[155,175,166,245,171,190,125,140,101,196],"times":[897,537,537,593,640,577,886],"next_num":7,"trial_type":"ticket-choose","trial_index":39,"time_elapsed":1055563,"internal_node_id":"0.0-39.0"},{"result":120,"points":2,"place":1,"phase":0,"sequence":20,"prices":[145,170,160,245,165,190,120,141,100,195],"times":[739,552,520,568,623,553,901],"next_num":7,"trial_type":"ticket-choose","trial_index":40,"time_elapsed":1063141,"internal_node_id":"0.0-40.0"},{"result":131,"points":2,"place":1,"phase":0,"sequence":21,"prices":[160,180,170,251,176,195,131,146,105,200],"times":[677,505,545,577,584,569,886],"next_num":7,"trial_type":"ticket-choose","trial_index":41,"time_elapsed":1070587,"internal_node_id":"0.0-41.0"},{"result":121,"points":2,"place":1,"phase":0,"sequence":22,"prices":[150,170,160,240,166,185,121,136,95,191],"times":[787,726,695,625,981,592,933],"next_num":7,"trial_type":"ticket-choose","trial_index":42,"time_elapsed":1079006,"internal_node_id":"0.0-42.0"},{"result":126,"points":2,"place":1,"phase":0,"sequence":23,"prices":[151,176,126,251,170,196,165,145,105,201],"times":[872,597,1387],"next_num":3,"trial_type":"ticket-choose","trial_index":43,"time_elapsed":1084062,"internal_node_id":"0.0-43.0"},{"result":120,"points":2,"place":1,"phase":0,"sequence":24,"prices":[150,171,120,241,165,185,160,135,96,190],"times":[31249,918,2742],"next_num":3,"trial_type":"ticket-choose","trial_index":44,"time_elapsed":1121776,"internal_node_id":"0.0-44.0"},{"result":105,"points":3,"place":0,"phase":0,"sequence":25,"prices":[105,216,146,165,210,260,161,235,241,185],"times":[3485],"next_num":1,"trial_type":"ticket-choose","trial_index":45,"time_elapsed":1127736,"internal_node_id":"0.0-45.0"},{"result":130,"points":3,"place":0,"phase":0,"sequence":26,"prices":[185,175,276,221,130,141,171,216,235,165],"times":[1009,545,726,1251,980],"next_num":5,"trial_type":"ticket-choose","trial_index":46,"time_elapsed":1135053,"internal_node_id":"0.0-46.0"},{"result":175,"points":1,"place":4,"phase":0,"sequence":27,"prices":[130,195,141,155,181,226,150,216,221,175],"times":[1042,553,592,902,664,672,1054,640,633,1053],"next_num":10,"trial_type":"ticket-choose","trial_index":47,"time_elapsed":1146608,"internal_node_id":"0.0-47.0"},{"result":146,"points":1,"place":2,"phase":0,"sequence":28,"prices":[160,180,130,251,176,195,170,146,105,200],"times":[930,608,2075,601,616,584,608,1251],"next_num":8,"trial_type":"ticket-choose","trial_index":48,"time_elapsed":1157570,"internal_node_id":"0.0-48.0"},{"result":130,"points":2,"place":1,"phase":0,"sequence":29,"prices":[156,181,130,255,175,200,170,150,111,205],"times":[852,545,1124],"next_num":3,"trial_type":"ticket-choose","trial_index":49,"time_elapsed":1162410,"internal_node_id":"0.0-49.0"},{"result":86,"points":3,"place":0,"phase":0,"sequence":30,"prices":[86,180,130,151,170,271,145,191,220,160],"times":[1249],"next_num":1,"trial_type":"ticket-choose","trial_index":50,"time_elapsed":1165544,"internal_node_id":"0.0-50.0"},{"result":95,"points":3,"place":0,"phase":0,"sequence":31,"prices":[95,205,106,151,186,271,145,210,215,181],"times":[1041],"next_num":1,"trial_type":"ticket-choose","trial_index":51,"time_elapsed":1168829,"internal_node_id":"0.0-51.0"},{"result":120,"points":2,"place":1,"phase":0,"sequence":32,"prices":[226,205,125,120,115,135,180,145,150,220],"times":[930,529,759,990],"next_num":4,"trial_type":"ticket-choose","trial_index":52,"time_elapsed":1174457,"internal_node_id":"0.0-52.0"},{"result":75,"points":3,"place":0,"phase":0,"sequence":33,"prices":[75,171,131,151,161,250,145,190,206,156],"times":[962],"next_num":1,"trial_type":"ticket-choose","trial_index":53,"time_elapsed":1177289,"internal_node_id":"0.0-53.0"},{"result":120,"points":2,"place":1,"phase":0,"sequence":34,"prices":[145,171,161,245,165,191,120,140,100,196],"times":[686,545,569,537,505,529,995],"next_num":7,"trial_type":"ticket-choose","trial_index":54,"time_elapsed":1184757,"internal_node_id":"0.0-54.0"},{"result":136,"points":1,"place":2,"phase":0,"sequence":35,"prices":[255,166,266,175,136,145,155,61,96,301],"times":[1073,689,583,847,837],"next_num":5,"trial_type":"ticket-choose","trial_index":55,"time_elapsed":1192099,"internal_node_id":"0.0-55.0"},{"result":131,"points":2,"place":1,"phase":0,"sequence":36,"prices":[156,181,171,256,175,200,131,150,110,206],"times":[977,576,577,562,623,633,862],"next_num":7,"trial_type":"ticket-choose","trial_index":56,"time_elapsed":1199995,"internal_node_id":"0.0-56.0"},{"result":165,"points":1,"place":4,"phase":0,"sequence":37,"prices":[66,201,96,150,185,230,121,216,225,165],"times":[1035,576,417,480,497,576,529,505,545,711],"next_num":10,"trial_type":"ticket-choose","trial_index":57,"time_elapsed":1209606,"internal_node_id":"0.0-57.0"},{"result":146,"points":1,"place":2,"phase":0,"sequence":38,"prices":[161,180,131,251,175,196,171,146,105,201],"times":[898,521,1450,569,592,601,703,847],"next_num":8,"trial_type":"ticket-choose","trial_index":58,"time_elapsed":1218995,"internal_node_id":"0.0-58.0"},{"result":126,"points":2,"place":1,"phase":0,"sequence":39,"prices":[151,175,166,251,170,195,126,146,105,201],"times":[645,583,833,615,633,576,950],"next_num":7,"trial_type":"ticket-choose","trial_index":59,"time_elapsed":1226900,"internal_node_id":"0.0-59.0"},{"result":131,"points":2,"place":1,"phase":0,"sequence":40,"prices":[156,181,131,256,176,200,171,151,111,206],"times":[1414,529,839],"next_num":3,"trial_type":"ticket-choose","trial_index":60,"time_elapsed":1231907,"internal_node_id":"0.0-60.0"},{"result":51,"points":3,"place":0,"phase":0,"sequence":41,"prices":[221,175,51,196,146,130,166,80,126,156],"times":[686,695,823],"next_num":3,"trial_type":"ticket-choose","trial_index":61,"time_elapsed":1236329,"internal_node_id":"0.0-61.0"},{"result":81,"points":3,"place":0,"phase":0,"sequence":42,"prices":[155,245,155,81,180,130,156,306,166,115],"times":[1478,536,624,966],"next_num":4,"trial_type":"ticket-choose","trial_index":62,"time_elapsed":1242527,"internal_node_id":"0.0-62.0"},{"result":136,"points":3,"place":0,"phase":0,"sequence":43,"prices":[246,145,155,191,176,270,185,136,160,215],"times":[652,624,767,664,712,577,632,886],"next_num":8,"trial_type":"ticket-choose","trial_index":63,"time_elapsed":1251352,"internal_node_id":"0.0-63.0"},{"result":111,"points":3,"place":0,"phase":0,"sequence":44,"prices":[175,211,266,286,111,216,220,245,230,165],"times":[772,616,505,521,956],"next_num":5,"trial_type":"ticket-choose","trial_index":64,"time_elapsed":1257463,"internal_node_id":"0.0-64.0"},{"result":111,"points":3,"place":0,"phase":0,"sequence":45,"prices":[111,231,131,146,171,295,141,241,271,150],"times":[2232],"next_num":1,"trial_type":"ticket-choose","trial_index":65,"time_elapsed":1261638,"internal_node_id":"0.0-65.0"},{"result":120,"points":3,"place":0,"phase":0,"sequence":46,"prices":[120,221,135,185,200,261,181,251,255,196],"times":[1572],"next_num":1,"trial_type":"ticket-choose","trial_index":66,"time_elapsed":1265106,"internal_node_id":"0.0-66.0"},{"result":106,"points":3,"place":0,"phase":0,"sequence":47,"prices":[180,106,166,245,211,261,215,125,135,190],"times":[985,823],"next_num":2,"trial_type":"ticket-choose","trial_index":67,"time_elapsed":1268860,"internal_node_id":"0.0-67.0"},{"result":126,"points":2,"place":1,"phase":0,"sequence":48,"prices":[150,175,166,251,170,196,126,145,105,201],"times":[844,568,600,568,647,681,980],"next_num":7,"trial_type":"ticket-choose","trial_index":68,"time_elapsed":1276797,"internal_node_id":"0.0-68.0"},{"result":81,"points":3,"place":0,"phase":0,"sequence":49,"prices":[81,205,130,151,191,261,145,210,250,165],"times":[899],"next_num":1,"trial_type":"ticket-choose","trial_index":69,"time_elapsed":1280709,"internal_node_id":"0.0-69.0"},{"responses":[{"value":0,"offby":-1,"category":"$30 - $75","category_index":0},{"value":3,"offby":1,"category":"$76 - $120","category_index":1},{"value":4,"offby":0,"category":"$121 - $165","category_index":2},{"value":7,"offby":1,"category":"$166 - $210","category_index":3},{"value":4,"offby":-2,"category":"$211 - $255","category_index":4},{"value":2,"offby":1,"category":"$256 - $300","category_index":5},{"value":0,"offby":0,"category":"$301 - $345","category_index":6}],"phase":0,"number":1,"trial_type":"bar-choose","trial_index":70,"time_elapsed":1316010,"internal_node_id":"0.0-70.0"},{"rt":11042,"url":"\/tickets\/utils\/start2.html","trial_type":"html","trial_index":71,"time_elapsed":1328160,"internal_node_id":"0.0-71.0"},{"trial_type":"number-animation","trial_index":72,"time_elapsed":1384381,"internal_node_id":"0.0-72.0"},{"phase":1,"sequence":0,"avg":180,"response":180,"trial_type":"training_avg","trial_index":73,"time_elapsed":1405777,"internal_node_id":"0.0-73.0"},{"trial_type":"number-animation","trial_index":74,"time_elapsed":1457839,"internal_node_id":"0.0-74.0"},{"phase":1,"sequence":1,"avg":178,"response":178,"trial_type":"training_avg","trial_index":75,"time_elapsed":1466101,"internal_node_id":"0.0-75.0"},{"trial_type":"number-animation","trial_index":76,"time_elapsed":1520211,"internal_node_id":"0.0-76.0"},{"phase":1,"sequence":2,"avg":176,"response":176,"trial_type":"training_avg","trial_index":77,"time_elapsed":1531265,"internal_node_id":"0.0-77.0"},{"trial_type":"number-animation","trial_index":78,"time_elapsed":1587463,"internal_node_id":"0.0-78.0"},{"phase":1,"sequence":3,"avg":178,"response":178,"trial_type":"training_avg","trial_index":79,"time_elapsed":1597487,"internal_node_id":"0.0-79.0"},{"trial_type":"number-animation","trial_index":80,"time_elapsed":1646128,"internal_node_id":"0.0-80.0"},{"phase":1,"sequence":4,"avg":179,"response":179,"trial_type":"training_avg","trial_index":81,"time_elapsed":1655898,"internal_node_id":"0.0-81.0"},{"responses":[{"value":1,"offby":1,"category":"$140 - $250","category_index":0},{"value":2,"offby":2,"category":"$151 - $160","category_index":1},{"value":4,"offby":0,"category":"$161 - $170","category_index":2},{"value":6,"offby":0,"category":"$171 - $180","category_index":3},{"value":4,"offby":-3,"category":"$181 - $190","category_index":4},{"value":2,"offby":-1,"category":"$191 - $200","category_index":5},{"value":1,"offby":1,"category":"$201 - $210","category_index":6}],"phase":1,"number":0,"trial_type":"bar-choose","trial_index":82,"time_elapsed":1692446,"internal_node_id":"0.0-82.0"},{"rt":50265,"url":"\/tickets\/utils\/testing2.html","trial_type":"html","trial_index":83,"time_elapsed":1743817,"internal_node_id":"0.0-83.0"},{"phase":1,"order":[16,3,43,47,49,14,37,45,0,34,5,40,12,44,32,21,1,18,19,4,23,13,20,2,17,26,38,33,9,11,24,25,36,28,22,39,15,31,8,7,10,35,42,48,46,29,27,41,6,30],"trial_type":"store_order","trial_index":84,"time_elapsed":1744819,"internal_node_id":"0.0-84.0"},{"result":164,"points":3,"place":0,"phase":1,"sequence":0,"prices":[175,179,169,193,178,182,177,172,164,183],"times":[1265,687,726,632,798,601,608,832,966],"next_num":9,"trial_type":"ticket-choose","trial_index":85,"time_elapsed":1755499,"internal_node_id":"0.0-85.0"},{"result":173,"points":1,"place":2,"phase":1,"sequence":1,"prices":[176,180,170,194,179,183,178,173,165,184],"times":[921,544,489,609,592,561,521,1259],"next_num":8,"trial_type":"ticket-choose","trial_index":86,"time_elapsed":1764483,"internal_node_id":"0.0-86.0"},{"result":181,"points":1,"place":4,"phase":1,"sequence":2,"prices":[165,187,173,177,186,196,176,191,192,181],"times":[1201,545,584,513,601,561,553,568,576,2282],"next_num":10,"trial_type":"ticket-choose","trial_index":87,"time_elapsed":1776228,"internal_node_id":"0.0-87.0"},{"result":163,"points":3,"place":0,"phase":1,"sequence":3,"prices":[163,185,165,174,181,198,173,186,187,180],"times":[1485],"next_num":1,"trial_type":"ticket-choose","trial_index":88,"time_elapsed":1779490,"internal_node_id":"0.0-88.0"},{"result":170,"points":2,"place":1,"phase":1,"sequence":4,"prices":[175,180,178,195,179,184,170,174,166,185],"times":[987,560,608,546,560,600,855],"next_num":7,"trial_type":"ticket-choose","trial_index":89,"time_elapsed":1787300,"internal_node_id":"0.0-89.0"},{"result":170,"points":3,"place":0,"phase":1,"sequence":5,"prices":[181,179,199,188,170,172,178,187,191,177],"times":[804,656,584,655,903],"next_num":5,"trial_type":"ticket-choose","trial_index":90,"time_elapsed":1793498,"internal_node_id":"0.0-90.0"},{"result":174,"points":1,"place":4,"phase":1,"sequence":6,"prices":[166,190,170,173,178,203,172,192,198,174],"times":[533,545,504,649,490,647,656,530,536,1188],"next_num":10,"trial_type":"ticket-choose","trial_index":91,"time_elapsed":1803467,"internal_node_id":"0.0-91.0"},{"result":168,"points":2,"place":1,"phase":1,"sequence":7,"prices":[174,178,168,192,177,181,176,171,163,182],"times":[851,529,885],"next_num":3,"trial_type":"ticket-choose","trial_index":92,"time_elapsed":1808053,"internal_node_id":"0.0-92.0"},{"result":173,"points":1,"place":2,"phase":1,"sequence":8,"prices":[171,180,172,174,179,188,173,183,186,175],"times":[1232,544,663,624,624,537,934],"next_num":7,"trial_type":"ticket-choose","trial_index":93,"time_elapsed":1816251,"internal_node_id":"0.0-93.0"},{"result":168,"points":2,"place":1,"phase":1,"sequence":9,"prices":[173,178,168,193,177,182,176,172,164,183],"times":[986,561,862],"next_num":3,"trial_type":"ticket-choose","trial_index":94,"time_elapsed":1820815,"internal_node_id":"0.0-94.0"},{"result":167,"points":3,"place":0,"phase":1,"sequence":10,"prices":[179,174,199,178,196,167,170,184,177,190],"times":[679,1877,568,624,536,879],"next_num":6,"trial_type":"ticket-choose","trial_index":95,"time_elapsed":1828806,"internal_node_id":"0.0-95.0"},{"result":170,"points":2,"place":1,"phase":1,"sequence":11,"prices":[175,180,170,195,179,184,178,174,166,185],"times":[1763,537,2531],"next_num":3,"trial_type":"ticket-choose","trial_index":96,"time_elapsed":1835910,"internal_node_id":"0.0-96.0"},{"result":170,"points":2,"place":1,"phase":1,"sequence":12,"prices":[176,180,178,194,179,183,170,173,165,184],"times":[835,538,592,593,561,592,942],"next_num":7,"trial_type":"ticket-choose","trial_index":97,"time_elapsed":1843569,"internal_node_id":"0.0-97.0"},{"result":168,"points":2,"place":1,"phase":1,"sequence":13,"prices":[173,178,176,193,177,182,168,172,164,183],"times":[1104,591,624,561,592,578,909],"next_num":7,"trial_type":"ticket-choose","trial_index":98,"time_elapsed":1851520,"internal_node_id":"0.0-98.0"},{"result":165,"points":3,"place":0,"phase":1,"sequence":14,"prices":[174,179,169,194,178,183,177,173,165,184],"times":[844,442,672,846,664,601,632,918,877],"next_num":9,"trial_type":"ticket-choose","trial_index":99,"time_elapsed":1862346,"internal_node_id":"0.0-99.0"},{"result":169,"points":2,"place":1,"phase":1,"sequence":15,"prices":[174,179,177,194,178,183,169,173,165,184],"times":[931,560,545,1482,609,577,823],"next_num":7,"trial_type":"ticket-choose","trial_index":100,"time_elapsed":1870862,"internal_node_id":"0.0-100.0"},{"result":170,"points":2,"place":1,"phase":1,"sequence":16,"prices":[176,180,178,194,179,183,170,173,165,184],"times":[684,752,592,602,592,617,1140],"next_num":7,"trial_type":"ticket-choose","trial_index":101,"time_elapsed":1878892,"internal_node_id":"0.0-101.0"},{"result":171,"points":1,"place":2,"phase":1,"sequence":17,"prices":[195,177,197,179,171,173,175,156,163,204],"times":[789,1814,536,561,862],"next_num":5,"trial_type":"ticket-choose","trial_index":102,"time_elapsed":1886376,"internal_node_id":"0.0-102.0"},{"result":169,"points":1,"place":2,"phase":1,"sequence":18,"prices":[189,185,169,168,167,171,180,173,174,188],"times":[1208,616,934],"next_num":3,"trial_type":"ticket-choose","trial_index":103,"time_elapsed":1891401,"internal_node_id":"0.0-103.0"},{"result":162,"points":3,"place":0,"phase":1,"sequence":19,"prices":[179,174,172,162,202,184,165,197,185,169],"times":[1018,569,519,974],"next_num":4,"trial_type":"ticket-choose","trial_index":104,"time_elapsed":1897282,"internal_node_id":"0.0-104.0"},{"result":169,"points":2,"place":1,"phase":1,"sequence":20,"prices":[174,179,177,194,178,183,169,173,165,184],"times":[1302,1108,569,551,505,472,840],"next_num":7,"trial_type":"ticket-choose","trial_index":105,"time_elapsed":1905694,"internal_node_id":"0.0-105.0"},{"result":169,"points":2,"place":1,"phase":1,"sequence":21,"prices":[175,179,177,193,178,182,169,172,164,183],"times":[739,720,957,529,585,512,807],"next_num":7,"trial_type":"ticket-choose","trial_index":106,"time_elapsed":1913710,"internal_node_id":"0.0-106.0"},{"result":168,"points":2,"place":1,"phase":1,"sequence":22,"prices":[181,175,182,168,183,173,153,170,193,179],"times":[1072,1449,664,839],"next_num":4,"trial_type":"ticket-choose","trial_index":107,"time_elapsed":1920185,"internal_node_id":"0.0-107.0"},{"result":169,"points":2,"place":1,"phase":1,"sequence":23,"prices":[175,179,177,193,178,182,169,172,164,183],"times":[550,576,521,561,490,553,1012],"next_num":7,"trial_type":"ticket-choose","trial_index":108,"time_elapsed":1927464,"internal_node_id":"0.0-108.0"},{"result":179,"points":1,"place":4,"phase":1,"sequence":24,"prices":[170,183,172,175,180,189,174,187,188,179],"times":[668,584,2933,545,615,537,665,584,553,752],"next_num":10,"trial_type":"ticket-choose","trial_index":109,"time_elapsed":1939527,"internal_node_id":"0.0-109.0"},{"result":183,"points":1,"place":4,"phase":1,"sequence":25,"prices":[168,188,171,181,184,196,180,194,195,183],"times":[1026,465,1155,640,498,536,505,530,529,752],"next_num":10,"trial_type":"ticket-choose","trial_index":110,"time_elapsed":1950003,"internal_node_id":"0.0-110.0"},{"result":165,"points":2,"place":1,"phase":1,"sequence":26,"prices":[181,180,191,186,165,197,159,167,194,185],"times":[858,520,672,577,838],"next_num":5,"trial_type":"ticket-choose","trial_index":111,"time_elapsed":1956049,"internal_node_id":"0.0-111.0"},{"result":196,"points":0,"place":8,"phase":1,"sequence":27,"prices":[175,150,164,155,171,199,158,180,184,196],"times":[818,489,496,712,562,544,1013,593,545,767],"next_num":10,"trial_type":"ticket-choose","trial_index":112,"time_elapsed":1966391,"internal_node_id":"0.0-112.0"},{"result":160,"points":3,"place":0,"phase":1,"sequence":28,"prices":[175,193,175,160,180,170,175,205,177,167],"times":[762,846,1120,822],"next_num":4,"trial_type":"ticket-choose","trial_index":113,"time_elapsed":1972414,"internal_node_id":"0.0-113.0"},{"result":165,"points":3,"place":0,"phase":1,"sequence":29,"prices":[180,165,177,193,186,196,187,169,171,182],"times":[1036,886],"next_num":2,"trial_type":"ticket-choose","trial_index":114,"time_elapsed":1976367,"internal_node_id":"0.0-114.0"},{"result":170,"points":2,"place":1,"phase":1,"sequence":30,"prices":[175,189,193,170,179,165,180,186,177,184],"times":[763,545,577,878],"next_num":4,"trial_type":"ticket-choose","trial_index":115,"time_elapsed":1981526,"internal_node_id":"0.0-115.0"},{"result":168,"points":2,"place":1,"phase":1,"sequence":31,"prices":[174,178,176,192,177,181,168,171,163,182],"times":[2511,504,600,569,559,521,2291],"next_num":7,"trial_type":"ticket-choose","trial_index":116,"time_elapsed":1992106,"internal_node_id":"0.0-116.0"},{"result":157,"points":2,"place":1,"phase":1,"sequence":32,"prices":[188,191,179,157,181,164,166,156,175,182],"times":[646,591,783,848],"next_num":4,"trial_type":"ticket-choose","trial_index":117,"time_elapsed":1997376,"internal_node_id":"0.0-117.0"},{"result":166,"points":3,"place":0,"phase":1,"sequence":33,"prices":[179,186,197,201,166,187,188,193,190,177],"times":[733,537,545,592,856],"next_num":5,"trial_type":"ticket-choose","trial_index":118,"time_elapsed":2003216,"internal_node_id":"0.0-118.0"},{"result":154,"points":3,"place":0,"phase":1,"sequence":34,"prices":[188,179,154,183,173,170,177,160,169,175],"times":[574,774,1236],"next_num":3,"trial_type":"ticket-choose","trial_index":119,"time_elapsed":2007923,"internal_node_id":"0.0-119.0"},{"result":168,"points":2,"place":1,"phase":1,"sequence":35,"prices":[174,178,176,192,177,181,168,171,163,182],"times":[620,601,576,529,625,568,1323],"next_num":7,"trial_type":"ticket-choose","trial_index":120,"time_elapsed":2015773,"internal_node_id":"0.0-120.0"},{"result":177,"points":1,"place":4,"phase":1,"sequence":36,"prices":[157,184,163,174,181,190,168,187,189,177],"times":[644,648,497,593,528,530,973,575,610,742],"next_num":10,"trial_type":"ticket-choose","trial_index":121,"time_elapsed":2025842,"internal_node_id":"0.0-121.0"},{"result":171,"points":3,"place":0,"phase":1,"sequence":37,"prices":[193,173,175,182,179,198,181,171,176,187],"times":[899,1791,712,759,608,545,561,989],"next_num":8,"trial_type":"ticket-choose","trial_index":122,"time_elapsed":2036089,"internal_node_id":"0.0-122.0"},{"result":172,"points":1,"place":2,"phase":1,"sequence":38,"prices":[173,178,168,193,177,182,176,172,164,183],"times":[921,520,496,608,607,624,552,823],"next_num":8,"trial_type":"ticket-choose","trial_index":123,"time_elapsed":2044630,"internal_node_id":"0.0-123.0"},{"result":169,"points":2,"place":1,"phase":1,"sequence":39,"prices":[175,179,169,193,178,182,177,172,164,183],"times":[984,521,847],"next_num":3,"trial_type":"ticket-choose","trial_index":124,"time_elapsed":2049121,"internal_node_id":"0.0-124.0"},{"result":168,"points":2,"place":1,"phase":1,"sequence":40,"prices":[173,178,176,193,177,182,168,172,164,183],"times":[613,568,482,545,703,553,910],"next_num":7,"trial_type":"ticket-choose","trial_index":125,"time_elapsed":2056461,"internal_node_id":"0.0-125.0"},{"result":168,"points":2,"place":1,"phase":1,"sequence":41,"prices":[174,178,168,192,177,181,176,171,163,182],"times":[627,504,877],"next_num":3,"trial_type":"ticket-choose","trial_index":126,"time_elapsed":2060602,"internal_node_id":"0.0-126.0"},{"result":175,"points":1,"place":4,"phase":1,"sequence":42,"prices":[159,178,170,174,176,194,173,182,185,175],"times":[583,480,600,569,456,569,1498,711,608,729],"next_num":10,"trial_type":"ticket-choose","trial_index":127,"time_elapsed":2071119,"internal_node_id":"0.0-127.0"},{"result":161,"points":3,"place":0,"phase":1,"sequence":43,"prices":[161,180,170,174,178,198,173,182,188,176],"times":[1662],"next_num":1,"trial_type":"ticket-choose","trial_index":128,"time_elapsed":2074690,"internal_node_id":"0.0-128.0"},{"result":170,"points":2,"place":1,"phase":1,"sequence":44,"prices":[175,180,178,195,179,184,170,174,166,185],"times":[850,591,593,562,513,568,879],"next_num":7,"trial_type":"ticket-choose","trial_index":129,"time_elapsed":2082206,"internal_node_id":"0.0-129.0"},{"result":174,"points":2,"place":1,"phase":1,"sequence":45,"prices":[180,175,173,177,191,190,184,196,174,181],"times":[986,601,680,591,624,609,544,537,1458],"next_num":9,"trial_type":"ticket-choose","trial_index":130,"time_elapsed":2092253,"internal_node_id":"0.0-130.0"},{"result":170,"points":2,"place":1,"phase":1,"sequence":46,"prices":[176,180,170,194,179,183,178,173,165,184],"times":[699,584,974],"next_num":3,"trial_type":"ticket-choose","trial_index":131,"time_elapsed":2096722,"internal_node_id":"0.0-131.0"},{"result":170,"points":2,"place":1,"phase":1,"sequence":47,"prices":[175,180,170,195,179,184,178,174,166,185],"times":[519,964,870],"next_num":3,"trial_type":"ticket-choose","trial_index":132,"time_elapsed":2101365,"internal_node_id":"0.0-132.0"},{"result":177,"points":1,"place":4,"phase":1,"sequence":48,"prices":[160,185,170,174,182,196,173,186,194,177],"times":[525,1005,680,569,489,728,727,593,543,750],"next_num":10,"trial_type":"ticket-choose","trial_index":133,"time_elapsed":2111840,"internal_node_id":"0.0-133.0"},{"result":169,"points":2,"place":1,"phase":1,"sequence":49,"prices":[174,179,169,194,178,183,177,173,165,184],"times":[764,552,879],"next_num":3,"trial_type":"ticket-choose","trial_index":134,"time_elapsed":2116270,"internal_node_id":"0.0-134.0"},{"responses":[{"value":1,"offby":1,"category":"$140 - $250","category_index":0},{"value":2,"offby":2,"category":"$151 - $160","category_index":1},{"value":3,"offby":-1,"category":"$161 - $170","category_index":2},{"value":4,"offby":-2,"category":"$171 - $180","category_index":3},{"value":3,"offby":-4,"category":"$181 - $190","category_index":4},{"value":2,"offby":-1,"category":"$191 - $200","category_index":5},{"value":1,"offby":1,"category":"$201 - $210","category_index":6}],"phase":1,"number":1,"trial_type":"bar-choose","trial_index":135,"time_elapsed":2136104,"internal_node_id":"0.0-135.0"},{"special_comment":"Nothingin particular. ","trial_type":"special_sequence","trial_index":136,"time_elapsed":2144858,"internal_node_id":"0.0-136.0"},{"during":"Nothing","bonus":272,"trial_type":"final","trial_index":137,"time_elapsed":2173739,"internal_node_id":"0.0-137.0"}],"bonus":272}