{"start_time":"2017-02-24 16:08:54","end_time":"2017-02-24 16:30:28","points_phase0":105,"points_phase1":97,"phase_order":1,"age":43,"gender":"f","tries":1,"during":"Nothing","worker_id":"A2O2Q0LVWOWJ1G","assignment_id":"3IJXV6UZ1YCSF7BN03LCOPHBCUSIRM","data":[{"rt":10516,"url":"\/tickets\/utils\/consent.html","trial_type":"html","trial_index":0,"time_elapsed":10798,"internal_node_id":"0.0-0.0"},{"age":43,"gender":"f","trial_type":"age","trial_index":1,"time_elapsed":15930,"internal_node_id":"0.0-1.0"},{"worker_id":"A2O2Q0LVWOWJ1G","trial_type":"workerid","trial_index":2,"time_elapsed":27622,"internal_node_id":"0.0-2.0"},{"tries":1,"trial_type":"instructions_check","trial_index":3,"time_elapsed":43415,"internal_node_id":"0.0-3.0"},{"rt":10900,"url":"\/tickets\/utils\/start.html","trial_type":"html","trial_index":4,"time_elapsed":55499,"internal_node_id":"0.0-4.0"},{"trial_type":"number-animation","trial_index":5,"time_elapsed":89647,"internal_node_id":"0.0-5.0"},{"phase":0,"sequence":0,"avg":166,"response":131,"trial_type":"training_avg","trial_index":6,"time_elapsed":108424,"internal_node_id":"0.0-6.0"},{"trial_type":"number-animation","trial_index":7,"time_elapsed":140391,"internal_node_id":"0.0-7.0"},{"phase":0,"sequence":1,"avg":198,"response":198,"trial_type":"training_avg","trial_index":8,"time_elapsed":154214,"internal_node_id":"0.0-8.0"},{"trial_type":"number-animation","trial_index":9,"time_elapsed":178398,"internal_node_id":"0.0-9.0"},{"phase":0,"sequence":2,"avg":177,"response":175,"trial_type":"training_avg","trial_index":10,"time_elapsed":190591,"internal_node_id":"0.0-10.0"},{"trial_type":"number-animation","trial_index":11,"time_elapsed":215157,"internal_node_id":"0.0-11.0"},{"phase":0,"sequence":3,"avg":190,"response":197,"trial_type":"training_avg","trial_index":12,"time_elapsed":233064,"internal_node_id":"0.0-12.0"},{"trial_type":"number-animation","trial_index":13,"time_elapsed":257625,"internal_node_id":"0.0-13.0"},{"phase":0,"sequence":4,"avg":201,"response":200,"trial_type":"training_avg","trial_index":14,"time_elapsed":270011,"internal_node_id":"0.0-14.0"},{"responses":[{"value":0,"offby":-1,"category":"$30 - $75","category_index":0},{"value":5,"offby":3,"category":"$76 - $120","category_index":1},{"value":8,"offby":4,"category":"$121 - $165","category_index":2},{"value":5,"offby":-1,"category":"$166 - $210","category_index":3},{"value":2,"offby":-4,"category":"$211 - $255","category_index":4},{"value":0,"offby":-1,"category":"$256 - $300","category_index":5},{"value":0,"offby":0,"category":"$301 - $345","category_index":6}],"phase":0,"number":0,"trial_type":"bar-choose","trial_index":15,"time_elapsed":322765,"internal_node_id":"0.0-15.0"},{"rt":14905,"url":"\/tickets\/\/utils\/testing.html","trial_type":"html","trial_index":16,"time_elapsed":338832,"internal_node_id":"0.0-16.0"},{"phase":0,"order":[11,22,24,23,0,17,34,1,7,31,4,41,37,44,27,12,6,14,16,29,38,18,13,40,20,15,5,10,21,35,39,33,9,46,45,36,32,26,48,3,8,19,2,28,25,42,47,43,30,49],"trial_type":"store_order","trial_index":17,"time_elapsed":339833,"internal_node_id":"0.0-17.0"},{"result":126,"points":3,"place":0,"phase":0,"sequence":-1,"prices":[184,180,224,165,181,199,185,193,218,126],"times":[2811,3098,2224,1856,1504,1039,787,887,823,3339],"next_num":10,"trial_type":"ticket-choose","trial_index":18,"time_elapsed":362620,"internal_node_id":"0.0-18.0"},{"rt":13335,"url":"\/tickets\/utils\/testing_after.html","trial_type":"html","trial_index":19,"time_elapsed":377100,"internal_node_id":"0.0-19.0"},{"result":126,"points":2,"place":1,"phase":0,"sequence":0,"prices":[151,176,126,251,170,196,165,145,105,201],"times":[1094,1044,2354],"next_num":3,"trial_type":"ticket-choose","trial_index":20,"time_elapsed":385394,"internal_node_id":"0.0-20.0"},{"result":120,"points":2,"place":1,"phase":0,"sequence":1,"prices":[146,171,120,245,165,191,160,140,100,196],"times":[625,465,1322],"next_num":3,"trial_type":"ticket-choose","trial_index":21,"time_elapsed":390948,"internal_node_id":"0.0-21.0"},{"result":65,"points":2,"place":1,"phase":0,"sequence":2,"prices":[220,236,176,65,185,101,110,61,156,191],"times":[522,427,498,1193],"next_num":4,"trial_type":"ticket-choose","trial_index":22,"time_elapsed":397148,"internal_node_id":"0.0-22.0"},{"result":175,"points":1,"place":4,"phase":0,"sequence":3,"prices":[130,195,141,155,181,226,150,216,221,175],"times":[468,445,483,482,458,453,651,565,797,1193],"next_num":11,"trial_type":"ticket-choose","trial_index":23,"time_elapsed":407760,"internal_node_id":"0.0-23.0"},{"result":131,"points":2,"place":1,"phase":0,"sequence":4,"prices":[156,181,131,256,176,200,171,151,111,206],"times":[504,514,1164],"next_num":3,"trial_type":"ticket-choose","trial_index":24,"time_elapsed":413008,"internal_node_id":"0.0-24.0"},{"result":145,"points":1,"place":2,"phase":0,"sequence":5,"prices":[150,175,166,251,170,196,126,145,105,201],"times":[456,433,641,509,497,565,517,1981],"next_num":8,"trial_type":"ticket-choose","trial_index":25,"time_elapsed":422549,"internal_node_id":"0.0-25.0"},{"result":136,"points":3,"place":0,"phase":0,"sequence":6,"prices":[246,145,155,191,176,270,185,136,160,215],"times":[610,481,970,523,485,568,848,1166],"next_num":8,"trial_type":"ticket-choose","trial_index":26,"time_elapsed":434055,"internal_node_id":"0.0-26.0"},{"result":130,"points":2,"place":1,"phase":0,"sequence":7,"prices":[155,225,245,130,176,106,180,211,165,200],"times":[554,488,533,1321],"next_num":4,"trial_type":"ticket-choose","trial_index":27,"time_elapsed":440225,"internal_node_id":"0.0-27.0"},{"result":130,"points":2,"place":1,"phase":0,"sequence":8,"prices":[160,180,130,251,176,195,170,146,105,200],"times":[401,509,1057],"next_num":3,"trial_type":"ticket-choose","trial_index":28,"time_elapsed":445142,"internal_node_id":"0.0-28.0"},{"result":66,"points":3,"place":0,"phase":0,"sequence":9,"prices":[66,201,96,150,185,230,121,216,225,165],"times":[1081],"next_num":1,"trial_type":"ticket-choose","trial_index":29,"time_elapsed":449471,"internal_node_id":"0.0-29.0"},{"result":126,"points":2,"place":1,"phase":0,"sequence":10,"prices":[156,176,165,246,171,190,126,141,101,196],"times":[528,468,498,505,584,497,1438],"next_num":7,"trial_type":"ticket-choose","trial_index":30,"time_elapsed":457916,"internal_node_id":"0.0-30.0"},{"result":130,"points":3,"place":0,"phase":0,"sequence":11,"prices":[185,175,276,221,130,141,171,216,235,165],"times":[582,410,400,435,1038],"next_num":5,"trial_type":"ticket-choose","trial_index":31,"time_elapsed":464264,"internal_node_id":"0.0-31.0"},{"result":111,"points":3,"place":0,"phase":0,"sequence":12,"prices":[175,211,266,286,111,216,220,245,230,165],"times":[407,387,428,439,1037],"next_num":5,"trial_type":"ticket-choose","trial_index":32,"time_elapsed":470207,"internal_node_id":"0.0-32.0"},{"result":125,"points":2,"place":1,"phase":0,"sequence":13,"prices":[155,175,166,245,171,190,125,140,101,196],"times":[495,544,482,479,520,459,994],"next_num":7,"trial_type":"ticket-choose","trial_index":33,"time_elapsed":477775,"internal_node_id":"0.0-33.0"},{"result":120,"points":2,"place":1,"phase":0,"sequence":14,"prices":[150,171,120,241,165,185,160,135,96,190],"times":[499,405,1176],"next_num":3,"trial_type":"ticket-choose","trial_index":34,"time_elapsed":482622,"internal_node_id":"0.0-34.0"},{"result":121,"points":2,"place":1,"phase":0,"sequence":15,"prices":[150,170,160,240,166,185,121,136,95,191],"times":[436,461,441,488,645,501,1042],"next_num":7,"trial_type":"ticket-choose","trial_index":35,"time_elapsed":490306,"internal_node_id":"0.0-35.0"},{"result":51,"points":3,"place":0,"phase":0,"sequence":16,"prices":[221,175,51,196,146,130,166,80,126,156],"times":[460,457,1432],"next_num":3,"trial_type":"ticket-choose","trial_index":36,"time_elapsed":495444,"internal_node_id":"0.0-36.0"},{"result":125,"points":1,"place":2,"phase":0,"sequence":17,"prices":[226,205,125,120,115,135,180,145,150,220],"times":[513,458,1198],"next_num":3,"trial_type":"ticket-choose","trial_index":37,"time_elapsed":500582,"internal_node_id":"0.0-37.0"},{"result":120,"points":2,"place":1,"phase":0,"sequence":18,"prices":[145,170,160,245,165,190,120,141,100,195],"times":[431,545,613,512,546,443,1099],"next_num":7,"trial_type":"ticket-choose","trial_index":38,"time_elapsed":508384,"internal_node_id":"0.0-38.0"},{"result":185,"points":1,"place":4,"phase":0,"sequence":19,"prices":[105,216,146,165,210,260,161,235,241,185],"times":[487,536,426,536,494,509,542,544,829,907],"next_num":11,"trial_type":"ticket-choose","trial_index":39,"time_elapsed":518512,"internal_node_id":"0.0-39.0"},{"result":86,"points":3,"place":0,"phase":0,"sequence":20,"prices":[86,180,130,151,170,271,145,191,220,160],"times":[1073],"next_num":1,"trial_type":"ticket-choose","trial_index":40,"time_elapsed":521885,"internal_node_id":"0.0-40.0"},{"result":91,"points":3,"place":0,"phase":0,"sequence":21,"prices":[176,150,141,91,290,201,106,266,206,126],"times":[572,838,887,1018],"next_num":4,"trial_type":"ticket-choose","trial_index":41,"time_elapsed":528654,"internal_node_id":"0.0-41.0"},{"result":145,"points":1,"place":2,"phase":0,"sequence":22,"prices":[135,180,141,151,175,220,145,196,211,155],"times":[585,547,482,698,499,524,1491],"next_num":7,"trial_type":"ticket-choose","trial_index":42,"time_elapsed":536924,"internal_node_id":"0.0-42.0"},{"result":75,"points":3,"place":0,"phase":0,"sequence":23,"prices":[75,171,131,151,161,250,145,190,206,156],"times":[1120],"next_num":1,"trial_type":"ticket-choose","trial_index":43,"time_elapsed":540299,"internal_node_id":"0.0-43.0"},{"result":121,"points":2,"place":1,"phase":0,"sequence":24,"prices":[146,170,121,245,166,190,161,141,100,195],"times":[560,479,1152],"next_num":3,"trial_type":"ticket-choose","trial_index":44,"time_elapsed":545016,"internal_node_id":"0.0-44.0"},{"result":130,"points":2,"place":1,"phase":0,"sequence":25,"prices":[156,181,130,255,175,200,170,150,111,205],"times":[581,769,1162],"next_num":3,"trial_type":"ticket-choose","trial_index":45,"time_elapsed":550270,"internal_node_id":"0.0-45.0"},{"result":121,"points":2,"place":1,"phase":0,"sequence":26,"prices":[150,171,121,241,165,185,160,136,95,191],"times":[539,456,1182],"next_num":3,"trial_type":"ticket-choose","trial_index":46,"time_elapsed":555181,"internal_node_id":"0.0-46.0"},{"result":131,"points":2,"place":1,"phase":0,"sequence":27,"prices":[161,180,171,250,176,195,131,146,105,201],"times":[480,503,545,557,553,535,1086],"next_num":7,"trial_type":"ticket-choose","trial_index":47,"time_elapsed":562841,"internal_node_id":"0.0-47.0"},{"result":116,"points":3,"place":0,"phase":0,"sequence":28,"prices":[176,150,276,171,261,116,130,201,166,231],"times":[554,462,477,656,504,1046],"next_num":6,"trial_type":"ticket-choose","trial_index":48,"time_elapsed":569821,"internal_node_id":"0.0-48.0"},{"result":120,"points":2,"place":1,"phase":0,"sequence":29,"prices":[150,170,160,241,166,186,120,136,96,191],"times":[610,521,450,483,623,601,963],"next_num":7,"trial_type":"ticket-choose","trial_index":49,"time_elapsed":577411,"internal_node_id":"0.0-49.0"},{"result":30,"points":3,"place":0,"phase":0,"sequence":30,"prices":[155,30,101,55,136,276,70,181,200,261],"times":[519,1948],"next_num":2,"trial_type":"ticket-choose","trial_index":50,"time_elapsed":582377,"internal_node_id":"0.0-50.0"},{"result":111,"points":3,"place":0,"phase":0,"sequence":31,"prices":[111,231,131,146,171,295,141,241,271,150],"times":[1121],"next_num":1,"trial_type":"ticket-choose","trial_index":51,"time_elapsed":585609,"internal_node_id":"0.0-51.0"},{"result":81,"points":3,"place":0,"phase":0,"sequence":32,"prices":[155,245,155,81,180,130,156,306,166,115],"times":[807,454,561,906],"next_num":4,"trial_type":"ticket-choose","trial_index":52,"time_elapsed":591182,"internal_node_id":"0.0-52.0"},{"result":131,"points":2,"place":1,"phase":0,"sequence":33,"prices":[160,180,170,251,176,195,131,146,105,200],"times":[487,465,488,529,530,491,1056],"next_num":7,"trial_type":"ticket-choose","trial_index":53,"time_elapsed":598569,"internal_node_id":"0.0-53.0"},{"result":140,"points":1,"place":2,"phase":0,"sequence":34,"prices":[156,175,126,246,170,190,165,140,100,196],"times":[461,440,412,454,530,668,580,1023],"next_num":8,"trial_type":"ticket-choose","trial_index":54,"time_elapsed":606729,"internal_node_id":"0.0-54.0"},{"result":126,"points":2,"place":1,"phase":0,"sequence":35,"prices":[151,175,166,251,170,195,126,146,105,201],"times":[610,449,747,472,462,705,960],"next_num":7,"trial_type":"ticket-choose","trial_index":55,"time_elapsed":614607,"internal_node_id":"0.0-55.0"},{"result":120,"points":2,"place":1,"phase":0,"sequence":36,"prices":[145,171,161,245,165,191,120,140,100,196],"times":[501,474,565,620,725,534,967],"next_num":7,"trial_type":"ticket-choose","trial_index":56,"time_elapsed":622362,"internal_node_id":"0.0-56.0"},{"result":106,"points":2,"place":1,"phase":0,"sequence":37,"prices":[95,205,106,151,186,271,145,210,215,181],"times":[475,419,1060],"next_num":3,"trial_type":"ticket-choose","trial_index":57,"time_elapsed":626882,"internal_node_id":"0.0-57.0"},{"result":131,"points":2,"place":1,"phase":0,"sequence":38,"prices":[156,181,171,256,175,200,131,150,110,206],"times":[500,541,467,549,453,580,1133],"next_num":7,"trial_type":"ticket-choose","trial_index":58,"time_elapsed":634424,"internal_node_id":"0.0-58.0"},{"result":150,"points":2,"place":1,"phase":0,"sequence":39,"prices":[181,156,145,165,236,231,201,260,150,185],"times":[399,419,419,456,570,671,569,622,1043],"next_num":9,"trial_type":"ticket-choose","trial_index":59,"time_elapsed":643479,"internal_node_id":"0.0-59.0"},{"result":125,"points":2,"place":1,"phase":0,"sequence":40,"prices":[180,106,166,245,211,261,215,125,135,190],"times":[605,447,539,485,418,499,472,1103],"next_num":8,"trial_type":"ticket-choose","trial_index":60,"time_elapsed":651905,"internal_node_id":"0.0-60.0"},{"result":131,"points":2,"place":1,"phase":0,"sequence":41,"prices":[161,180,131,251,175,196,171,146,105,201],"times":[674,327,1043],"next_num":3,"trial_type":"ticket-choose","trial_index":61,"time_elapsed":656417,"internal_node_id":"0.0-61.0"},{"result":136,"points":1,"place":2,"phase":0,"sequence":42,"prices":[255,166,266,175,136,145,155,61,96,301],"times":[439,607,509,583,1130],"next_num":5,"trial_type":"ticket-choose","trial_index":62,"time_elapsed":662539,"internal_node_id":"0.0-62.0"},{"result":196,"points":1,"place":4,"phase":0,"sequence":43,"prices":[120,221,135,185,200,261,181,251,255,196],"times":[420,472,936,435,588,474,605,518,532,1586],"next_num":10,"trial_type":"ticket-choose","trial_index":63,"time_elapsed":673398,"internal_node_id":"0.0-63.0"},{"result":45,"points":3,"place":0,"phase":0,"sequence":44,"prices":[186,156,191,120,195,145,45,130,246,176],"times":[559,456,453,497,468,515,943],"next_num":7,"trial_type":"ticket-choose","trial_index":64,"time_elapsed":681033,"internal_node_id":"0.0-64.0"},{"result":105,"points":3,"place":0,"phase":0,"sequence":45,"prices":[150,176,126,251,171,195,165,145,105,200],"times":[521,437,399,410,594,442,503,2328,933],"next_num":9,"trial_type":"ticket-choose","trial_index":65,"time_elapsed":691737,"internal_node_id":"0.0-65.0"},{"result":125,"points":2,"place":1,"phase":0,"sequence":46,"prices":[156,175,125,245,170,190,165,140,101,196],"times":[690,403,1339],"next_num":3,"trial_type":"ticket-choose","trial_index":66,"time_elapsed":696562,"internal_node_id":"0.0-66.0"},{"result":165,"points":1,"place":4,"phase":0,"sequence":47,"prices":[81,205,130,151,191,261,145,210,250,165],"times":[599,450,424,454,464,458,713,781,614,960],"next_num":10,"trial_type":"ticket-choose","trial_index":67,"time_elapsed":706657,"internal_node_id":"0.0-67.0"},{"result":106,"points":2,"place":1,"phase":0,"sequence":48,"prices":[185,180,235,210,106,266,76,115,250,205],"times":[2123,465,1086,493,1173],"next_num":5,"trial_type":"ticket-choose","trial_index":68,"time_elapsed":714793,"internal_node_id":"0.0-68.0"},{"result":130,"points":2,"place":1,"phase":0,"sequence":49,"prices":[155,181,170,255,176,200,130,150,110,205],"times":[615,537,501,467,475,526,925],"next_num":7,"trial_type":"ticket-choose","trial_index":69,"time_elapsed":722093,"internal_node_id":"0.0-69.0"},{"responses":[{"value":0,"offby":-1,"category":"$30 - $75","category_index":0},{"value":0,"offby":-2,"category":"$76 - $120","category_index":1},{"value":4,"offby":0,"category":"$121 - $165","category_index":2},{"value":8,"offby":2,"category":"$166 - $210","category_index":3},{"value":8,"offby":2,"category":"$211 - $255","category_index":4},{"value":0,"offby":-1,"category":"$256 - $300","category_index":5},{"value":0,"offby":0,"category":"$301 - $345","category_index":6}],"phase":0,"number":1,"trial_type":"bar-choose","trial_index":70,"time_elapsed":746618,"internal_node_id":"0.0-70.0"},{"rt":5933,"url":"\/tickets\/utils\/start2.html","trial_type":"html","trial_index":71,"time_elapsed":753687,"internal_node_id":"0.0-71.0"},{"trial_type":"number-animation","trial_index":72,"time_elapsed":778664,"internal_node_id":"0.0-72.0"},{"phase":1,"sequence":0,"avg":180,"response":173,"trial_type":"training_avg","trial_index":73,"time_elapsed":788665,"internal_node_id":"0.0-73.0"},{"trial_type":"number-animation","trial_index":74,"time_elapsed":809153,"internal_node_id":"0.0-74.0"},{"phase":1,"sequence":1,"avg":178,"response":175,"trial_type":"training_avg","trial_index":75,"time_elapsed":815940,"internal_node_id":"0.0-75.0"},{"trial_type":"number-animation","trial_index":76,"time_elapsed":836555,"internal_node_id":"0.0-76.0"},{"phase":1,"sequence":2,"avg":176,"response":175,"trial_type":"training_avg","trial_index":77,"time_elapsed":845602,"internal_node_id":"0.0-77.0"},{"trial_type":"number-animation","trial_index":78,"time_elapsed":866498,"internal_node_id":"0.0-78.0"},{"phase":1,"sequence":3,"avg":178,"response":175,"trial_type":"training_avg","trial_index":79,"time_elapsed":874063,"internal_node_id":"0.0-79.0"},{"trial_type":"number-animation","trial_index":80,"time_elapsed":893438,"internal_node_id":"0.0-80.0"},{"phase":1,"sequence":4,"avg":179,"response":177,"trial_type":"training_avg","trial_index":81,"time_elapsed":901810,"internal_node_id":"0.0-81.0"},{"responses":[{"value":0,"offby":0,"category":"$140 - $250","category_index":0},{"value":0,"offby":0,"category":"$151 - $160","category_index":1},{"value":6,"offby":2,"category":"$161 - $170","category_index":2},{"value":9,"offby":3,"category":"$171 - $180","category_index":3},{"value":5,"offby":-2,"category":"$181 - $190","category_index":4},{"value":0,"offby":-3,"category":"$191 - $200","category_index":5},{"value":0,"offby":0,"category":"$201 - $210","category_index":6}],"phase":1,"number":0,"trial_type":"bar-choose","trial_index":82,"time_elapsed":921961,"internal_node_id":"0.0-82.0"},{"rt":8794,"url":"\/tickets\/utils\/testing2.html","trial_type":"html","trial_index":83,"time_elapsed":931882,"internal_node_id":"0.0-83.0"},{"phase":1,"order":[2,18,43,33,10,6,48,49,9,31,5,38,46,4,17,20,35,36,23,26,24,45,32,28,19,11,16,12,40,21,44,29,42,13,0,7,22,25,15,47,41,8,39,27,37,3,1,30,34,14],"trial_type":"store_order","trial_index":84,"time_elapsed":932884,"internal_node_id":"0.0-84.0"},{"result":166,"points":3,"place":0,"phase":1,"sequence":0,"prices":[175,180,170,195,179,184,178,174,166,185],"times":[1739,766,747,548,452,523,531,520,844],"next_num":9,"trial_type":"ticket-choose","trial_index":85,"time_elapsed":943225,"internal_node_id":"0.0-85.0"},{"result":168,"points":2,"place":1,"phase":1,"sequence":1,"prices":[173,178,176,193,177,182,168,172,164,183],"times":[705,474,467,521,483,511,1124],"next_num":7,"trial_type":"ticket-choose","trial_index":86,"time_elapsed":950668,"internal_node_id":"0.0-86.0"},{"result":176,"points":1,"place":4,"phase":1,"sequence":2,"prices":[161,180,170,174,178,198,173,182,188,176],"times":[708,365,383,445,462,465,489,594,768,1002],"next_num":10,"trial_type":"ticket-choose","trial_index":87,"time_elapsed":960185,"internal_node_id":"0.0-87.0"},{"result":168,"points":2,"place":1,"phase":1,"sequence":3,"prices":[173,178,176,193,177,182,168,172,164,183],"times":[493,390,498,619,574,511,1200],"next_num":7,"trial_type":"ticket-choose","trial_index":88,"time_elapsed":967664,"internal_node_id":"0.0-88.0"},{"result":164,"points":3,"place":0,"phase":1,"sequence":4,"prices":[175,179,169,193,178,182,177,172,164,183],"times":[2497,425,483,496,488,488,491,521,836],"next_num":9,"trial_type":"ticket-choose","trial_index":89,"time_elapsed":977921,"internal_node_id":"0.0-89.0"},{"result":168,"points":2,"place":1,"phase":1,"sequence":5,"prices":[174,178,168,192,177,181,176,171,163,182],"times":[485,388,1267],"next_num":3,"trial_type":"ticket-choose","trial_index":90,"time_elapsed":982341,"internal_node_id":"0.0-90.0"},{"result":165,"points":2,"place":1,"phase":1,"sequence":6,"prices":[181,180,191,186,165,197,159,167,194,185],"times":[551,436,563,465,1073],"next_num":5,"trial_type":"ticket-choose","trial_index":91,"time_elapsed":988118,"internal_node_id":"0.0-91.0"},{"result":169,"points":2,"place":1,"phase":1,"sequence":7,"prices":[175,179,169,193,178,182,177,172,164,183],"times":[487,471,942],"next_num":3,"trial_type":"ticket-choose","trial_index":92,"time_elapsed":992138,"internal_node_id":"0.0-92.0"},{"result":169,"points":2,"place":1,"phase":1,"sequence":8,"prices":[174,179,177,194,178,183,169,173,165,184],"times":[482,434,518,604,735,597,834],"next_num":7,"trial_type":"ticket-choose","trial_index":93,"time_elapsed":999415,"internal_node_id":"0.0-93.0"},{"result":163,"points":2,"place":1,"phase":1,"sequence":9,"prices":[157,184,163,174,181,190,168,187,189,177],"times":[484,419,931],"next_num":3,"trial_type":"ticket-choose","trial_index":94,"time_elapsed":1003450,"internal_node_id":"0.0-94.0"},{"result":172,"points":1,"place":2,"phase":1,"sequence":10,"prices":[175,179,177,193,178,182,169,172,164,183],"times":[428,408,522,505,637,493,499,907],"next_num":8,"trial_type":"ticket-choose","trial_index":95,"time_elapsed":1011148,"internal_node_id":"0.0-95.0"},{"result":165,"points":3,"place":0,"phase":1,"sequence":11,"prices":[180,165,177,193,186,196,187,169,171,182],"times":[469,934],"next_num":2,"trial_type":"ticket-choose","trial_index":96,"time_elapsed":1014483,"internal_node_id":"0.0-96.0"},{"result":168,"points":2,"place":1,"phase":1,"sequence":12,"prices":[181,175,182,168,183,173,153,170,193,179],"times":[460,537,487,1371],"next_num":4,"trial_type":"ticket-choose","trial_index":97,"time_elapsed":1019884,"internal_node_id":"0.0-97.0"},{"result":155,"points":2,"place":1,"phase":1,"sequence":13,"prices":[175,150,164,155,171,199,158,180,184,196],"times":[469,454,477,929],"next_num":4,"trial_type":"ticket-choose","trial_index":98,"time_elapsed":1024662,"internal_node_id":"0.0-98.0"},{"result":183,"points":1,"place":4,"phase":1,"sequence":14,"prices":[168,188,171,181,184,196,180,194,195,183],"times":[382,454,641,458,536,492,602,509,543,1043],"next_num":10,"trial_type":"ticket-choose","trial_index":99,"time_elapsed":1034052,"internal_node_id":"0.0-99.0"},{"result":170,"points":2,"place":1,"phase":1,"sequence":15,"prices":[176,180,178,194,179,183,170,173,165,184],"times":[491,444,574,483,462,459,842],"next_num":7,"trial_type":"ticket-choose","trial_index":100,"time_elapsed":1040860,"internal_node_id":"0.0-100.0"},{"result":178,"points":0,"place":5,"phase":1,"sequence":16,"prices":[174,179,177,194,178,183,169,173,165,184],"times":[425,461,459,517,1214],"next_num":5,"trial_type":"ticket-choose","trial_index":101,"time_elapsed":1046598,"internal_node_id":"0.0-101.0"},{"result":170,"points":2,"place":1,"phase":1,"sequence":17,"prices":[175,180,178,195,179,184,170,174,166,185],"times":[481,412,496,458,475,474,827],"next_num":7,"trial_type":"ticket-choose","trial_index":102,"time_elapsed":1053272,"internal_node_id":"0.0-102.0"},{"result":168,"points":2,"place":1,"phase":1,"sequence":18,"prices":[174,178,168,192,177,181,176,171,163,182],"times":[534,464,1179],"next_num":3,"trial_type":"ticket-choose","trial_index":103,"time_elapsed":1057544,"internal_node_id":"0.0-103.0"},{"result":166,"points":3,"place":0,"phase":1,"sequence":19,"prices":[166,190,170,173,178,203,172,192,198,174],"times":[946],"next_num":1,"trial_type":"ticket-choose","trial_index":104,"time_elapsed":1060230,"internal_node_id":"0.0-104.0"},{"result":177,"points":1,"place":2,"phase":1,"sequence":20,"prices":[181,179,199,188,170,172,178,187,191,177],"times":[740,781,433,488,476,647,499,501,693,1095],"next_num":10,"trial_type":"ticket-choose","trial_index":105,"time_elapsed":1070239,"internal_node_id":"0.0-105.0"},{"result":168,"points":2,"place":1,"phase":1,"sequence":21,"prices":[173,178,168,193,177,182,176,172,164,183],"times":[479,426,866],"next_num":3,"trial_type":"ticket-choose","trial_index":106,"time_elapsed":1074204,"internal_node_id":"0.0-106.0"},{"result":170,"points":2,"place":1,"phase":1,"sequence":22,"prices":[176,180,178,194,179,183,170,173,165,184],"times":[538,452,497,449,558,489,1252],"next_num":7,"trial_type":"ticket-choose","trial_index":107,"time_elapsed":1081473,"internal_node_id":"0.0-107.0"},{"result":167,"points":3,"place":0,"phase":1,"sequence":23,"prices":[179,174,199,178,196,167,170,184,177,190],"times":[457,469,496,459,537,1102],"next_num":6,"trial_type":"ticket-choose","trial_index":108,"time_elapsed":1087813,"internal_node_id":"0.0-108.0"},{"result":168,"points":2,"place":1,"phase":1,"sequence":24,"prices":[174,178,176,192,177,181,168,171,163,182],"times":[383,471,491,514,488,510,1052],"next_num":7,"trial_type":"ticket-choose","trial_index":109,"time_elapsed":1094752,"internal_node_id":"0.0-109.0"},{"result":170,"points":2,"place":1,"phase":1,"sequence":25,"prices":[175,180,178,195,179,184,170,174,166,185],"times":[413,494,513,450,654,477,884],"next_num":7,"trial_type":"ticket-choose","trial_index":110,"time_elapsed":1101663,"internal_node_id":"0.0-110.0"},{"result":169,"points":2,"place":1,"phase":1,"sequence":26,"prices":[175,179,177,193,178,182,169,172,164,183],"times":[375,446,404,528,512,597,930],"next_num":7,"trial_type":"ticket-choose","trial_index":111,"time_elapsed":1108555,"internal_node_id":"0.0-111.0"},{"result":170,"points":2,"place":1,"phase":1,"sequence":27,"prices":[175,180,170,195,179,184,178,174,166,185],"times":[444,257,1048],"next_num":3,"trial_type":"ticket-choose","trial_index":112,"time_elapsed":1112551,"internal_node_id":"0.0-112.0"},{"result":168,"points":2,"place":1,"phase":1,"sequence":28,"prices":[174,178,176,192,177,181,168,171,163,182],"times":[509,422,1135,495,595,499,888],"next_num":7,"trial_type":"ticket-choose","trial_index":113,"time_elapsed":1120172,"internal_node_id":"0.0-113.0"},{"result":160,"points":2,"place":1,"phase":1,"sequence":29,"prices":[188,179,154,183,173,170,177,160,169,175],"times":[405,434,433,483,471,1116,509,672],"next_num":8,"trial_type":"ticket-choose","trial_index":114,"time_elapsed":1128010,"internal_node_id":"0.0-114.0"},{"result":171,"points":1,"place":2,"phase":1,"sequence":30,"prices":[195,177,197,179,171,173,175,156,163,204],"times":[443,520,473,459,978],"next_num":5,"trial_type":"ticket-choose","trial_index":115,"time_elapsed":1133560,"internal_node_id":"0.0-115.0"},{"result":179,"points":1,"place":4,"phase":1,"sequence":31,"prices":[170,183,172,175,180,189,174,187,188,179],"times":[442,436,677,527,536,502,545,733,500,757],"next_num":10,"trial_type":"ticket-choose","trial_index":116,"time_elapsed":1142935,"internal_node_id":"0.0-116.0"},{"result":170,"points":2,"place":1,"phase":1,"sequence":32,"prices":[176,180,170,194,179,183,178,173,165,184],"times":[465,455,1101],"next_num":3,"trial_type":"ticket-choose","trial_index":117,"time_elapsed":1147151,"internal_node_id":"0.0-117.0"},{"result":166,"points":3,"place":0,"phase":1,"sequence":33,"prices":[179,186,197,201,166,187,188,193,190,177],"times":[462,407,438,578,1065],"next_num":5,"trial_type":"ticket-choose","trial_index":118,"time_elapsed":1152746,"internal_node_id":"0.0-118.0"},{"result":172,"points":1,"place":3,"phase":1,"sequence":34,"prices":[179,174,172,162,202,184,165,197,185,169],"times":[434,230,951],"next_num":3,"trial_type":"ticket-choose","trial_index":119,"time_elapsed":1156603,"internal_node_id":"0.0-119.0"},{"result":169,"points":1,"place":2,"phase":1,"sequence":35,"prices":[189,185,169,168,167,171,180,173,174,188],"times":[367,453,1066],"next_num":3,"trial_type":"ticket-choose","trial_index":120,"time_elapsed":1160640,"internal_node_id":"0.0-120.0"},{"result":172,"points":2,"place":1,"phase":1,"sequence":36,"prices":[171,180,172,174,179,188,173,183,186,175],"times":[416,470,1027],"next_num":3,"trial_type":"ticket-choose","trial_index":121,"time_elapsed":1164755,"internal_node_id":"0.0-121.0"},{"result":165,"points":3,"place":0,"phase":1,"sequence":37,"prices":[165,187,173,177,186,196,176,191,192,181],"times":[1020],"next_num":1,"trial_type":"ticket-choose","trial_index":122,"time_elapsed":1167494,"internal_node_id":"0.0-122.0"},{"result":171,"points":3,"place":0,"phase":1,"sequence":38,"prices":[193,173,175,182,179,198,181,171,176,187],"times":[635,439,537,456,490,497,901,751],"next_num":8,"trial_type":"ticket-choose","trial_index":123,"time_elapsed":1175796,"internal_node_id":"0.0-123.0"},{"result":173,"points":1,"place":2,"phase":1,"sequence":39,"prices":[174,179,169,194,178,183,177,173,165,184],"times":[610,420,425,526,522,572,491,941],"next_num":8,"trial_type":"ticket-choose","trial_index":124,"time_elapsed":1183524,"internal_node_id":"0.0-124.0"},{"result":170,"points":2,"place":1,"phase":1,"sequence":40,"prices":[176,180,170,194,179,183,178,173,165,184],"times":[452,410,1041],"next_num":3,"trial_type":"ticket-choose","trial_index":125,"time_elapsed":1187565,"internal_node_id":"0.0-125.0"},{"result":172,"points":1,"place":2,"phase":1,"sequence":41,"prices":[173,178,168,193,177,182,176,172,164,183],"times":[649,455,450,504,577,489,560,1071],"next_num":8,"trial_type":"ticket-choose","trial_index":126,"time_elapsed":1195531,"internal_node_id":"0.0-126.0"},{"result":169,"points":2,"place":1,"phase":1,"sequence":42,"prices":[174,179,169,194,178,183,177,173,165,184],"times":[501,462,966],"next_num":3,"trial_type":"ticket-choose","trial_index":127,"time_elapsed":1199608,"internal_node_id":"0.0-127.0"},{"result":159,"points":3,"place":0,"phase":1,"sequence":43,"prices":[159,178,170,174,176,194,173,182,185,175],"times":[993],"next_num":1,"trial_type":"ticket-choose","trial_index":128,"time_elapsed":1202338,"internal_node_id":"0.0-128.0"},{"result":163,"points":3,"place":0,"phase":1,"sequence":44,"prices":[163,185,165,174,181,198,173,186,187,180],"times":[1201],"next_num":1,"trial_type":"ticket-choose","trial_index":129,"time_elapsed":1205360,"internal_node_id":"0.0-129.0"},{"result":170,"points":1,"place":2,"phase":1,"sequence":45,"prices":[175,193,175,160,180,170,175,205,177,167],"times":[1455,522,518,449,720,961],"next_num":6,"trial_type":"ticket-choose","trial_index":130,"time_elapsed":1212808,"internal_node_id":"0.0-130.0"},{"result":173,"points":3,"place":0,"phase":1,"sequence":46,"prices":[180,175,173,177,191,190,184,196,174,181],"times":[554,564,1265],"next_num":3,"trial_type":"ticket-choose","trial_index":131,"time_elapsed":1217352,"internal_node_id":"0.0-131.0"},{"result":157,"points":2,"place":1,"phase":1,"sequence":47,"prices":[188,191,179,157,181,164,166,156,175,182],"times":[652,564,725,983],"next_num":4,"trial_type":"ticket-choose","trial_index":132,"time_elapsed":1222684,"internal_node_id":"0.0-132.0"},{"result":173,"points":1,"place":2,"phase":1,"sequence":48,"prices":[160,185,170,174,182,196,173,186,194,177],"times":[983,554,564,457,535,538,1016],"next_num":7,"trial_type":"ticket-choose","trial_index":133,"time_elapsed":1230397,"internal_node_id":"0.0-133.0"},{"result":170,"points":2,"place":1,"phase":1,"sequence":49,"prices":[175,189,193,170,179,165,180,186,177,184],"times":[1284,623,454,1229],"next_num":4,"trial_type":"ticket-choose","trial_index":134,"time_elapsed":1236543,"internal_node_id":"0.0-134.0"},{"responses":[{"value":0,"offby":0,"category":"$140 - $250","category_index":0},{"value":0,"offby":0,"category":"$151 - $160","category_index":1},{"value":6,"offby":2,"category":"$161 - $170","category_index":2},{"value":8,"offby":2,"category":"$171 - $180","category_index":3},{"value":6,"offby":-1,"category":"$181 - $190","category_index":4},{"value":0,"offby":-3,"category":"$191 - $200","category_index":5},{"value":0,"offby":0,"category":"$201 - $210","category_index":6}],"phase":1,"number":1,"trial_type":"bar-choose","trial_index":135,"time_elapsed":1256860,"internal_node_id":"0.0-135.0"},{"special_comment":"No,I didn't notice anything.","trial_type":"special_sequence","trial_index":136,"time_elapsed":1265183,"internal_node_id":"0.0-136.0"},{"during":"Nothing","bonus":268,"trial_type":"final","trial_index":137,"time_elapsed":1290781,"internal_node_id":"0.0-137.0"}],"bonus":268}