{"start_time":"2017-02-24 14:44:33","end_time":"2017-02-24 15:08:46","points_phase0":107,"points_phase1":101,"phase_order":0,"age":25,"gender":"m","tries":1,"during":"Nothing","worker_id":"A2O5OJXCUFQ3FV","assignment_id":"34MAJL3QP5G6OYR64OICCQ4C1YB34O","data":[{"rt":5704,"url":"\/tickets\/utils\/consent.html","trial_type":"html","trial_index":0,"time_elapsed":5909,"internal_node_id":"0.0-0.0"},{"age":25,"gender":"m","trial_type":"age","trial_index":1,"time_elapsed":17878,"internal_node_id":"0.0-1.0"},{"worker_id":"A2O5OJXCUFQ3FV","trial_type":"workerid","trial_index":2,"time_elapsed":25764,"internal_node_id":"0.0-2.0"},{"tries":1,"trial_type":"instructions_check","trial_index":3,"time_elapsed":71168,"internal_node_id":"0.0-3.0"},{"rt":4282,"url":"\/tickets\/utils\/start.html","trial_type":"html","trial_index":4,"time_elapsed":76573,"internal_node_id":"0.0-4.0"},{"trial_type":"number-animation","trial_index":5,"time_elapsed":131319,"internal_node_id":"0.0-5.0"},{"phase":0,"sequence":0,"avg":180,"response":171,"trial_type":"training_avg","trial_index":6,"time_elapsed":140564,"internal_node_id":"0.0-6.0"},{"trial_type":"number-animation","trial_index":7,"time_elapsed":152706,"internal_node_id":"0.0-7.0"},{"phase":0,"sequence":1,"avg":178,"response":179,"trial_type":"training_avg","trial_index":8,"time_elapsed":160903,"internal_node_id":"0.0-8.0"},{"trial_type":"number-animation","trial_index":9,"time_elapsed":170023,"internal_node_id":"0.0-9.0"},{"phase":0,"sequence":2,"avg":176,"response":175,"trial_type":"training_avg","trial_index":10,"time_elapsed":174527,"internal_node_id":"0.0-10.0"},{"trial_type":"number-animation","trial_index":11,"time_elapsed":184313,"internal_node_id":"0.0-11.0"},{"phase":0,"sequence":3,"avg":178,"response":171,"trial_type":"training_avg","trial_index":12,"time_elapsed":188068,"internal_node_id":"0.0-12.0"},{"trial_type":"number-animation","trial_index":13,"time_elapsed":197705,"internal_node_id":"0.0-13.0"},{"phase":0,"sequence":4,"avg":179,"response":178,"trial_type":"training_avg","trial_index":14,"time_elapsed":207058,"internal_node_id":"0.0-14.0"},{"responses":[{"value":5,"offby":5,"category":"$140 - $250","category_index":0},{"value":2,"offby":2,"category":"$151 - $160","category_index":1},{"value":3,"offby":-1,"category":"$161 - $170","category_index":2},{"value":6,"offby":0,"category":"$171 - $180","category_index":3},{"value":2,"offby":-5,"category":"$181 - $190","category_index":4},{"value":1,"offby":-2,"category":"$191 - $200","category_index":5},{"value":1,"offby":1,"category":"$201 - $210","category_index":6}],"phase":0,"number":0,"trial_type":"bar-choose","trial_index":15,"time_elapsed":274799,"internal_node_id":"0.0-15.0"},{"rt":10650,"url":"\/tickets\/\/utils\/testing.html","trial_type":"html","trial_index":16,"time_elapsed":286544,"internal_node_id":"0.0-16.0"},{"phase":0,"order":[14,20,35,43,28,25,10,4,15,0,11,12,18,27,38,36,45,16,17,9,40,1,32,24,19,6,37,2,23,47,49,3,13,7,46,39,29,21,8,22,42,5,48,34,44,31,26,33,30,41],"trial_type":"store_order","trial_index":17,"time_elapsed":287546,"internal_node_id":"0.0-17.0"},{"result":165,"points":2,"place":1,"phase":0,"sequence":-1,"prices":[184,180,224,165,181,199,185,193,218,126],"times":[1199,871,792,2643],"next_num":4,"trial_type":"ticket-choose","trial_index":18,"time_elapsed":295929,"internal_node_id":"0.0-18.0"},{"rt":1936,"url":"\/tickets\/utils\/testing_after.html","trial_type":"html","trial_index":19,"time_elapsed":298966,"internal_node_id":"0.0-19.0"},{"result":170,"points":2,"place":1,"phase":0,"sequence":0,"prices":[175,180,178,195,179,184,170,174,166,185],"times":[1147,488,637,598,1034,900,1655],"next_num":7,"trial_type":"ticket-choose","trial_index":20,"time_elapsed":309614,"internal_node_id":"0.0-20.0"},{"result":168,"points":2,"place":1,"phase":0,"sequence":1,"prices":[174,178,176,192,177,181,168,171,163,182],"times":[12266,561,497,645,646,615,1958],"next_num":7,"trial_type":"ticket-choose","trial_index":21,"time_elapsed":330993,"internal_node_id":"0.0-21.0"},{"result":154,"points":3,"place":0,"phase":0,"sequence":2,"prices":[188,179,154,183,173,170,177,160,169,175],"times":[1024,892,1144],"next_num":3,"trial_type":"ticket-choose","trial_index":22,"time_elapsed":338529,"internal_node_id":"0.0-22.0"},{"result":157,"points":2,"place":1,"phase":0,"sequence":3,"prices":[188,191,179,157,181,164,166,156,175,182],"times":[824,554,517,1202],"next_num":4,"trial_type":"ticket-choose","trial_index":23,"time_elapsed":401495,"internal_node_id":"0.0-23.0"},{"result":159,"points":3,"place":0,"phase":0,"sequence":4,"prices":[159,178,170,174,176,194,173,182,185,175],"times":[1888],"next_num":1,"trial_type":"ticket-choose","trial_index":24,"time_elapsed":406232,"internal_node_id":"0.0-24.0"},{"result":180,"points":1,"place":4,"phase":0,"sequence":5,"prices":[163,185,165,174,181,198,173,186,187,180],"times":[1094,707,340,489,530,589,531,544,590,1407],"next_num":11,"trial_type":"ticket-choose","trial_index":25,"time_elapsed":417752,"internal_node_id":"0.0-25.0"},{"result":166,"points":3,"place":0,"phase":0,"sequence":6,"prices":[175,180,170,195,179,184,178,174,166,185],"times":[1376,494,537,464,448,548,455,456,916],"next_num":9,"trial_type":"ticket-choose","trial_index":26,"time_elapsed":427613,"internal_node_id":"0.0-26.0"},{"result":169,"points":2,"place":1,"phase":0,"sequence":7,"prices":[175,179,177,193,178,182,169,172,164,183],"times":[1201,859,439,626,717,537,1149],"next_num":7,"trial_type":"ticket-choose","trial_index":27,"time_elapsed":436304,"internal_node_id":"0.0-27.0"},{"result":170,"points":2,"place":1,"phase":0,"sequence":8,"prices":[175,180,178,195,179,184,170,174,166,185],"times":[577,373,333,623,589,559,1221],"next_num":7,"trial_type":"ticket-choose","trial_index":28,"time_elapsed":443818,"internal_node_id":"0.0-28.0"},{"result":169,"points":2,"place":1,"phase":0,"sequence":9,"prices":[175,179,169,193,178,182,177,172,164,183],"times":[404,484,927],"next_num":3,"trial_type":"ticket-choose","trial_index":29,"time_elapsed":447828,"internal_node_id":"0.0-29.0"},{"result":170,"points":2,"place":1,"phase":0,"sequence":10,"prices":[175,180,170,195,179,184,178,174,166,185],"times":[422,376,1116],"next_num":3,"trial_type":"ticket-choose","trial_index":30,"time_elapsed":451989,"internal_node_id":"0.0-30.0"},{"result":170,"points":2,"place":1,"phase":0,"sequence":11,"prices":[176,180,178,194,179,183,170,173,165,184],"times":[420,755,694,528,2891,604,1128],"next_num":7,"trial_type":"ticket-choose","trial_index":31,"time_elapsed":462205,"internal_node_id":"0.0-31.0"},{"result":168,"points":2,"place":1,"phase":0,"sequence":12,"prices":[173,178,168,193,177,182,176,172,164,183],"times":[676,634,926],"next_num":3,"trial_type":"ticket-choose","trial_index":32,"time_elapsed":466891,"internal_node_id":"0.0-32.0"},{"result":168,"points":3,"place":0,"phase":0,"sequence":13,"prices":[168,188,171,181,184,196,180,194,195,183],"times":[4125],"next_num":1,"trial_type":"ticket-choose","trial_index":33,"time_elapsed":528541,"internal_node_id":"0.0-33.0"},{"result":170,"points":3,"place":0,"phase":0,"sequence":14,"prices":[181,179,199,188,170,172,178,187,191,177],"times":[1021,368,602,428,749],"next_num":5,"trial_type":"ticket-choose","trial_index":34,"time_elapsed":534895,"internal_node_id":"0.0-34.0"},{"result":169,"points":1,"place":2,"phase":0,"sequence":15,"prices":[189,185,169,168,167,171,180,173,174,188],"times":[7548,507,865],"next_num":3,"trial_type":"ticket-choose","trial_index":35,"time_elapsed":546259,"internal_node_id":"0.0-35.0"},{"result":162,"points":3,"place":0,"phase":0,"sequence":16,"prices":[179,174,172,162,202,184,165,197,185,169],"times":[2794,1246,789,946],"next_num":4,"trial_type":"ticket-choose","trial_index":36,"time_elapsed":554727,"internal_node_id":"0.0-36.0"},{"result":168,"points":2,"place":1,"phase":0,"sequence":17,"prices":[174,178,168,192,177,181,176,171,163,182],"times":[1450,485,940],"next_num":3,"trial_type":"ticket-choose","trial_index":37,"time_elapsed":560025,"internal_node_id":"0.0-37.0"},{"result":182,"points":0,"place":8,"phase":0,"sequence":18,"prices":[174,178,168,192,177,181,176,171,163,182],"times":[1547,571,514,1294,631,558,520,492,514,1720],"next_num":11,"trial_type":"ticket-choose","trial_index":38,"time_elapsed":572976,"internal_node_id":"0.0-38.0"},{"result":165,"points":3,"place":0,"phase":0,"sequence":19,"prices":[176,180,170,194,179,183,178,173,165,184],"times":[926,487,437,630,618,489,450,497,1011],"next_num":9,"trial_type":"ticket-choose","trial_index":39,"time_elapsed":582052,"internal_node_id":"0.0-39.0"},{"result":167,"points":3,"place":0,"phase":0,"sequence":20,"prices":[179,174,199,178,196,167,170,184,177,190],"times":[1691,14450,523,644,595,836],"next_num":6,"trial_type":"ticket-choose","trial_index":40,"time_elapsed":603850,"internal_node_id":"0.0-40.0"},{"result":169,"points":2,"place":1,"phase":0,"sequence":21,"prices":[175,179,169,193,178,182,177,172,164,183],"times":[866,457,762],"next_num":3,"trial_type":"ticket-choose","trial_index":41,"time_elapsed":608104,"internal_node_id":"0.0-41.0"},{"result":175,"points":1,"place":4,"phase":0,"sequence":22,"prices":[171,180,172,174,179,188,173,183,186,175],"times":[659,731,289,419,437,512,400,536,523,780],"next_num":10,"trial_type":"ticket-choose","trial_index":42,"time_elapsed":617342,"internal_node_id":"0.0-42.0"},{"result":161,"points":3,"place":0,"phase":0,"sequence":23,"prices":[161,180,170,174,178,198,173,182,188,176],"times":[793],"next_num":1,"trial_type":"ticket-choose","trial_index":43,"time_elapsed":619790,"internal_node_id":"0.0-43.0"},{"result":168,"points":2,"place":1,"phase":0,"sequence":24,"prices":[173,178,168,193,177,182,176,172,164,183],"times":[866,470,696],"next_num":3,"trial_type":"ticket-choose","trial_index":44,"time_elapsed":624107,"internal_node_id":"0.0-44.0"},{"result":169,"points":2,"place":1,"phase":0,"sequence":25,"prices":[174,179,177,194,178,183,169,173,165,184],"times":[568,437,481,553,444,581,873],"next_num":7,"trial_type":"ticket-choose","trial_index":45,"time_elapsed":631176,"internal_node_id":"0.0-45.0"},{"result":153,"points":3,"place":0,"phase":0,"sequence":26,"prices":[181,175,182,168,183,173,153,170,193,179],"times":[501,359,334,402,935,426,993],"next_num":7,"trial_type":"ticket-choose","trial_index":46,"time_elapsed":638243,"internal_node_id":"0.0-46.0"},{"result":169,"points":2,"place":1,"phase":0,"sequence":27,"prices":[174,179,169,194,178,183,177,173,165,184],"times":[413,461,968],"next_num":3,"trial_type":"ticket-choose","trial_index":47,"time_elapsed":642338,"internal_node_id":"0.0-47.0"},{"result":168,"points":2,"place":1,"phase":0,"sequence":28,"prices":[173,178,176,193,177,182,168,172,164,183],"times":[395,449,437,611,588,645,987],"next_num":7,"trial_type":"ticket-choose","trial_index":48,"time_elapsed":649385,"internal_node_id":"0.0-48.0"},{"result":181,"points":0,"place":5,"phase":0,"sequence":29,"prices":[180,175,173,177,191,190,184,196,174,181],"times":[683,399,398,393,614,501,624,815,1948,799],"next_num":10,"trial_type":"ticket-choose","trial_index":49,"time_elapsed":660356,"internal_node_id":"0.0-49.0"},{"result":165,"points":3,"place":0,"phase":0,"sequence":30,"prices":[175,189,193,170,179,165,180,186,177,184],"times":[612,478,388,356,779,824],"next_num":6,"trial_type":"ticket-choose","trial_index":50,"time_elapsed":666717,"internal_node_id":"0.0-50.0"},{"result":169,"points":2,"place":1,"phase":0,"sequence":31,"prices":[174,179,169,194,178,183,177,173,165,184],"times":[23440,724,789],"next_num":3,"trial_type":"ticket-choose","trial_index":51,"time_elapsed":694238,"internal_node_id":"0.0-51.0"},{"result":170,"points":2,"place":1,"phase":0,"sequence":32,"prices":[176,180,178,194,179,183,170,173,165,184],"times":[985,537,555,661,43327,498,1189],"next_num":7,"trial_type":"ticket-choose","trial_index":52,"time_elapsed":746410,"internal_node_id":"0.0-52.0"},{"result":169,"points":2,"place":1,"phase":0,"sequence":33,"prices":[174,179,177,194,178,183,169,173,165,184],"times":[8301,1336,512,8099,682,565,1086],"next_num":7,"trial_type":"ticket-choose","trial_index":53,"time_elapsed":770188,"internal_node_id":"0.0-53.0"},{"result":166,"points":3,"place":0,"phase":0,"sequence":34,"prices":[179,186,197,201,166,187,188,193,190,177],"times":[531,508,675,915,857],"next_num":5,"trial_type":"ticket-choose","trial_index":54,"time_elapsed":776333,"internal_node_id":"0.0-54.0"},{"result":156,"points":3,"place":0,"phase":0,"sequence":35,"prices":[195,177,197,179,171,173,175,156,163,204],"times":[630,427,473,501,507,488,659,1390],"next_num":8,"trial_type":"ticket-choose","trial_index":55,"time_elapsed":784664,"internal_node_id":"0.0-55.0"},{"result":174,"points":1,"place":4,"phase":0,"sequence":36,"prices":[166,190,170,173,178,203,172,192,198,174],"times":[1029,664,226,223,672,631,611,517,639,831],"next_num":11,"trial_type":"ticket-choose","trial_index":56,"time_elapsed":794583,"internal_node_id":"0.0-56.0"},{"result":168,"points":2,"place":1,"phase":0,"sequence":37,"prices":[174,178,176,192,177,181,168,171,163,182],"times":[550,461,445,691,425,657,911],"next_num":7,"trial_type":"ticket-choose","trial_index":57,"time_elapsed":801764,"internal_node_id":"0.0-57.0"},{"result":165,"points":3,"place":0,"phase":0,"sequence":38,"prices":[176,180,170,194,179,183,178,173,165,184],"times":[377,495,400,605,589,666,681,590,867],"next_num":9,"trial_type":"ticket-choose","trial_index":58,"time_elapsed":810553,"internal_node_id":"0.0-58.0"},{"result":168,"points":2,"place":1,"phase":0,"sequence":39,"prices":[173,178,176,193,177,182,168,172,164,183],"times":[5292,319,264,282,520,564,773],"next_num":7,"trial_type":"ticket-choose","trial_index":59,"time_elapsed":821752,"internal_node_id":"0.0-59.0"},{"result":160,"points":3,"place":0,"phase":0,"sequence":40,"prices":[175,193,175,160,180,170,175,205,177,167],"times":[452,791,329,700],"next_num":4,"trial_type":"ticket-choose","trial_index":60,"time_elapsed":826413,"internal_node_id":"0.0-60.0"},{"result":164,"points":3,"place":0,"phase":0,"sequence":41,"prices":[175,179,177,193,178,182,169,172,164,183],"times":[883,573,541,463,481,583,451,503,880],"next_num":9,"trial_type":"ticket-choose","trial_index":61,"time_elapsed":835348,"internal_node_id":"0.0-61.0"},{"result":187,"points":0,"place":7,"phase":0,"sequence":42,"prices":[193,173,175,182,179,198,181,171,176,187],"times":[1111,5456,723,549,448,658,519,505,749,695],"next_num":11,"trial_type":"ticket-choose","trial_index":62,"time_elapsed":850798,"internal_node_id":"0.0-62.0"},{"result":159,"points":3,"place":0,"phase":0,"sequence":43,"prices":[181,180,191,186,165,197,159,167,194,185],"times":[2792,333,575,613,525,575,910],"next_num":7,"trial_type":"ticket-choose","trial_index":63,"time_elapsed":860348,"internal_node_id":"0.0-63.0"},{"result":155,"points":2,"place":1,"phase":0,"sequence":44,"prices":[175,150,164,155,171,199,158,180,184,196],"times":[855,443,791,1262],"next_num":4,"trial_type":"ticket-choose","trial_index":64,"time_elapsed":866171,"internal_node_id":"0.0-64.0"},{"result":157,"points":3,"place":0,"phase":0,"sequence":45,"prices":[157,184,163,174,181,190,168,187,189,177],"times":[937],"next_num":1,"trial_type":"ticket-choose","trial_index":65,"time_elapsed":869216,"internal_node_id":"0.0-65.0"},{"result":165,"points":3,"place":0,"phase":0,"sequence":46,"prices":[165,187,173,177,186,196,176,191,192,181],"times":[1738],"next_num":1,"trial_type":"ticket-choose","trial_index":66,"time_elapsed":872920,"internal_node_id":"0.0-66.0"},{"result":179,"points":1,"place":4,"phase":0,"sequence":47,"prices":[170,183,172,175,180,189,174,187,188,179],"times":[1644,522,567,484,560,568,585,527,584,1839],"next_num":10,"trial_type":"ticket-choose","trial_index":67,"time_elapsed":884943,"internal_node_id":"0.0-67.0"},{"result":160,"points":3,"place":0,"phase":0,"sequence":48,"prices":[160,185,170,174,182,196,173,186,194,177],"times":[1145],"next_num":1,"trial_type":"ticket-choose","trial_index":68,"time_elapsed":887989,"internal_node_id":"0.0-68.0"},{"result":182,"points":0,"place":5,"phase":0,"sequence":49,"prices":[180,165,177,193,186,196,187,169,171,182],"times":[963,491,509,556,496,536,458,713,550,720],"next_num":10,"trial_type":"ticket-choose","trial_index":69,"time_elapsed":898774,"internal_node_id":"0.0-69.0"},{"responses":[{"value":0,"offby":0,"category":"$140 - $250","category_index":0},{"value":0,"offby":0,"category":"$151 - $160","category_index":1},{"value":5,"offby":1,"category":"$161 - $170","category_index":2},{"value":6,"offby":0,"category":"$171 - $180","category_index":3},{"value":5,"offby":-2,"category":"$181 - $190","category_index":4},{"value":4,"offby":1,"category":"$191 - $200","category_index":5},{"value":0,"offby":0,"category":"$201 - $210","category_index":6}],"phase":0,"number":1,"trial_type":"bar-choose","trial_index":70,"time_elapsed":943548,"internal_node_id":"0.0-70.0"},{"rt":2487,"url":"\/tickets\/utils\/start2.html","trial_type":"html","trial_index":71,"time_elapsed":947147,"internal_node_id":"0.0-71.0"},{"trial_type":"number-animation","trial_index":72,"time_elapsed":969371,"internal_node_id":"0.0-72.0"},{"phase":1,"sequence":0,"avg":166,"response":136,"trial_type":"training_avg","trial_index":73,"time_elapsed":974858,"internal_node_id":"0.0-73.0"},{"trial_type":"number-animation","trial_index":74,"time_elapsed":981527,"internal_node_id":"0.0-74.0"},{"phase":1,"sequence":1,"avg":198,"response":164,"trial_type":"training_avg","trial_index":75,"time_elapsed":987461,"internal_node_id":"0.0-75.0"},{"trial_type":"number-animation","trial_index":76,"time_elapsed":994226,"internal_node_id":"0.0-76.0"},{"phase":1,"sequence":2,"avg":177,"response":155,"trial_type":"training_avg","trial_index":77,"time_elapsed":998310,"internal_node_id":"0.0-77.0"},{"trial_type":"number-animation","trial_index":78,"time_elapsed":1005818,"internal_node_id":"0.0-78.0"},{"phase":1,"sequence":3,"avg":190,"response":176,"trial_type":"training_avg","trial_index":79,"time_elapsed":1012660,"internal_node_id":"0.0-79.0"},{"trial_type":"number-animation","trial_index":80,"time_elapsed":1019877,"internal_node_id":"0.0-80.0"},{"phase":1,"sequence":4,"avg":201,"response":189,"trial_type":"training_avg","trial_index":81,"time_elapsed":1026370,"internal_node_id":"0.0-81.0"},{"responses":[{"value":2,"offby":1,"category":"$30 - $75","category_index":0},{"value":2,"offby":0,"category":"$76 - $120","category_index":1},{"value":4,"offby":0,"category":"$121 - $165","category_index":2},{"value":7,"offby":1,"category":"$166 - $210","category_index":3},{"value":4,"offby":-2,"category":"$211 - $255","category_index":4},{"value":1,"offby":0,"category":"$256 - $300","category_index":5},{"value":0,"offby":0,"category":"$301 - $345","category_index":6}],"phase":1,"number":0,"trial_type":"bar-choose","trial_index":82,"time_elapsed":1051639,"internal_node_id":"0.0-82.0"},{"rt":2717,"url":"\/tickets\/utils\/testing2.html","trial_type":"html","trial_index":83,"time_elapsed":1055480,"internal_node_id":"0.0-83.0"},{"phase":1,"order":[24,47,31,22,46,30,48,36,29,26,15,10,9,23,17,3,4,14,42,8,16,12,38,35,6,41,7,19,32,33,37,44,45,13,25,43,34,20,27,0,1,18,39,49,28,5,11,40,2,21],"trial_type":"store_order","trial_index":84,"time_elapsed":1056483,"internal_node_id":"0.0-84.0"},{"result":86,"points":3,"place":0,"phase":1,"sequence":0,"prices":[86,180,130,151,170,271,145,191,220,160],"times":[1406],"next_num":1,"trial_type":"ticket-choose","trial_index":85,"time_elapsed":1060326,"internal_node_id":"0.0-85.0"},{"result":150,"points":2,"place":1,"phase":1,"sequence":1,"prices":[181,156,145,165,236,231,201,260,150,185],"times":[845,453,519,658,527,508,621,566,943],"next_num":9,"trial_type":"ticket-choose","trial_index":86,"time_elapsed":1069487,"internal_node_id":"0.0-86.0"},{"result":66,"points":3,"place":0,"phase":1,"sequence":2,"prices":[66,201,96,150,185,230,121,216,225,165],"times":[1016],"next_num":1,"trial_type":"ticket-choose","trial_index":87,"time_elapsed":1072319,"internal_node_id":"0.0-87.0"},{"result":161,"points":1,"place":4,"phase":1,"sequence":3,"prices":[145,171,161,245,165,191,120,140,100,196],"times":[590,552,707],"next_num":3,"trial_type":"ticket-choose","trial_index":88,"time_elapsed":1076365,"internal_node_id":"0.0-88.0"},{"result":165,"points":2,"place":1,"phase":1,"sequence":4,"prices":[175,211,266,286,111,216,220,245,230,165],"times":[563,547,503,440,536,1344,484,430,438,1216],"next_num":11,"trial_type":"ticket-choose","trial_index":89,"time_elapsed":1095841,"internal_node_id":"0.0-89.0"},{"result":81,"points":3,"place":0,"phase":1,"sequence":5,"prices":[81,205,130,151,191,261,145,210,250,165],"times":[3263],"next_num":1,"trial_type":"ticket-choose","trial_index":90,"time_elapsed":1101073,"internal_node_id":"0.0-90.0"},{"result":145,"points":2,"place":1,"phase":1,"sequence":6,"prices":[246,145,155,191,176,270,185,136,160,215],"times":[687,745],"next_num":2,"trial_type":"ticket-choose","trial_index":91,"time_elapsed":1104413,"internal_node_id":"0.0-91.0"},{"result":125,"points":1,"place":2,"phase":1,"sequence":7,"prices":[226,205,125,120,115,135,180,145,150,220],"times":[413,495,734],"next_num":3,"trial_type":"ticket-choose","trial_index":92,"time_elapsed":1108214,"internal_node_id":"0.0-92.0"},{"result":141,"points":1,"place":2,"phase":1,"sequence":8,"prices":[111,231,131,146,171,295,141,241,271,150],"times":[389,467,401,549,515,481,808],"next_num":7,"trial_type":"ticket-choose","trial_index":93,"time_elapsed":1114777,"internal_node_id":"0.0-93.0"},{"result":105,"points":3,"place":0,"phase":1,"sequence":9,"prices":[105,216,146,165,210,260,161,235,241,185],"times":[1149],"next_num":1,"trial_type":"ticket-choose","trial_index":94,"time_elapsed":1117766,"internal_node_id":"0.0-94.0"},{"result":131,"points":2,"place":1,"phase":1,"sequence":10,"prices":[156,181,171,256,175,200,131,150,110,206],"times":[783,468,481,635,701,625,800],"next_num":7,"trial_type":"ticket-choose","trial_index":95,"time_elapsed":1125455,"internal_node_id":"0.0-95.0"},{"result":156,"points":1,"place":3,"phase":1,"sequence":11,"prices":[156,181,131,256,176,200,171,151,111,206],"times":[1038],"next_num":1,"trial_type":"ticket-choose","trial_index":96,"time_elapsed":1128278,"internal_node_id":"0.0-96.0"},{"result":130,"points":2,"place":1,"phase":1,"sequence":12,"prices":[160,180,130,251,176,195,170,146,105,200],"times":[959,264,1020],"next_num":3,"trial_type":"ticket-choose","trial_index":97,"time_elapsed":1132722,"internal_node_id":"0.0-97.0"},{"result":120,"points":2,"place":1,"phase":1,"sequence":13,"prices":[145,170,160,245,165,190,120,141,100,195],"times":[459,623,462,606,748,628,884],"next_num":7,"trial_type":"ticket-choose","trial_index":98,"time_elapsed":1140212,"internal_node_id":"0.0-98.0"},{"result":150,"points":1,"place":3,"phase":1,"sequence":14,"prices":[150,171,120,241,165,185,160,135,96,190],"times":[5676],"next_num":1,"trial_type":"ticket-choose","trial_index":99,"time_elapsed":1148120,"internal_node_id":"0.0-99.0"},{"result":150,"points":1,"place":3,"phase":1,"sequence":15,"prices":[150,176,126,251,171,195,165,145,105,200],"times":[1058],"next_num":1,"trial_type":"ticket-choose","trial_index":100,"time_elapsed":1151230,"internal_node_id":"0.0-100.0"},{"result":155,"points":1,"place":3,"phase":1,"sequence":16,"prices":[155,175,166,245,171,190,125,140,101,196],"times":[1257],"next_num":1,"trial_type":"ticket-choose","trial_index":101,"time_elapsed":1154420,"internal_node_id":"0.0-101.0"},{"result":130,"points":2,"place":1,"phase":1,"sequence":17,"prices":[155,181,170,255,176,200,130,150,110,205],"times":[873,612,613,582,610,613,916],"next_num":7,"trial_type":"ticket-choose","trial_index":102,"time_elapsed":1162270,"internal_node_id":"0.0-102.0"},{"result":81,"points":3,"place":0,"phase":1,"sequence":18,"prices":[155,245,155,81,180,130,156,306,166,115],"times":[1268,337,1002,1065],"next_num":4,"trial_type":"ticket-choose","trial_index":103,"time_elapsed":1168238,"internal_node_id":"0.0-103.0"},{"result":131,"points":2,"place":1,"phase":1,"sequence":19,"prices":[161,180,131,251,175,196,171,146,105,201],"times":[1671,1170,786],"next_num":3,"trial_type":"ticket-choose","trial_index":104,"time_elapsed":1174072,"internal_node_id":"0.0-104.0"},{"result":150,"points":1,"place":3,"phase":1,"sequence":20,"prices":[150,171,121,241,165,185,160,136,95,191],"times":[1188],"next_num":1,"trial_type":"ticket-choose","trial_index":105,"time_elapsed":1177011,"internal_node_id":"0.0-105.0"},{"result":131,"points":2,"place":1,"phase":1,"sequence":21,"prices":[161,180,171,250,176,195,131,146,105,201],"times":[647,320,455,408,398,501,909],"next_num":7,"trial_type":"ticket-choose","trial_index":106,"time_elapsed":1183630,"internal_node_id":"0.0-106.0"},{"result":130,"points":3,"place":0,"phase":1,"sequence":22,"prices":[185,175,276,221,130,141,171,216,235,165],"times":[6096,417,619,468,962],"next_num":5,"trial_type":"ticket-choose","trial_index":107,"time_elapsed":1195242,"internal_node_id":"0.0-107.0"},{"result":51,"points":3,"place":0,"phase":1,"sequence":23,"prices":[221,175,51,196,146,130,166,80,126,156],"times":[653,687,785],"next_num":3,"trial_type":"ticket-choose","trial_index":108,"time_elapsed":1199482,"internal_node_id":"0.0-108.0"},{"result":201,"points":0,"place":8,"phase":1,"sequence":24,"prices":[150,175,166,251,170,196,126,145,105,201],"times":[542,439,472,487,711,519,495,540,450,770],"next_num":11,"trial_type":"ticket-choose","trial_index":109,"time_elapsed":1208723,"internal_node_id":"0.0-109.0"},{"result":106,"points":3,"place":0,"phase":1,"sequence":25,"prices":[180,106,166,245,211,261,215,125,135,190],"times":[762,792],"next_num":2,"trial_type":"ticket-choose","trial_index":110,"time_elapsed":1212174,"internal_node_id":"0.0-110.0"},{"result":126,"points":2,"place":1,"phase":1,"sequence":26,"prices":[151,175,166,251,170,195,126,146,105,201],"times":[888,473,518,567,708,1444,865],"next_num":7,"trial_type":"ticket-choose","trial_index":111,"time_elapsed":1220621,"internal_node_id":"0.0-111.0"},{"result":121,"points":2,"place":1,"phase":1,"sequence":27,"prices":[146,170,121,245,166,190,161,141,100,195],"times":[706,519,803],"next_num":3,"trial_type":"ticket-choose","trial_index":112,"time_elapsed":1224703,"internal_node_id":"0.0-112.0"},{"result":145,"points":1,"place":2,"phase":1,"sequence":28,"prices":[135,180,141,151,175,220,145,196,211,155],"times":[536,599,720,646,554,858,963],"next_num":7,"trial_type":"ticket-choose","trial_index":113,"time_elapsed":1232621,"internal_node_id":"0.0-113.0"},{"result":130,"points":3,"place":0,"phase":1,"sequence":29,"prices":[130,195,141,155,181,226,150,216,221,175],"times":[1039],"next_num":1,"trial_type":"ticket-choose","trial_index":114,"time_elapsed":1235503,"internal_node_id":"0.0-114.0"},{"result":120,"points":2,"place":1,"phase":1,"sequence":30,"prices":[186,156,191,120,195,145,45,130,246,176],"times":[865,363,519,738],"next_num":4,"trial_type":"ticket-choose","trial_index":115,"time_elapsed":1240259,"internal_node_id":"0.0-115.0"},{"result":30,"points":3,"place":0,"phase":1,"sequence":31,"prices":[155,30,101,55,136,276,70,181,200,261],"times":[637,701],"next_num":2,"trial_type":"ticket-choose","trial_index":116,"time_elapsed":1243403,"internal_node_id":"0.0-116.0"},{"result":141,"points":1,"place":3,"phase":1,"sequence":32,"prices":[176,150,141,91,290,201,106,266,206,126],"times":[516,528,884],"next_num":3,"trial_type":"ticket-choose","trial_index":117,"time_elapsed":1247530,"internal_node_id":"0.0-117.0"},{"result":131,"points":2,"place":1,"phase":1,"sequence":33,"prices":[160,180,170,251,176,195,131,146,105,200],"times":[932,543,504,668,552,571,961],"next_num":7,"trial_type":"ticket-choose","trial_index":118,"time_elapsed":1255286,"internal_node_id":"0.0-118.0"},{"result":181,"points":1,"place":4,"phase":1,"sequence":34,"prices":[95,205,106,151,186,271,145,210,215,181],"times":[1358,549,246,397,540,481,552,504,366,469],"next_num":11,"trial_type":"ticket-choose","trial_index":119,"time_elapsed":1265127,"internal_node_id":"0.0-119.0"},{"result":65,"points":2,"place":1,"phase":1,"sequence":35,"prices":[220,236,176,65,185,101,110,61,156,191],"times":[2032,1319,643,795],"next_num":4,"trial_type":"ticket-choose","trial_index":120,"time_elapsed":1272197,"internal_node_id":"0.0-120.0"},{"result":106,"points":2,"place":1,"phase":1,"sequence":36,"prices":[185,180,235,210,106,266,76,115,250,205],"times":[2499,559,602,531,934],"next_num":5,"trial_type":"ticket-choose","trial_index":121,"time_elapsed":1279909,"internal_node_id":"0.0-121.0"},{"result":121,"points":2,"place":1,"phase":1,"sequence":37,"prices":[150,170,160,240,166,185,121,136,95,191],"times":[1289,451,488,487,811,478,801],"next_num":7,"trial_type":"ticket-choose","trial_index":122,"time_elapsed":1287640,"internal_node_id":"0.0-122.0"},{"result":120,"points":3,"place":0,"phase":1,"sequence":38,"prices":[120,221,135,185,200,261,181,251,255,196],"times":[5847],"next_num":1,"trial_type":"ticket-choose","trial_index":123,"time_elapsed":1295485,"internal_node_id":"0.0-123.0"},{"result":156,"points":1,"place":3,"phase":1,"sequence":39,"prices":[156,175,126,246,170,190,165,140,100,196],"times":[3051],"next_num":1,"trial_type":"ticket-choose","trial_index":124,"time_elapsed":1300576,"internal_node_id":"0.0-124.0"},{"result":101,"points":3,"place":0,"phase":1,"sequence":40,"prices":[156,175,125,245,170,190,165,140,101,196],"times":[2190,398,462,504,514,579,572,524,789],"next_num":9,"trial_type":"ticket-choose","trial_index":125,"time_elapsed":1310592,"internal_node_id":"0.0-125.0"},{"result":120,"points":2,"place":1,"phase":1,"sequence":41,"prices":[146,171,120,245,165,191,160,140,100,196],"times":[3059,530,731],"next_num":3,"trial_type":"ticket-choose","trial_index":126,"time_elapsed":1317124,"internal_node_id":"0.0-126.0"},{"result":136,"points":1,"place":2,"phase":1,"sequence":42,"prices":[255,166,266,175,136,145,155,61,96,301],"times":[6640,797,544,2240,1649],"next_num":5,"trial_type":"ticket-choose","trial_index":127,"time_elapsed":1331583,"internal_node_id":"0.0-127.0"},{"result":130,"points":2,"place":1,"phase":1,"sequence":43,"prices":[155,225,245,130,176,106,180,211,165,200],"times":[1219,546,521,820],"next_num":4,"trial_type":"ticket-choose","trial_index":128,"time_elapsed":1337178,"internal_node_id":"0.0-128.0"},{"result":156,"points":1,"place":4,"phase":1,"sequence":44,"prices":[75,171,131,151,161,250,145,190,206,156],"times":[990,474,537,393,509,358,360,805,428,358],"next_num":11,"trial_type":"ticket-choose","trial_index":129,"time_elapsed":1347171,"internal_node_id":"0.0-129.0"},{"result":101,"points":3,"place":0,"phase":1,"sequence":45,"prices":[156,176,165,246,171,190,126,141,101,196],"times":[1244,468,672,486,818,549,459,528,815],"next_num":9,"trial_type":"ticket-choose","trial_index":130,"time_elapsed":1356640,"internal_node_id":"0.0-130.0"},{"result":111,"points":3,"place":0,"phase":1,"sequence":46,"prices":[156,181,130,255,175,200,170,150,111,205],"times":[1484,393,375,390,425,574,618,497,862],"next_num":9,"trial_type":"ticket-choose","trial_index":131,"time_elapsed":1365692,"internal_node_id":"0.0-131.0"},{"result":116,"points":3,"place":0,"phase":1,"sequence":47,"prices":[176,150,276,171,261,116,130,201,166,231],"times":[1081,800,513,725,504,860],"next_num":6,"trial_type":"ticket-choose","trial_index":132,"time_elapsed":1373100,"internal_node_id":"0.0-132.0"},{"result":105,"points":3,"place":0,"phase":1,"sequence":48,"prices":[151,176,126,251,170,196,165,145,105,201],"times":[1014,440,415,434,516,488,519,616,1386],"next_num":9,"trial_type":"ticket-choose","trial_index":133,"time_elapsed":1382470,"internal_node_id":"0.0-133.0"},{"result":96,"points":3,"place":0,"phase":1,"sequence":49,"prices":[150,170,160,241,166,186,120,136,96,191],"times":[1506,395,405,437,481,459,403,441,804],"next_num":9,"trial_type":"ticket-choose","trial_index":134,"time_elapsed":1391170,"internal_node_id":"0.0-134.0"},{"responses":[{"value":3,"offby":2,"category":"$30 - $75","category_index":0},{"value":5,"offby":3,"category":"$76 - $120","category_index":1},{"value":5,"offby":1,"category":"$121 - $165","category_index":2},{"value":6,"offby":0,"category":"$166 - $210","category_index":3},{"value":1,"offby":-5,"category":"$211 - $255","category_index":4},{"value":0,"offby":-1,"category":"$256 - $300","category_index":5},{"value":0,"offby":0,"category":"$301 - $345","category_index":6}],"phase":1,"number":1,"trial_type":"bar-choose","trial_index":135,"time_elapsed":1410626,"internal_node_id":"0.0-135.0"},{"special_comment":"NotReally","trial_type":"special_sequence","trial_index":136,"time_elapsed":1430650,"internal_node_id":"0.0-136.0"},{"during":"Nothing","bonus":276,"trial_type":"final","trial_index":137,"time_elapsed":1450935,"internal_node_id":"0.0-137.0"}],"bonus":276}