{"start_time":"2017-02-16 17:13:11","end_time":"2017-02-16 17:44:51","points_phase0":113,"points_phase1":116,"phase_order":0,"age":33,"gender":"f","tries":1,"during":"Nothing","worker_id":"A2OFN0A5CPLH57","assignment_id":"3YMTUJH0DT9BNFP0J3O3U38AUY24TL","data":[{"rt":25687,"url":"\/tickets\/utils\/consent.html","trial_type":"html","trial_index":0,"time_elapsed":26549,"internal_node_id":"0.0-0.0"},{"age":33,"gender":"f","trial_type":"age","trial_index":1,"time_elapsed":33937,"internal_node_id":"0.0-1.0"},{"worker_id":"A2OFN0A5CPLH57","trial_type":"workerid","trial_index":2,"time_elapsed":43757,"internal_node_id":"0.0-2.0"},{"tries":1,"trial_type":"instructions_check","trial_index":3,"time_elapsed":74936,"internal_node_id":"0.0-3.0"},{"rt":11172,"url":"\/tickets\/utils\/start.html","trial_type":"html","trial_index":4,"time_elapsed":87312,"internal_node_id":"0.0-4.0"},{"trial_type":"number-animation","trial_index":5,"time_elapsed":152478,"internal_node_id":"0.0-5.0"},{"phase":0,"sequence":0,"avg":181,"response":180,"trial_type":"training_avg","trial_index":6,"time_elapsed":178090,"internal_node_id":"0.0-6.0"},{"trial_type":"number-animation","trial_index":7,"time_elapsed":225838,"internal_node_id":"0.0-7.0"},{"phase":0,"sequence":1,"avg":188,"response":188,"trial_type":"training_avg","trial_index":8,"time_elapsed":255234,"internal_node_id":"0.0-8.0"},{"trial_type":"number-animation","trial_index":9,"time_elapsed":282835,"internal_node_id":"0.0-9.0"},{"phase":0,"sequence":2,"avg":188,"response":188,"trial_type":"training_avg","trial_index":10,"time_elapsed":306649,"internal_node_id":"0.0-10.0"},{"trial_type":"number-animation","trial_index":11,"time_elapsed":341170,"internal_node_id":"0.0-11.0"},{"phase":0,"sequence":3,"avg":177,"response":177,"trial_type":"training_avg","trial_index":12,"time_elapsed":359648,"internal_node_id":"0.0-12.0"},{"trial_type":"number-animation","trial_index":13,"time_elapsed":394596,"internal_node_id":"0.0-13.0"},{"phase":0,"sequence":4,"avg":182,"response":182,"trial_type":"training_avg","trial_index":14,"time_elapsed":415176,"internal_node_id":"0.0-14.0"},{"responses":[{"value":2,"offby":2,"category":"$106 - $134","category_index":0},{"value":3,"offby":2,"category":"$135 - $150","category_index":1},{"value":2,"offby":-1,"category":"$151 - $165","category_index":2},{"value":5,"offby":-1,"category":"$166 - $180","category_index":3},{"value":3,"offby":-3,"category":"$181 - $195","category_index":4},{"value":3,"offby":0,"category":"$196 - $210","category_index":5},{"value":2,"offby":1,"category":"$211 - $225","category_index":6}],"phase":0,"number":0,"trial_type":"bar-choose","trial_index":15,"time_elapsed":528760,"internal_node_id":"0.0-15.0"},{"rt":28194,"url":"\/tickets\/\/utils\/testing.html","trial_type":"html","trial_index":16,"time_elapsed":558161,"internal_node_id":"0.0-16.0"},{"phase":0,"order":[17,47,20,37,26,4,45,12,43,2,34,38,44,11,16,27,3,5,46,22,42,29,40,10,9,31,49,0,14,30,35,8,19,32,21,36,23,24,15,1,39,6,33,13,28,41,25,7,18,48],"trial_type":"store_order","trial_index":17,"time_elapsed":559165,"internal_node_id":"0.0-17.0"},{"result":165,"points":2,"place":1,"phase":0,"sequence":-1,"times":[4746,1833,689,5744],"next_num":4,"trial_type":"ticket-choose","trial_index":18,"time_elapsed":576362,"internal_node_id":"0.0-18.0"},{"rt":20020,"url":"\/tickets\/utils\/testing_after.html","trial_type":"html","trial_index":19,"time_elapsed":597910,"internal_node_id":"0.0-19.0"},{"result":154,"points":3,"place":0,"phase":0,"sequence":0,"times":[300,7064,6667,620,554,566,3296,4094,743,2899],"next_num":10,"trial_type":"ticket-choose","trial_index":20,"time_elapsed":633932,"internal_node_id":"0.0-20.0"},{"result":152,"points":3,"place":0,"phase":0,"sequence":1,"times":[1448,1108,595,1695],"next_num":4,"trial_type":"ticket-choose","trial_index":21,"time_elapsed":642775,"internal_node_id":"0.0-21.0"},{"result":158,"points":2,"place":1,"phase":0,"sequence":2,"times":[1225,513,899,526,702,664,1491],"next_num":7,"trial_type":"ticket-choose","trial_index":22,"time_elapsed":653948,"internal_node_id":"0.0-22.0"},{"result":152,"points":3,"place":0,"phase":0,"sequence":3,"times":[884,634,1837,1535,517,482,1715],"next_num":7,"trial_type":"ticket-choose","trial_index":23,"time_elapsed":666127,"internal_node_id":"0.0-23.0"},{"result":152,"points":3,"place":0,"phase":0,"sequence":4,"times":[1996],"next_num":1,"trial_type":"ticket-choose","trial_index":24,"time_elapsed":672037,"internal_node_id":"0.0-24.0"},{"result":163,"points":2,"place":1,"phase":0,"sequence":5,"times":[3688,402,521,452,588,530,1827],"next_num":7,"trial_type":"ticket-choose","trial_index":25,"time_elapsed":683806,"internal_node_id":"0.0-25.0"},{"result":164,"points":3,"place":0,"phase":0,"sequence":6,"times":[1967,444,445,427,829,528,452,2192],"next_num":8,"trial_type":"ticket-choose","trial_index":26,"time_elapsed":695327,"internal_node_id":"0.0-26.0"},{"result":167,"points":2,"place":1,"phase":0,"sequence":7,"times":[569,396,425,487,466,1087,1888],"next_num":7,"trial_type":"ticket-choose","trial_index":27,"time_elapsed":704291,"internal_node_id":"0.0-27.0"},{"result":157,"points":3,"place":0,"phase":0,"sequence":8,"times":[756,415,1586],"next_num":3,"trial_type":"ticket-choose","trial_index":28,"time_elapsed":709902,"internal_node_id":"0.0-28.0"},{"result":153,"points":3,"place":0,"phase":0,"sequence":9,"times":[1170,490,1227,446,452,443,755,1945,1427],"next_num":9,"trial_type":"ticket-choose","trial_index":29,"time_elapsed":722435,"internal_node_id":"0.0-29.0"},{"result":155,"points":2,"place":1,"phase":0,"sequence":10,"times":[716,1685],"next_num":2,"trial_type":"ticket-choose","trial_index":30,"time_elapsed":727648,"internal_node_id":"0.0-30.0"},{"result":166,"points":2,"place":1,"phase":0,"sequence":11,"times":[591,466,441,425,568,508,885,1050,1202,1458],"next_num":10,"trial_type":"ticket-choose","trial_index":31,"time_elapsed":739753,"internal_node_id":"0.0-31.0"},{"result":159,"points":1,"place":2,"phase":0,"sequence":12,"times":[783,1863],"next_num":2,"trial_type":"ticket-choose","trial_index":32,"time_elapsed":746415,"internal_node_id":"0.0-32.0"},{"result":153,"points":3,"place":0,"phase":0,"sequence":13,"times":[611,326,372,727,468,498,781,952,517,1385],"next_num":10,"trial_type":"ticket-choose","trial_index":33,"time_elapsed":758542,"internal_node_id":"0.0-33.0"},{"result":158,"points":2,"place":1,"phase":0,"sequence":14,"times":[1019,439,1502],"next_num":3,"trial_type":"ticket-choose","trial_index":34,"time_elapsed":764379,"internal_node_id":"0.0-34.0"},{"result":186,"points":1,"place":4,"phase":0,"sequence":15,"times":[480,409,718,455,442,575,1566,615,641,1314],"next_num":10,"trial_type":"ticket-choose","trial_index":35,"time_elapsed":776417,"internal_node_id":"0.0-35.0"},{"result":165,"points":1,"place":2,"phase":0,"sequence":16,"times":[1586,470,564,418,472,603,478,1702],"next_num":8,"trial_type":"ticket-choose","trial_index":36,"time_elapsed":787074,"internal_node_id":"0.0-36.0"},{"result":163,"points":2,"place":1,"phase":0,"sequence":17,"times":[559,448,489,470,522,665,1540],"next_num":7,"trial_type":"ticket-choose","trial_index":37,"time_elapsed":795565,"internal_node_id":"0.0-37.0"},{"result":158,"points":3,"place":0,"phase":0,"sequence":18,"times":[790,446,459,500,481,1588],"next_num":6,"trial_type":"ticket-choose","trial_index":38,"time_elapsed":803828,"internal_node_id":"0.0-38.0"},{"result":158,"points":2,"place":1,"phase":0,"sequence":19,"times":[818,436,453,468,439,459,1482],"next_num":7,"trial_type":"ticket-choose","trial_index":39,"time_elapsed":812020,"internal_node_id":"0.0-39.0"},{"result":143,"points":3,"place":0,"phase":0,"sequence":20,"times":[557,485,422,460,3871],"next_num":5,"trial_type":"ticket-choose","trial_index":40,"time_elapsed":821695,"internal_node_id":"0.0-40.0"},{"result":150,"points":3,"place":0,"phase":0,"sequence":21,"times":[2781],"next_num":1,"trial_type":"ticket-choose","trial_index":41,"time_elapsed":827065,"internal_node_id":"0.0-41.0"},{"result":150,"points":3,"place":0,"phase":0,"sequence":22,"times":[907,1332],"next_num":2,"trial_type":"ticket-choose","trial_index":42,"time_elapsed":831841,"internal_node_id":"0.0-42.0"},{"result":169,"points":1,"place":2,"phase":0,"sequence":23,"times":[619,652,1205,460,456,402,463,3905],"next_num":8,"trial_type":"ticket-choose","trial_index":43,"time_elapsed":844095,"internal_node_id":"0.0-43.0"},{"result":156,"points":3,"place":0,"phase":0,"sequence":24,"times":[612,410,818,416,409,457,493,1397,469,1494],"next_num":10,"trial_type":"ticket-choose","trial_index":44,"time_elapsed":855428,"internal_node_id":"0.0-44.0"},{"result":148,"points":3,"place":0,"phase":0,"sequence":25,"times":[1536],"next_num":1,"trial_type":"ticket-choose","trial_index":45,"time_elapsed":859480,"internal_node_id":"0.0-45.0"},{"result":148,"points":3,"place":0,"phase":0,"sequence":26,"times":[1390,1228,516,499,842,1570],"next_num":6,"trial_type":"ticket-choose","trial_index":46,"time_elapsed":868975,"internal_node_id":"0.0-46.0"},{"result":153,"points":3,"place":0,"phase":0,"sequence":27,"times":[888,457,659,425,441,488,607,846,1561],"next_num":9,"trial_type":"ticket-choose","trial_index":47,"time_elapsed":879763,"internal_node_id":"0.0-47.0"},{"result":153,"points":3,"place":0,"phase":0,"sequence":28,"times":[563,437,504,434,453,587,462,771,606,1237],"next_num":10,"trial_type":"ticket-choose","trial_index":48,"time_elapsed":890276,"internal_node_id":"0.0-48.0"},{"result":176,"points":1,"place":4,"phase":0,"sequence":29,"times":[589,516,619,439,454,613,613,484,530,1386],"next_num":10,"trial_type":"ticket-choose","trial_index":49,"time_elapsed":900769,"internal_node_id":"0.0-49.0"},{"result":154,"points":2,"place":1,"phase":0,"sequence":30,"times":[1817,1499],"next_num":2,"trial_type":"ticket-choose","trial_index":50,"time_elapsed":907166,"internal_node_id":"0.0-50.0"},{"result":156,"points":3,"place":0,"phase":0,"sequence":31,"times":[727,444,418,434,480,435,470,643,595,1328],"next_num":10,"trial_type":"ticket-choose","trial_index":51,"time_elapsed":917234,"internal_node_id":"0.0-51.0"},{"result":158,"points":2,"place":1,"phase":0,"sequence":32,"times":[901,532,1561],"next_num":3,"trial_type":"ticket-choose","trial_index":52,"time_elapsed":923066,"internal_node_id":"0.0-52.0"},{"result":188,"points":1,"place":4,"phase":0,"sequence":33,"times":[939,457,439,471,478,481,455,727,657,1772],"next_num":10,"trial_type":"ticket-choose","trial_index":53,"time_elapsed":939713,"internal_node_id":"0.0-53.0"},{"result":158,"points":2,"place":1,"phase":0,"sequence":34,"times":[1650,555,442,558,814,776,1529],"next_num":7,"trial_type":"ticket-choose","trial_index":54,"time_elapsed":949749,"internal_node_id":"0.0-54.0"},{"result":154,"points":3,"place":0,"phase":0,"sequence":35,"times":[703,474,753,422,431,436,415,1309],"next_num":8,"trial_type":"ticket-choose","trial_index":55,"time_elapsed":958527,"internal_node_id":"0.0-55.0"},{"result":158,"points":2,"place":1,"phase":0,"sequence":36,"times":[1051,479,417,422,544,477,1453],"next_num":7,"trial_type":"ticket-choose","trial_index":56,"time_elapsed":966971,"internal_node_id":"0.0-56.0"},{"result":184,"points":1,"place":4,"phase":0,"sequence":37,"times":[643,356,411,537,480,439,471,490,828,1295],"next_num":10,"trial_type":"ticket-choose","trial_index":57,"time_elapsed":977344,"internal_node_id":"0.0-57.0"},{"result":153,"points":3,"place":0,"phase":0,"sequence":38,"times":[734,431,425,495,446,457,1953,760,558,1150],"next_num":10,"trial_type":"ticket-choose","trial_index":58,"time_elapsed":993291,"internal_node_id":"0.0-58.0"},{"result":154,"points":3,"place":0,"phase":0,"sequence":39,"times":[970,492,649,430,451,423,468,702,1469],"next_num":9,"trial_type":"ticket-choose","trial_index":59,"time_elapsed":1003612,"internal_node_id":"0.0-59.0"},{"result":171,"points":1,"place":3,"phase":0,"sequence":40,"times":[572,1102,454,451,531,472,540,513,634,1290],"next_num":10,"trial_type":"ticket-choose","trial_index":60,"time_elapsed":1014975,"internal_node_id":"0.0-60.0"},{"result":163,"points":2,"place":1,"phase":0,"sequence":41,"times":[775,426,492,448,446,427,2542],"next_num":7,"trial_type":"ticket-choose","trial_index":61,"time_elapsed":1024410,"internal_node_id":"0.0-61.0"},{"result":170,"points":1,"place":4,"phase":0,"sequence":42,"times":[627,550,428,471,444,525,537,1077,816,1265],"next_num":10,"trial_type":"ticket-choose","trial_index":62,"time_elapsed":1035685,"internal_node_id":"0.0-62.0"},{"result":168,"points":1,"place":2,"phase":0,"sequence":43,"times":[752,505,447,445,522,502,1735,3257],"next_num":8,"trial_type":"ticket-choose","trial_index":63,"time_elapsed":1047948,"internal_node_id":"0.0-63.0"},{"result":185,"points":1,"place":4,"phase":0,"sequence":44,"times":[797,448,417,458,432,594,771,619,631,1541],"next_num":10,"trial_type":"ticket-choose","trial_index":64,"time_elapsed":1059181,"internal_node_id":"0.0-64.0"},{"result":155,"points":2,"place":1,"phase":0,"sequence":45,"times":[745,401,1601],"next_num":3,"trial_type":"ticket-choose","trial_index":65,"time_elapsed":1064758,"internal_node_id":"0.0-65.0"},{"result":156,"points":3,"place":0,"phase":0,"sequence":46,"times":[1833],"next_num":1,"trial_type":"ticket-choose","trial_index":66,"time_elapsed":1069102,"internal_node_id":"0.0-66.0"},{"result":163,"points":2,"place":1,"phase":0,"sequence":47,"times":[1238,421,436,425,440,456,2316],"next_num":7,"trial_type":"ticket-choose","trial_index":67,"time_elapsed":1078323,"internal_node_id":"0.0-67.0"},{"result":153,"points":3,"place":0,"phase":0,"sequence":48,"times":[858,477,349,487,519,467,498,964,512,1337],"next_num":10,"trial_type":"ticket-choose","trial_index":68,"time_elapsed":1089394,"internal_node_id":"0.0-68.0"},{"result":147,"points":3,"place":0,"phase":0,"sequence":49,"times":[1051,511,591,1883],"next_num":4,"trial_type":"ticket-choose","trial_index":69,"time_elapsed":1096773,"internal_node_id":"0.0-69.0"},{"responses":[{"value":2,"offby":2,"category":"$106 - $134","category_index":0},{"value":2,"offby":1,"category":"$135 - $150","category_index":1},{"value":3,"offby":0,"category":"$151 - $165","category_index":2},{"value":5,"offby":-1,"category":"$166 - $180","category_index":3},{"value":4,"offby":-2,"category":"$181 - $195","category_index":4},{"value":2,"offby":-1,"category":"$196 - $210","category_index":5},{"value":2,"offby":1,"category":"$211 - $225","category_index":6}],"phase":0,"number":1,"trial_type":"bar-choose","trial_index":70,"time_elapsed":1129594,"internal_node_id":"0.0-70.0"},{"rt":9548,"url":"\/tickets\/utils\/start2.html","trial_type":"html","trial_index":71,"time_elapsed":1140339,"internal_node_id":"0.0-71.0"},{"trial_type":"number-animation","trial_index":72,"time_elapsed":1174420,"internal_node_id":"0.0-72.0"},{"phase":1,"sequence":0,"avg":182,"response":182,"trial_type":"training_avg","trial_index":73,"time_elapsed":1209071,"internal_node_id":"0.0-73.0"},{"trial_type":"number-animation","trial_index":74,"time_elapsed":1240508,"internal_node_id":"0.0-74.0"},{"phase":1,"sequence":1,"avg":188,"response":188,"trial_type":"training_avg","trial_index":75,"time_elapsed":1258518,"internal_node_id":"0.0-75.0"},{"trial_type":"number-animation","trial_index":76,"time_elapsed":1286997,"internal_node_id":"0.0-76.0"},{"phase":1,"sequence":2,"avg":176,"response":176,"trial_type":"training_avg","trial_index":77,"time_elapsed":1299700,"internal_node_id":"0.0-77.0"},{"trial_type":"number-animation","trial_index":78,"time_elapsed":1327609,"internal_node_id":"0.0-78.0"},{"phase":1,"sequence":3,"avg":180,"response":180,"trial_type":"training_avg","trial_index":79,"time_elapsed":1343443,"internal_node_id":"0.0-79.0"},{"trial_type":"number-animation","trial_index":80,"time_elapsed":1370343,"internal_node_id":"0.0-80.0"},{"phase":1,"sequence":4,"avg":174,"response":174,"trial_type":"training_avg","trial_index":81,"time_elapsed":1382101,"internal_node_id":"0.0-81.0"},{"responses":[{"value":2,"offby":1,"category":"$90 - $120","category_index":0},{"value":3,"offby":0,"category":"$121 - $145","category_index":1},{"value":4,"offby":1,"category":"$146 - $170","category_index":2},{"value":5,"offby":-1,"category":"$171 - $195","category_index":3},{"value":2,"offby":-2,"category":"$196 - $220","category_index":4},{"value":2,"offby":0,"category":"$221 - $245","category_index":5},{"value":2,"offby":1,"category":"$246 - $270","category_index":6}],"phase":1,"number":0,"trial_type":"bar-choose","trial_index":82,"time_elapsed":1413565,"internal_node_id":"0.0-82.0"},{"rt":12295,"url":"\/tickets\/utils\/testing2.html","trial_type":"html","trial_index":83,"time_elapsed":1427092,"internal_node_id":"0.0-83.0"},{"phase":1,"order":[12,45,36,44,30,16,10,4,15,31,41,37,13,7,3,47,22,46,39,38,8,17,35,18,33,6,2,9,24,32,1,26,0,25,42,43,27,49,48,11,29,23,34,28,5,20,14,21,19,40],"trial_type":"store_order","trial_index":84,"time_elapsed":1428096,"internal_node_id":"0.0-84.0"},{"result":132,"points":3,"place":0,"phase":1,"sequence":0,"times":[1837,485,456,643,479,466,449,1767,871,1234],"next_num":10,"trial_type":"ticket-choose","trial_index":85,"time_elapsed":1441547,"internal_node_id":"0.0-85.0"},{"result":154,"points":2,"place":1,"phase":1,"sequence":1,"times":[2403,1171,659,481,1834],"next_num":5,"trial_type":"ticket-choose","trial_index":86,"time_elapsed":1451198,"internal_node_id":"0.0-86.0"},{"result":149,"points":2,"place":1,"phase":1,"sequence":2,"times":[712,511,2434],"next_num":3,"trial_type":"ticket-choose","trial_index":87,"time_elapsed":1457660,"internal_node_id":"0.0-87.0"},{"result":138,"points":1,"place":2,"phase":1,"sequence":3,"times":[977,1497],"next_num":2,"trial_type":"ticket-choose","trial_index":88,"time_elapsed":1462399,"internal_node_id":"0.0-88.0"},{"result":135,"points":3,"place":0,"phase":1,"sequence":4,"times":[2438],"next_num":1,"trial_type":"ticket-choose","trial_index":89,"time_elapsed":1467300,"internal_node_id":"0.0-89.0"},{"result":136,"points":2,"place":1,"phase":1,"sequence":5,"times":[1254,435,1427],"next_num":3,"trial_type":"ticket-choose","trial_index":90,"time_elapsed":1473142,"internal_node_id":"0.0-90.0"},{"result":126,"points":3,"place":0,"phase":1,"sequence":6,"times":[612,477,460,485,525,460,467,1158,451,1390],"next_num":10,"trial_type":"ticket-choose","trial_index":91,"time_elapsed":1486372,"internal_node_id":"0.0-91.0"},{"result":126,"points":3,"place":0,"phase":1,"sequence":7,"times":[723,411,394,471,431,433,1715,727,1682],"next_num":9,"trial_type":"ticket-choose","trial_index":92,"time_elapsed":1497273,"internal_node_id":"0.0-92.0"},{"result":126,"points":3,"place":0,"phase":1,"sequence":8,"times":[771,494,565,532,3093,433,2072,716,882,1102],"next_num":10,"trial_type":"ticket-choose","trial_index":93,"time_elapsed":1512085,"internal_node_id":"0.0-93.0"},{"result":117,"points":3,"place":0,"phase":1,"sequence":9,"times":[1591],"next_num":1,"trial_type":"ticket-choose","trial_index":94,"time_elapsed":1515954,"internal_node_id":"0.0-94.0"},{"result":131,"points":2,"place":1,"phase":1,"sequence":10,"times":[801,468,1491],"next_num":3,"trial_type":"ticket-choose","trial_index":95,"time_elapsed":1521404,"internal_node_id":"0.0-95.0"},{"result":124,"points":3,"place":0,"phase":1,"sequence":11,"times":[663,447,515,543,435,457,1543],"next_num":7,"trial_type":"ticket-choose","trial_index":96,"time_elapsed":1529565,"internal_node_id":"0.0-96.0"},{"result":131,"points":3,"place":0,"phase":1,"sequence":12,"times":[649,447,445,563,442,522,1184,452,493,1272],"next_num":10,"trial_type":"ticket-choose","trial_index":97,"time_elapsed":1540267,"internal_node_id":"0.0-97.0"},{"result":127,"points":3,"place":0,"phase":1,"sequence":13,"times":[992,383,481,529,513,620,1189,806,1846],"next_num":9,"trial_type":"ticket-choose","trial_index":98,"time_elapsed":1551435,"internal_node_id":"0.0-98.0"},{"result":126,"points":3,"place":0,"phase":1,"sequence":14,"times":[544,469,479,433,421,431,505,1120,1490],"next_num":9,"trial_type":"ticket-choose","trial_index":99,"time_elapsed":1561333,"internal_node_id":"0.0-99.0"},{"result":124,"points":3,"place":0,"phase":1,"sequence":15,"times":[614,564,398,1570],"next_num":4,"trial_type":"ticket-choose","trial_index":100,"time_elapsed":1567337,"internal_node_id":"0.0-100.0"},{"result":136,"points":2,"place":1,"phase":1,"sequence":16,"times":[600,505,528,447,442,474,1564],"next_num":7,"trial_type":"ticket-choose","trial_index":101,"time_elapsed":1575286,"internal_node_id":"0.0-101.0"},{"result":236,"points":0,"place":6,"phase":1,"sequence":17,"times":[560,461,664,476,523,1561,496,541,504,2299],"next_num":10,"trial_type":"ticket-choose","trial_index":102,"time_elapsed":1587676,"internal_node_id":"0.0-102.0"},{"result":162,"points":1,"place":3,"phase":1,"sequence":18,"times":[556,564,446,518,535,467,568,692,769,1221],"next_num":10,"trial_type":"ticket-choose","trial_index":103,"time_elapsed":1600955,"internal_node_id":"0.0-103.0"},{"result":146,"points":3,"place":0,"phase":1,"sequence":19,"times":[1464,635,465,393,447,395,492,1440],"next_num":8,"trial_type":"ticket-choose","trial_index":104,"time_elapsed":1610796,"internal_node_id":"0.0-104.0"},{"result":156,"points":1,"place":2,"phase":1,"sequence":20,"times":[473,435,1380,402,538,511,564,2199],"next_num":8,"trial_type":"ticket-choose","trial_index":105,"time_elapsed":1621008,"internal_node_id":"0.0-105.0"},{"result":136,"points":2,"place":1,"phase":1,"sequence":21,"times":[546,444,1419],"next_num":3,"trial_type":"ticket-choose","trial_index":106,"time_elapsed":1626030,"internal_node_id":"0.0-106.0"},{"result":129,"points":2,"place":1,"phase":1,"sequence":22,"times":[1003,1390],"next_num":2,"trial_type":"ticket-choose","trial_index":107,"time_elapsed":1630647,"internal_node_id":"0.0-107.0"},{"result":136,"points":2,"place":1,"phase":1,"sequence":23,"times":[540,513,1304],"next_num":3,"trial_type":"ticket-choose","trial_index":108,"time_elapsed":1635538,"internal_node_id":"0.0-108.0"},{"result":137,"points":3,"place":0,"phase":1,"sequence":24,"times":[2350],"next_num":1,"trial_type":"ticket-choose","trial_index":109,"time_elapsed":1640056,"internal_node_id":"0.0-109.0"},{"result":125,"points":3,"place":0,"phase":1,"sequence":25,"times":[532,400,460,451,522,483,905,1186,1350],"next_num":9,"trial_type":"ticket-choose","trial_index":110,"time_elapsed":1650215,"internal_node_id":"0.0-110.0"},{"result":126,"points":3,"place":0,"phase":1,"sequence":26,"times":[1116,440,788,448,558,621,556,818,1629],"next_num":9,"trial_type":"ticket-choose","trial_index":111,"time_elapsed":1661100,"internal_node_id":"0.0-111.0"},{"result":133,"points":3,"place":0,"phase":1,"sequence":27,"times":[2296,466,765,467,508,444,495,485,637,1195],"next_num":10,"trial_type":"ticket-choose","trial_index":112,"time_elapsed":1673537,"internal_node_id":"0.0-112.0"},{"result":188,"points":1,"place":4,"phase":1,"sequence":28,"times":[1438,374,469,440,412,382,558,519,486,1388],"next_num":10,"trial_type":"ticket-choose","trial_index":113,"time_elapsed":1683979,"internal_node_id":"0.0-113.0"},{"result":196,"points":1,"place":4,"phase":1,"sequence":29,"times":[991,410,633,442,419,1215,448,483,968,1294],"next_num":10,"trial_type":"ticket-choose","trial_index":114,"time_elapsed":1695272,"internal_node_id":"0.0-114.0"},{"result":146,"points":2,"place":1,"phase":1,"sequence":30,"times":[690,452,1862],"next_num":3,"trial_type":"ticket-choose","trial_index":115,"time_elapsed":1700850,"internal_node_id":"0.0-115.0"},{"result":124,"points":3,"place":0,"phase":1,"sequence":31,"times":[1467],"next_num":1,"trial_type":"ticket-choose","trial_index":116,"time_elapsed":1704870,"internal_node_id":"0.0-116.0"},{"result":146,"points":2,"place":1,"phase":1,"sequence":32,"times":[888,467,2090],"next_num":3,"trial_type":"ticket-choose","trial_index":117,"time_elapsed":1711036,"internal_node_id":"0.0-117.0"},{"result":132,"points":3,"place":0,"phase":1,"sequence":33,"times":[1368],"next_num":1,"trial_type":"ticket-choose","trial_index":118,"time_elapsed":1714781,"internal_node_id":"0.0-118.0"},{"result":105,"points":3,"place":0,"phase":1,"sequence":34,"times":[763,484,440,445,1464],"next_num":5,"trial_type":"ticket-choose","trial_index":119,"time_elapsed":1721646,"internal_node_id":"0.0-119.0"},{"result":135,"points":3,"place":0,"phase":1,"sequence":35,"times":[1092,424,1532],"next_num":3,"trial_type":"ticket-choose","trial_index":120,"time_elapsed":1727305,"internal_node_id":"0.0-120.0"},{"result":192,"points":1,"place":4,"phase":1,"sequence":36,"times":[1232,374,544,438,377,422,540,463,472,1449],"next_num":10,"trial_type":"ticket-choose","trial_index":121,"time_elapsed":1737571,"internal_node_id":"0.0-121.0"},{"result":116,"points":3,"place":0,"phase":1,"sequence":37,"times":[592,436,468,452,628,1409],"next_num":6,"trial_type":"ticket-choose","trial_index":122,"time_elapsed":1745314,"internal_node_id":"0.0-122.0"},{"result":114,"points":3,"place":0,"phase":1,"sequence":38,"times":[2797,635,1123,1496],"next_num":4,"trial_type":"ticket-choose","trial_index":123,"time_elapsed":1754548,"internal_node_id":"0.0-123.0"},{"result":127,"points":3,"place":0,"phase":1,"sequence":39,"times":[771,459,1359,436,407,438,633,835,546,1059],"next_num":10,"trial_type":"ticket-choose","trial_index":124,"time_elapsed":1765626,"internal_node_id":"0.0-124.0"},{"result":121,"points":3,"place":0,"phase":1,"sequence":40,"times":[1434],"next_num":1,"trial_type":"ticket-choose","trial_index":125,"time_elapsed":1769043,"internal_node_id":"0.0-125.0"},{"result":136,"points":2,"place":1,"phase":1,"sequence":41,"times":[1056,458,428,464,489,436,1287],"next_num":7,"trial_type":"ticket-choose","trial_index":126,"time_elapsed":1776950,"internal_node_id":"0.0-126.0"},{"result":130,"points":2,"place":1,"phase":1,"sequence":42,"times":[591,1285],"next_num":2,"trial_type":"ticket-choose","trial_index":127,"time_elapsed":1781244,"internal_node_id":"0.0-127.0"},{"result":189,"points":1,"place":4,"phase":1,"sequence":43,"times":[733,399,609,608,459,430,487,615,732,1086],"next_num":10,"trial_type":"ticket-choose","trial_index":128,"time_elapsed":1791568,"internal_node_id":"0.0-128.0"},{"result":146,"points":2,"place":1,"phase":1,"sequence":44,"times":[707,1456,869,433,414,480,1434],"next_num":7,"trial_type":"ticket-choose","trial_index":129,"time_elapsed":1800763,"internal_node_id":"0.0-129.0"},{"result":136,"points":2,"place":1,"phase":1,"sequence":45,"times":[883,440,460,478,440,921,1368],"next_num":7,"trial_type":"ticket-choose","trial_index":130,"time_elapsed":1809519,"internal_node_id":"0.0-130.0"},{"result":154,"points":2,"place":1,"phase":1,"sequence":46,"times":[767,480,499,542,586,677,1429],"next_num":7,"trial_type":"ticket-choose","trial_index":131,"time_elapsed":1818207,"internal_node_id":"0.0-131.0"},{"result":136,"points":2,"place":1,"phase":1,"sequence":47,"times":[691,429,594,483,1117,479,1688],"next_num":7,"trial_type":"ticket-choose","trial_index":132,"time_elapsed":1827015,"internal_node_id":"0.0-132.0"},{"result":136,"points":2,"place":1,"phase":1,"sequence":48,"times":[548,398,1518],"next_num":3,"trial_type":"ticket-choose","trial_index":133,"time_elapsed":1831996,"internal_node_id":"0.0-133.0"},{"result":119,"points":3,"place":0,"phase":1,"sequence":49,"times":[640,1790],"next_num":2,"trial_type":"ticket-choose","trial_index":134,"time_elapsed":1837464,"internal_node_id":"0.0-134.0"},{"responses":[{"value":2,"offby":1,"category":"$90 - $120","category_index":0},{"value":3,"offby":0,"category":"$121 - $145","category_index":1},{"value":4,"offby":1,"category":"$146 - $170","category_index":2},{"value":5,"offby":-1,"category":"$171 - $195","category_index":3},{"value":2,"offby":-2,"category":"$196 - $220","category_index":4},{"value":2,"offby":0,"category":"$221 - $245","category_index":5},{"value":2,"offby":1,"category":"$246 - $270","category_index":6}],"phase":1,"number":1,"trial_type":"bar-choose","trial_index":135,"time_elapsed":1861033,"internal_node_id":"0.0-135.0"},{"special_comment":"no","trial_type":"special_sequence","trial_index":136,"time_elapsed":1865352,"internal_node_id":"0.0-136.0"},{"during":"Nothing","bonus":304,"trial_type":"final","trial_index":137,"time_elapsed":1897026,"internal_node_id":"0.0-137.0"}],"bonus":304}