{"start_time":"2017-02-22 09:58:32","end_time":"2017-02-22 10:16:04","points_phase0":109,"points_phase1":106,"phase_order":0,"age":29,"gender":"m","tries":1,"during":"Nothing","worker_id":"A2P065E9CYMYJL","assignment_id":"3Z4AIRP3C761CX111V6YL8MDWWFX1S","data":[{"rt":8214,"url":"\/tickets\/utils\/consent.html","trial_type":"html","trial_index":0,"time_elapsed":8438,"internal_node_id":"0.0-0.0"},{"age":29,"gender":"m","trial_type":"age","trial_index":1,"time_elapsed":12777,"internal_node_id":"0.0-1.0"},{"worker_id":"A2P065E9CYMYJL","trial_type":"workerid","trial_index":2,"time_elapsed":22514,"internal_node_id":"0.0-2.0"},{"tries":1,"trial_type":"instructions_check","trial_index":3,"time_elapsed":96356,"internal_node_id":"0.0-3.0"},{"rt":5601,"url":"\/tickets\/utils\/start.html","trial_type":"html","trial_index":4,"time_elapsed":103073,"internal_node_id":"0.0-4.0"},{"trial_type":"number-animation","trial_index":5,"time_elapsed":112419,"internal_node_id":"0.0-5.0"},{"phase":0,"sequence":0,"avg":181,"response":176,"trial_type":"training_avg","trial_index":6,"time_elapsed":123084,"internal_node_id":"0.0-6.0"},{"trial_type":"number-animation","trial_index":7,"time_elapsed":130516,"internal_node_id":"0.0-7.0"},{"phase":0,"sequence":1,"avg":188,"response":187,"trial_type":"training_avg","trial_index":8,"time_elapsed":142247,"internal_node_id":"0.0-8.0"},{"trial_type":"number-animation","trial_index":9,"time_elapsed":148690,"internal_node_id":"0.0-9.0"},{"phase":0,"sequence":2,"avg":188,"response":185,"trial_type":"training_avg","trial_index":10,"time_elapsed":154880,"internal_node_id":"0.0-10.0"},{"trial_type":"number-animation","trial_index":11,"time_elapsed":162502,"internal_node_id":"0.0-11.0"},{"phase":0,"sequence":3,"avg":177,"response":182,"trial_type":"training_avg","trial_index":12,"time_elapsed":169676,"internal_node_id":"0.0-12.0"},{"trial_type":"number-animation","trial_index":13,"time_elapsed":176734,"internal_node_id":"0.0-13.0"},{"phase":0,"sequence":4,"avg":182,"response":191,"trial_type":"training_avg","trial_index":14,"time_elapsed":182872,"internal_node_id":"0.0-14.0"},{"responses":[{"value":1,"offby":1,"category":"$106 - $134","category_index":0},{"value":2,"offby":1,"category":"$135 - $150","category_index":1},{"value":3,"offby":0,"category":"$151 - $165","category_index":2},{"value":3,"offby":-3,"category":"$166 - $180","category_index":3},{"value":9,"offby":3,"category":"$181 - $195","category_index":4},{"value":1,"offby":-2,"category":"$196 - $210","category_index":5},{"value":1,"offby":0,"category":"$211 - $225","category_index":6}],"phase":0,"number":0,"trial_type":"bar-choose","trial_index":15,"time_elapsed":223414,"internal_node_id":"0.0-15.0"},{"rt":6477,"url":"\/tickets\/\/utils\/testing.html","trial_type":"html","trial_index":16,"time_elapsed":231180,"internal_node_id":"0.0-16.0"},{"phase":0,"order":[34,37,0,22,9,25,29,49,10,18,17,19,31,32,45,20,21,3,6,7,42,38,28,27,44,12,46,43,35,39,14,16,2,36,8,40,15,48,11,33,30,5,47,1,24,4,23,13,26,41],"trial_type":"store_order","trial_index":17,"time_elapsed":232183,"internal_node_id":"0.0-17.0"},{"result":126,"points":3,"place":0,"phase":0,"sequence":-1,"prices":[184,180,224,165,181,199,185,193,218,126],"times":[2556,898,639,1527,826,692,637,561,541,2208],"next_num":10,"trial_type":"ticket-choose","trial_index":18,"time_elapsed":247977,"internal_node_id":"0.0-18.0"},{"rt":13495,"url":"\/tickets\/utils\/testing_after.html","trial_type":"html","trial_index":19,"time_elapsed":262562,"internal_node_id":"0.0-19.0"},{"result":155,"points":2,"place":1,"phase":0,"sequence":0,"prices":[181,155,148,161,168,187,172,199,176,194],"times":[887,1542],"next_num":2,"trial_type":"ticket-choose","trial_index":20,"time_elapsed":267382,"internal_node_id":"0.0-20.0"},{"result":169,"points":1,"place":3,"phase":0,"sequence":1,"prices":[198,193,169,163,202,182,152,164,177,171],"times":[622,500,1117],"next_num":3,"trial_type":"ticket-choose","trial_index":21,"time_elapsed":272465,"internal_node_id":"0.0-21.0"},{"result":153,"points":3,"place":0,"phase":0,"sequence":2,"prices":[176,186,163,214,179,187,176,166,153,208],"times":[586,446,515,519,491,491,518,476,1142],"next_num":9,"trial_type":"ticket-choose","trial_index":22,"time_elapsed":281317,"internal_node_id":"0.0-22.0"},{"result":158,"points":2,"place":1,"phase":0,"sequence":3,"prices":[176,187,177,225,181,187,158,165,208,153],"times":[869,809,479,500,571,539,1091],"next_num":7,"trial_type":"ticket-choose","trial_index":23,"time_elapsed":289239,"internal_node_id":"0.0-23.0"},{"result":168,"points":1,"place":2,"phase":0,"sequence":4,"prices":[175,185,167,224,181,186,178,168,208,156],"times":[336,756,1572,460,517,530,499,1174],"next_num":8,"trial_type":"ticket-choose","trial_index":24,"time_elapsed":298417,"internal_node_id":"0.0-24.0"},{"result":179,"points":1,"place":4,"phase":0,"sequence":5,"prices":[156,201,162,166,185,214,165,202,204,179],"times":[360,474,716,533,579,556,669,553,700,808],"next_num":10,"trial_type":"ticket-choose","trial_index":25,"time_elapsed":308372,"internal_node_id":"0.0-25.0"},{"result":150,"points":3,"place":0,"phase":0,"sequence":6,"prices":[150,185,154,161,173,199,155,188,191,168],"times":[1310],"next_num":1,"trial_type":"ticket-choose","trial_index":26,"time_elapsed":311538,"internal_node_id":"0.0-26.0"},{"result":163,"points":1,"place":2,"phase":0,"sequence":7,"prices":[183,163,185,180,166,148,160,186,176,184],"times":[627,909],"next_num":2,"trial_type":"ticket-choose","trial_index":27,"time_elapsed":315145,"internal_node_id":"0.0-27.0"},{"result":153,"points":3,"place":0,"phase":0,"sequence":8,"prices":[175,186,167,225,179,187,178,169,209,153],"times":[476,461,663,549,532,550,586,686,565,867],"next_num":10,"trial_type":"ticket-choose","trial_index":28,"time_elapsed":324917,"internal_node_id":"0.0-28.0"},{"result":158,"points":2,"place":1,"phase":0,"sequence":9,"prices":[176,187,158,210,181,187,177,165,208,153],"times":[1414,826,1078],"next_num":3,"trial_type":"ticket-choose","trial_index":29,"time_elapsed":330393,"internal_node_id":"0.0-29.0"},{"result":158,"points":2,"place":1,"phase":0,"sequence":10,"prices":[175,186,158,209,181,188,177,167,208,154],"times":[1287,428,1155],"next_num":3,"trial_type":"ticket-choose","trial_index":30,"time_elapsed":335456,"internal_node_id":"0.0-30.0"},{"result":158,"points":2,"place":1,"phase":0,"sequence":11,"prices":[176,185,158,217,180,186,177,166,209,154],"times":[758,988,1035],"next_num":3,"trial_type":"ticket-choose","trial_index":31,"time_elapsed":340919,"internal_node_id":"0.0-31.0"},{"result":148,"points":3,"place":0,"phase":0,"sequence":12,"prices":[148,171,150,163,167,220,162,186,187,165],"times":[1539],"next_num":1,"trial_type":"ticket-choose","trial_index":32,"time_elapsed":344325,"internal_node_id":"0.0-32.0"},{"result":188,"points":1,"place":4,"phase":0,"sequence":13,"prices":[161,193,167,187,190,224,174,194,195,188],"times":[1319,491,707,518,515,467,659,568,626,581],"next_num":10,"trial_type":"ticket-choose","trial_index":33,"time_elapsed":354945,"internal_node_id":"0.0-33.0"},{"result":167,"points":2,"place":1,"phase":0,"sequence":14,"prices":[212,192,188,184,167,193,189,164,176,170],"times":[563,453,558,521,1012],"next_num":5,"trial_type":"ticket-choose","trial_index":34,"time_elapsed":360706,"internal_node_id":"0.0-34.0"},{"result":158,"points":2,"place":1,"phase":0,"sequence":15,"prices":[175,186,177,221,180,187,158,166,209,153],"times":[767,556,679,520,539,587,1496],"next_num":7,"trial_type":"ticket-choose","trial_index":35,"time_elapsed":369268,"internal_node_id":"0.0-35.0"},{"result":158,"points":2,"place":1,"phase":0,"sequence":16,"prices":[175,186,177,209,181,188,158,167,208,154],"times":[603,452,502,754,517,572,1116],"next_num":7,"trial_type":"ticket-choose","trial_index":36,"time_elapsed":377076,"internal_node_id":"0.0-36.0"},{"result":163,"points":2,"place":1,"phase":0,"sequence":17,"prices":[175,186,163,211,179,187,176,165,153,210],"times":[853,588,1173],"next_num":3,"trial_type":"ticket-choose","trial_index":37,"time_elapsed":381878,"internal_node_id":"0.0-37.0"},{"result":163,"points":2,"place":1,"phase":0,"sequence":18,"prices":[174,186,176,217,181,187,163,166,153,209],"times":[690,548,545,508,582,500,1131],"next_num":7,"trial_type":"ticket-choose","trial_index":38,"time_elapsed":389475,"internal_node_id":"0.0-38.0"},{"result":163,"points":2,"place":1,"phase":0,"sequence":19,"prices":[175,186,176,224,179,187,163,165,153,210],"times":[765,593,549,484,546,526,1527],"next_num":7,"trial_type":"ticket-choose","trial_index":39,"time_elapsed":397626,"internal_node_id":"0.0-39.0"},{"result":143,"points":3,"place":0,"phase":0,"sequence":20,"prices":[222,173,202,197,143,205,198,183,178,186],"times":[393,640,467,535,967],"next_num":5,"trial_type":"ticket-choose","trial_index":40,"time_elapsed":403252,"internal_node_id":"0.0-40.0"},{"result":163,"points":3,"place":0,"phase":0,"sequence":21,"prices":[168,199,196,198,185,195,227,163,177,166],"times":[1166,497,542,490,575,540,507,1319],"next_num":8,"trial_type":"ticket-choose","trial_index":41,"time_elapsed":412081,"internal_node_id":"0.0-41.0"},{"result":169,"points":3,"place":0,"phase":0,"sequence":22,"prices":[169,196,170,184,187,211,171,201,202,185],"times":[1056],"next_num":1,"trial_type":"ticket-choose","trial_index":42,"time_elapsed":415085,"internal_node_id":"0.0-42.0"},{"result":168,"points":3,"place":0,"phase":0,"sequence":23,"prices":[168,192,171,178,188,217,172,195,197,186],"times":[1073],"next_num":1,"trial_type":"ticket-choose","trial_index":43,"time_elapsed":418219,"internal_node_id":"0.0-43.0"},{"result":159,"points":1,"place":2,"phase":0,"sequence":24,"prices":[180,159,149,175,185,141,163,174,178,207],"times":[785,709],"next_num":2,"trial_type":"ticket-choose","trial_index":44,"time_elapsed":421776,"internal_node_id":"0.0-44.0"},{"result":156,"points":3,"place":0,"phase":0,"sequence":25,"prices":[174,186,178,217,181,188,167,168,208,156],"times":[588,484,547,542,661,461,1892,781,489,570],"next_num":10,"trial_type":"ticket-choose","trial_index":45,"time_elapsed":432625,"internal_node_id":"0.0-45.0"},{"result":158,"points":3,"place":0,"phase":0,"sequence":26,"prices":[210,184,226,193,215,158,199,175,176,208],"times":[757,707,666,671,548,839],"next_num":6,"trial_type":"ticket-choose","trial_index":46,"time_elapsed":439725,"internal_node_id":"0.0-46.0"},{"result":157,"points":3,"place":0,"phase":0,"sequence":27,"prices":[201,187,157,184,198,179,188,185,178,170],"times":[1568,1810,898],"next_num":3,"trial_type":"ticket-choose","trial_index":47,"time_elapsed":446172,"internal_node_id":"0.0-47.0"},{"result":168,"points":1,"place":2,"phase":0,"sequence":28,"prices":[168,154,172,185,195,144,184,211,177,227],"times":[1162],"next_num":1,"trial_type":"ticket-choose","trial_index":48,"time_elapsed":449093,"internal_node_id":"0.0-48.0"},{"result":171,"points":1,"place":3,"phase":0,"sequence":29,"prices":[189,167,180,197,165,168,172,213,178,171],"times":[568,684,509,512,667,645,833,511,588,800],"next_num":10,"trial_type":"ticket-choose","trial_index":49,"time_elapsed":459226,"internal_node_id":"0.0-49.0"},{"result":167,"points":2,"place":1,"phase":0,"sequence":30,"prices":[175,186,178,212,179,187,167,169,209,153],"times":[696,484,538,547,519,861,921],"next_num":7,"trial_type":"ticket-choose","trial_index":50,"time_elapsed":466783,"internal_node_id":"0.0-50.0"},{"result":158,"points":2,"place":1,"phase":0,"sequence":31,"prices":[175,186,158,211,180,187,177,166,209,153],"times":[1010,535,983],"next_num":3,"trial_type":"ticket-choose","trial_index":51,"time_elapsed":471569,"internal_node_id":"0.0-51.0"},{"result":163,"points":2,"place":1,"phase":0,"sequence":32,"prices":[174,186,163,212,181,187,176,166,153,209],"times":[1682,507,854],"next_num":3,"trial_type":"ticket-choose","trial_index":52,"time_elapsed":476780,"internal_node_id":"0.0-52.0"},{"result":165,"points":2,"place":1,"phase":0,"sequence":33,"prices":[188,200,165,172,198,174,177,154,177,180],"times":[947,525,1299],"next_num":3,"trial_type":"ticket-choose","trial_index":53,"time_elapsed":481725,"internal_node_id":"0.0-53.0"},{"result":167,"points":2,"place":1,"phase":0,"sequence":34,"prices":[174,186,167,211,181,188,178,168,208,156],"times":[3139,477,809],"next_num":3,"trial_type":"ticket-choose","trial_index":54,"time_elapsed":488373,"internal_node_id":"0.0-54.0"},{"result":150,"points":3,"place":0,"phase":0,"sequence":35,"prices":[189,150,175,160,188,207,158,194,178,199],"times":[562,853],"next_num":2,"trial_type":"ticket-choose","trial_index":55,"time_elapsed":491807,"internal_node_id":"0.0-55.0"},{"result":153,"points":3,"place":0,"phase":0,"sequence":36,"prices":[175,187,178,209,179,187,167,169,208,153],"times":[665,455,483,487,461,477,1019,773,494,521],"next_num":10,"trial_type":"ticket-choose","trial_index":56,"time_elapsed":501302,"internal_node_id":"0.0-56.0"},{"result":147,"points":3,"place":0,"phase":0,"sequence":37,"prices":[181,215,169,147,182,193,177,184,176,179],"times":[590,501,1285,812],"next_num":4,"trial_type":"ticket-choose","trial_index":57,"time_elapsed":506887,"internal_node_id":"0.0-57.0"},{"result":167,"points":2,"place":1,"phase":0,"sequence":38,"prices":[175,187,167,212,179,187,178,169,208,153],"times":[30911,496,1069],"next_num":3,"trial_type":"ticket-choose","trial_index":58,"time_elapsed":541683,"internal_node_id":"0.0-58.0"},{"result":159,"points":3,"place":0,"phase":0,"sequence":39,"prices":[159,183,166,168,173,205,167,187,191,170],"times":[1033],"next_num":1,"trial_type":"ticket-choose","trial_index":59,"time_elapsed":545058,"internal_node_id":"0.0-59.0"},{"result":157,"points":3,"place":0,"phase":0,"sequence":40,"prices":[157,191,165,175,182,203,170,195,200,176],"times":[1018],"next_num":1,"trial_type":"ticket-choose","trial_index":60,"time_elapsed":547786,"internal_node_id":"0.0-60.0"},{"result":163,"points":2,"place":1,"phase":0,"sequence":41,"prices":[175,187,176,209,180,188,163,165,154,208],"times":[617,499,569,444,537,490,898],"next_num":7,"trial_type":"ticket-choose","trial_index":61,"time_elapsed":554824,"internal_node_id":"0.0-61.0"},{"result":152,"points":3,"place":0,"phase":0,"sequence":42,"prices":[200,181,203,152,175,171,160,154,176,191],"times":[444,536,593,1247],"next_num":4,"trial_type":"ticket-choose","trial_index":62,"time_elapsed":560426,"internal_node_id":"0.0-62.0"},{"result":163,"points":2,"place":1,"phase":0,"sequence":43,"prices":[175,187,163,209,180,188,176,165,154,208],"times":[876,484,1233],"next_num":3,"trial_type":"ticket-choose","trial_index":63,"time_elapsed":565418,"internal_node_id":"0.0-63.0"},{"result":184,"points":1,"place":4,"phase":0,"sequence":44,"prices":[161,193,175,181,185,224,180,199,218,184],"times":[814,734,507,548,516,512,509,516,486,851],"next_num":10,"trial_type":"ticket-choose","trial_index":64,"time_elapsed":575263,"internal_node_id":"0.0-64.0"},{"result":163,"points":2,"place":1,"phase":0,"sequence":45,"prices":[176,186,176,210,179,187,163,166,153,208],"times":[818,485,704,503,537,532,921],"next_num":7,"trial_type":"ticket-choose","trial_index":65,"time_elapsed":582799,"internal_node_id":"0.0-65.0"},{"result":158,"points":2,"place":1,"phase":0,"sequence":46,"prices":[176,185,177,218,180,186,158,166,209,154],"times":[664,523,466,501,469,573,1021],"next_num":7,"trial_type":"ticket-choose","trial_index":66,"time_elapsed":590182,"internal_node_id":"0.0-66.0"},{"result":167,"points":2,"place":1,"phase":0,"sequence":47,"prices":[175,185,178,215,181,186,167,168,208,156],"times":[646,699,547,595,670,542,1109],"next_num":7,"trial_type":"ticket-choose","trial_index":67,"time_elapsed":598151,"internal_node_id":"0.0-67.0"},{"result":152,"points":3,"place":0,"phase":0,"sequence":48,"prices":[152,200,158,173,182,207,161,202,204,180],"times":[1101],"next_num":1,"trial_type":"ticket-choose","trial_index":68,"time_elapsed":601182,"internal_node_id":"0.0-68.0"},{"result":155,"points":2,"place":1,"phase":0,"sequence":49,"prices":[201,207,155,158,156,165,167,135,178,177],"times":[637,451,1054],"next_num":3,"trial_type":"ticket-choose","trial_index":69,"time_elapsed":605807,"internal_node_id":"0.0-69.0"},{"responses":[{"value":1,"offby":1,"category":"$106 - $134","category_index":0},{"value":1,"offby":0,"category":"$135 - $150","category_index":1},{"value":5,"offby":2,"category":"$151 - $165","category_index":2},{"value":10,"offby":4,"category":"$166 - $180","category_index":3},{"value":1,"offby":-5,"category":"$181 - $195","category_index":4},{"value":1,"offby":-2,"category":"$196 - $210","category_index":5},{"value":1,"offby":0,"category":"$211 - $225","category_index":6}],"phase":0,"number":1,"trial_type":"bar-choose","trial_index":70,"time_elapsed":625864,"internal_node_id":"0.0-70.0"},{"rt":4269,"url":"\/tickets\/utils\/start2.html","trial_type":"html","trial_index":71,"time_elapsed":631243,"internal_node_id":"0.0-71.0"},{"trial_type":"number-animation","trial_index":72,"time_elapsed":638598,"internal_node_id":"0.0-72.0"},{"phase":1,"sequence":0,"avg":182,"response":168,"trial_type":"training_avg","trial_index":73,"time_elapsed":643441,"internal_node_id":"0.0-73.0"},{"trial_type":"number-animation","trial_index":74,"time_elapsed":649932,"internal_node_id":"0.0-74.0"},{"phase":1,"sequence":1,"avg":188,"response":183,"trial_type":"training_avg","trial_index":75,"time_elapsed":656009,"internal_node_id":"0.0-75.0"},{"trial_type":"number-animation","trial_index":76,"time_elapsed":662884,"internal_node_id":"0.0-76.0"},{"phase":1,"sequence":2,"avg":176,"response":185,"trial_type":"training_avg","trial_index":77,"time_elapsed":668260,"internal_node_id":"0.0-77.0"},{"trial_type":"number-animation","trial_index":78,"time_elapsed":674734,"internal_node_id":"0.0-78.0"},{"phase":1,"sequence":3,"avg":180,"response":174,"trial_type":"training_avg","trial_index":79,"time_elapsed":680198,"internal_node_id":"0.0-79.0"},{"trial_type":"number-animation","trial_index":80,"time_elapsed":687231,"internal_node_id":"0.0-80.0"},{"phase":1,"sequence":4,"avg":174,"response":167,"trial_type":"training_avg","trial_index":81,"time_elapsed":692291,"internal_node_id":"0.0-81.0"},{"responses":[{"value":0,"offby":-1,"category":"$90 - $120","category_index":0},{"value":3,"offby":0,"category":"$121 - $145","category_index":1},{"value":8,"offby":5,"category":"$146 - $170","category_index":2},{"value":5,"offby":-1,"category":"$171 - $195","category_index":3},{"value":3,"offby":-1,"category":"$196 - $220","category_index":4},{"value":1,"offby":-1,"category":"$221 - $245","category_index":5},{"value":0,"offby":-1,"category":"$246 - $270","category_index":6}],"phase":1,"number":0,"trial_type":"bar-choose","trial_index":82,"time_elapsed":714034,"internal_node_id":"0.0-82.0"},{"rt":9021,"url":"\/tickets\/utils\/testing2.html","trial_type":"html","trial_index":83,"time_elapsed":724170,"internal_node_id":"0.0-83.0"},{"phase":1,"order":[26,33,39,40,20,28,2,5,15,45,14,12,24,21,13,8,18,1,17,36,6,19,35,41,7,38,32,44,9,22,10,31,4,16,46,30,23,43,25,11,29,0,34,47,42,48,27,49,37,3],"trial_type":"store_order","trial_index":84,"time_elapsed":725175,"internal_node_id":"0.0-84.0"},{"result":179,"points":1,"place":4,"phase":1,"sequence":0,"prices":[124,220,136,165,185,234,143,225,228,179],"times":[2354,437,333,540,484,531,1628,452,428,631],"next_num":10,"trial_type":"ticket-choose","trial_index":85,"time_elapsed":736788,"internal_node_id":"0.0-85.0"},{"result":137,"points":3,"place":0,"phase":1,"sequence":1,"prices":[137,187,152,156,166,231,155,194,202,160],"times":[890],"next_num":1,"trial_type":"ticket-choose","trial_index":86,"time_elapsed":739543,"internal_node_id":"0.0-86.0"},{"result":153,"points":2,"place":1,"phase":1,"sequence":2,"prices":[197,153,181,215,150,155,164,247,177,162],"times":[521,994],"next_num":2,"trial_type":"ticket-choose","trial_index":87,"time_elapsed":743068,"internal_node_id":"0.0-87.0"},{"result":119,"points":3,"place":0,"phase":1,"sequence":3,"prices":[198,119,169,141,195,233,136,208,177,217],"times":[529,854],"next_num":2,"trial_type":"ticket-choose","trial_index":88,"time_elapsed":746474,"internal_node_id":"0.0-88.0"},{"result":136,"points":2,"place":1,"phase":1,"sequence":4,"prices":[169,192,174,246,180,195,136,152,238,126],"times":[797,513,471,485,506,461,861],"next_num":7,"trial_type":"ticket-choose","trial_index":89,"time_elapsed":753548,"internal_node_id":"0.0-89.0"},{"result":157,"points":3,"place":0,"phase":1,"sequence":5,"prices":[157,213,159,187,194,242,161,222,225,189],"times":[922],"next_num":1,"trial_type":"ticket-choose","trial_index":90,"time_elapsed":756243,"internal_node_id":"0.0-90.0"},{"result":146,"points":2,"place":1,"phase":1,"sequence":6,"prices":[168,191,146,252,183,193,172,153,126,238],"times":[626,543,704],"next_num":3,"trial_type":"ticket-choose","trial_index":91,"time_elapsed":760312,"internal_node_id":"0.0-91.0"},{"result":146,"points":2,"place":1,"phase":1,"sequence":7,"prices":[171,195,172,242,179,196,146,150,128,235],"times":[513,453,524,466,854,496,862],"next_num":7,"trial_type":"ticket-choose","trial_index":92,"time_elapsed":767506,"internal_node_id":"0.0-92.0"},{"result":154,"points":2,"place":1,"phase":1,"sequence":8,"prices":[170,193,176,245,178,194,154,159,236,126],"times":[547,493,507,468,460,509,899],"next_num":7,"trial_type":"ticket-choose","trial_index":93,"time_elapsed":774303,"internal_node_id":"0.0-93.0"},{"result":154,"points":2,"place":1,"phase":1,"sequence":9,"prices":[244,203,196,189,154,206,197,149,171,159],"times":[524,469,524,532,966],"next_num":5,"trial_type":"ticket-choose","trial_index":94,"time_elapsed":780060,"internal_node_id":"0.0-94.0"},{"result":154,"points":2,"place":1,"phase":1,"sequence":10,"prices":[169,192,176,244,178,194,154,159,237,125],"times":[9650,478,669,689,551,489,1882],"next_num":7,"trial_type":"ticket-choose","trial_index":95,"time_elapsed":797762,"internal_node_id":"0.0-95.0"},{"result":154,"points":2,"place":1,"phase":1,"sequence":11,"prices":[168,192,176,242,183,197,154,156,237,132],"times":[542,494,525,534,605,466,1037],"next_num":7,"trial_type":"ticket-choose","trial_index":96,"time_elapsed":804934,"internal_node_id":"0.0-96.0"},{"result":142,"points":3,"place":0,"phase":1,"sequence":12,"prices":[142,207,171,182,190,269,180,218,256,188],"times":[1039],"next_num":1,"trial_type":"ticket-choose","trial_index":97,"time_elapsed":807771,"internal_node_id":"0.0-97.0"},{"result":136,"points":2,"place":1,"phase":1,"sequence":13,"prices":[170,192,174,242,181,196,136,153,236,128],"times":[618,485,471,435,492,461,995],"next_num":7,"trial_type":"ticket-choose","trial_index":98,"time_elapsed":815059,"internal_node_id":"0.0-98.0"},{"result":154,"points":2,"place":1,"phase":1,"sequence":14,"prices":[170,190,176,251,183,192,154,157,236,131],"times":[469,457,543,461,587,508,995],"next_num":7,"trial_type":"ticket-choose","trial_index":99,"time_elapsed":822097,"internal_node_id":"0.0-99.0"},{"result":154,"points":2,"place":1,"phase":1,"sequence":15,"prices":[168,192,154,237,182,196,176,156,235,133],"times":[564,455,1011],"next_num":3,"trial_type":"ticket-choose","trial_index":100,"time_elapsed":826346,"internal_node_id":"0.0-100.0"},{"result":136,"points":2,"place":1,"phase":1,"sequence":16,"prices":[173,194,136,239,182,200,174,150,236,127],"times":[566,708,911],"next_num":3,"trial_type":"ticket-choose","trial_index":101,"time_elapsed":830767,"internal_node_id":"0.0-101.0"},{"result":146,"points":2,"place":1,"phase":1,"sequence":17,"prices":[169,193,146,237,180,196,172,150,129,236],"times":[465,443,1019],"next_num":3,"trial_type":"ticket-choose","trial_index":102,"time_elapsed":834908,"internal_node_id":"0.0-102.0"},{"result":136,"points":2,"place":1,"phase":1,"sequence":18,"prices":[171,192,136,243,182,195,174,154,236,128],"times":[505,458,845],"next_num":3,"trial_type":"ticket-choose","trial_index":103,"time_elapsed":838870,"internal_node_id":"0.0-103.0"},{"result":128,"points":3,"place":0,"phase":1,"sequence":19,"prices":[196,221,149,164,216,167,175,128,176,181],"times":[516,499,630,507,499,730,493,1180],"next_num":8,"trial_type":"ticket-choose","trial_index":104,"time_elapsed":847151,"internal_node_id":"0.0-104.0"},{"result":146,"points":2,"place":1,"phase":1,"sequence":20,"prices":[168,191,172,240,183,193,146,151,125,238],"times":[1259,523,508,750,579,564,1499],"next_num":7,"trial_type":"ticket-choose","trial_index":105,"time_elapsed":855720,"internal_node_id":"0.0-105.0"},{"result":136,"points":2,"place":1,"phase":1,"sequence":21,"prices":[172,190,136,270,179,192,174,152,237,129],"times":[503,474,1117],"next_num":3,"trial_type":"ticket-choose","trial_index":106,"time_elapsed":859900,"internal_node_id":"0.0-106.0"},{"result":155,"points":1,"place":2,"phase":1,"sequence":22,"prices":[155,129,164,189,210,108,187,241,174,275],"times":[856],"next_num":1,"trial_type":"ticket-choose","trial_index":107,"time_elapsed":862486,"internal_node_id":"0.0-107.0"},{"result":131,"points":2,"place":1,"phase":1,"sequence":23,"prices":[221,234,131,136,132,149,154,90,176,173],"times":[525,494,690],"next_num":3,"trial_type":"ticket-choose","trial_index":108,"time_elapsed":866368,"internal_node_id":"0.0-108.0"},{"result":146,"points":2,"place":1,"phase":1,"sequence":24,"prices":[171,191,172,268,179,194,146,150,127,239],"times":[537,458,621,534,467,488,758],"next_num":7,"trial_type":"ticket-choose","trial_index":109,"time_elapsed":873267,"internal_node_id":"0.0-109.0"},{"result":156,"points":1,"place":2,"phase":1,"sequence":25,"prices":[156,218,212,216,191,210,275,146,174,152],"times":[1135],"next_num":1,"trial_type":"ticket-choose","trial_index":110,"time_elapsed":876174,"internal_node_id":"0.0-110.0"},{"result":143,"points":3,"place":0,"phase":1,"sequence":26,"prices":[143,206,153,194,201,267,168,208,210,196],"times":[1023],"next_num":1,"trial_type":"ticket-choose","trial_index":111,"time_elapsed":879056,"internal_node_id":"0.0-111.0"},{"result":138,"points":1,"place":2,"phase":1,"sequence":27,"prices":[181,138,118,170,190,101,146,169,175,233],"times":[577,1008],"next_num":2,"trial_type":"ticket-choose","trial_index":112,"time_elapsed":882754,"internal_node_id":"0.0-112.0"},{"result":154,"points":2,"place":1,"phase":1,"sequence":28,"prices":[169,191,154,268,183,197,176,155,236,133],"times":[3062,534,1366],"next_num":3,"trial_type":"ticket-choose","trial_index":113,"time_elapsed":889939,"internal_node_id":"0.0-113.0"},{"result":136,"points":2,"place":1,"phase":1,"sequence":29,"prices":[172,194,174,243,182,193,136,150,237,126],"times":[948,540,509,556,2539,549,909],"next_num":7,"trial_type":"ticket-choose","trial_index":114,"time_elapsed":899666,"internal_node_id":"0.0-114.0"},{"result":154,"points":2,"place":1,"phase":1,"sequence":30,"prices":[169,193,154,255,178,194,176,158,239,126],"times":[592,546,1464],"next_num":3,"trial_type":"ticket-choose","trial_index":115,"time_elapsed":904634,"internal_node_id":"0.0-115.0"},{"result":117,"points":3,"place":0,"phase":1,"sequence":31,"prices":[117,161,120,147,153,259,144,191,195,149],"times":[897],"next_num":1,"trial_type":"ticket-choose","trial_index":116,"time_elapsed":907196,"internal_node_id":"0.0-116.0"},{"result":146,"points":2,"place":1,"phase":1,"sequence":32,"prices":[172,191,176,272,179,194,146,152,126,235],"times":[637,493,528,497,479,517,959],"next_num":7,"trial_type":"ticket-choose","trial_index":117,"time_elapsed":914257,"internal_node_id":"0.0-117.0"},{"result":136,"points":2,"place":1,"phase":1,"sequence":33,"prices":[171,192,136,265,180,194,174,152,239,127],"times":[606,475,843],"next_num":3,"trial_type":"ticket-choose","trial_index":118,"time_elapsed":918274,"internal_node_id":"0.0-118.0"},{"result":136,"points":3,"place":0,"phase":1,"sequence":34,"prices":[240,188,273,207,250,136,217,170,171,236],"times":[523,492,471,473,468,963],"next_num":6,"trial_type":"ticket-choose","trial_index":119,"time_elapsed":924524,"internal_node_id":"0.0-119.0"},{"result":135,"points":3,"place":0,"phase":1,"sequence":35,"prices":[135,202,150,169,183,225,160,211,220,172],"times":[935],"next_num":1,"trial_type":"ticket-choose","trial_index":120,"time_elapsed":927150,"internal_node_id":"0.0-120.0"},{"result":136,"points":2,"place":1,"phase":1,"sequence":36,"prices":[173,191,174,270,180,193,136,153,239,129],"times":[629,450,485,469,509,469,718],"next_num":7,"trial_type":"ticket-choose","trial_index":121,"time_elapsed":933930,"internal_node_id":"0.0-121.0"},{"result":135,"points":3,"place":0,"phase":1,"sequence":37,"prices":[221,193,135,188,217,179,196,190,175,159],"times":[537,613,1342],"next_num":3,"trial_type":"ticket-choose","trial_index":122,"time_elapsed":939086,"internal_node_id":"0.0-122.0"},{"result":132,"points":3,"place":0,"phase":1,"sequence":38,"prices":[132,222,144,153,190,248,151,224,228,179],"times":[1209],"next_num":1,"trial_type":"ticket-choose","trial_index":123,"time_elapsed":942570,"internal_node_id":"0.0-123.0"},{"result":158,"points":1,"place":2,"phase":1,"sequence":39,"prices":[169,194,154,271,178,201,176,158,236,127],"times":[663,436,484,475,582,485,572,884],"next_num":8,"trial_type":"ticket-choose","trial_index":124,"time_elapsed":950384,"internal_node_id":"0.0-124.0"},{"result":121,"points":3,"place":0,"phase":1,"sequence":40,"prices":[121,191,128,141,166,217,129,196,202,157],"times":[1294],"next_num":1,"trial_type":"ticket-choose","trial_index":125,"time_elapsed":953460,"internal_node_id":"0.0-125.0"},{"result":146,"points":2,"place":1,"phase":1,"sequence":41,"prices":[173,191,146,242,178,194,172,152,126,235],"times":[729,465,786],"next_num":3,"trial_type":"ticket-choose","trial_index":126,"time_elapsed":957751,"internal_node_id":"0.0-126.0"},{"result":130,"points":2,"place":1,"phase":1,"sequence":42,"prices":[181,130,116,142,157,193,165,218,173,207],"times":[468,894],"next_num":2,"trial_type":"ticket-choose","trial_index":127,"time_elapsed":961154,"internal_node_id":"0.0-127.0"},{"result":124,"points":3,"place":0,"phase":1,"sequence":43,"prices":[219,183,227,124,176,161,140,129,171,201],"times":[524,611,526,867],"next_num":4,"trial_type":"ticket-choose","trial_index":128,"time_elapsed":966162,"internal_node_id":"0.0-128.0"},{"result":105,"points":3,"place":0,"phase":1,"sequence":44,"prices":[263,165,224,214,105,230,215,185,177,193],"times":[684,604,461,469,784],"next_num":5,"trial_type":"ticket-choose","trial_index":129,"time_elapsed":971834,"internal_node_id":"0.0-129.0"},{"result":159,"points":2,"place":1,"phase":1,"sequence":45,"prices":[182,249,159,114,184,205,175,189,172,178],"times":[592,453,961],"next_num":3,"trial_type":"ticket-choose","trial_index":130,"time_elapsed":976030,"internal_node_id":"0.0-130.0"},{"result":192,"points":1,"place":4,"phase":1,"sequence":46,"prices":[157,205,161,175,197,254,165,210,214,192],"times":[1045,476,494,557,445,442,484,520,463,754],"next_num":10,"trial_type":"ticket-choose","trial_index":131,"time_elapsed":985528,"internal_node_id":"0.0-131.0"},{"result":146,"points":1,"place":2,"phase":1,"sequence":47,"prices":[186,146,191,179,152,116,140,201,172,187],"times":[513,1152],"next_num":2,"trial_type":"ticket-choose","trial_index":132,"time_elapsed":989233,"internal_node_id":"0.0-132.0"},{"result":158,"points":1,"place":3,"phase":1,"sequence":48,"prices":[216,206,158,145,224,185,124,149,175,162],"times":[544,661,1189],"next_num":3,"trial_type":"ticket-choose","trial_index":133,"time_elapsed":994052,"internal_node_id":"0.0-133.0"},{"result":146,"points":2,"place":1,"phase":1,"sequence":49,"prices":[170,193,146,268,178,195,172,149,126,241],"times":[571,548,1133],"next_num":3,"trial_type":"ticket-choose","trial_index":134,"time_elapsed":998786,"internal_node_id":"0.0-134.0"},{"responses":[{"value":1,"offby":0,"category":"$90 - $120","category_index":0},{"value":4,"offby":1,"category":"$121 - $145","category_index":1},{"value":5,"offby":2,"category":"$146 - $170","category_index":2},{"value":6,"offby":0,"category":"$171 - $195","category_index":3},{"value":2,"offby":-2,"category":"$196 - $220","category_index":4},{"value":1,"offby":-1,"category":"$221 - $245","category_index":5},{"value":1,"offby":0,"category":"$246 - $270","category_index":6}],"phase":1,"number":1,"trial_type":"bar-choose","trial_index":135,"time_elapsed":1020624,"internal_node_id":"0.0-135.0"},{"special_comment":"no","trial_type":"special_sequence","trial_index":136,"time_elapsed":1025524,"internal_node_id":"0.0-136.0"},{"during":"Nothing","bonus":288,"trial_type":"final","trial_index":137,"time_elapsed":1049555,"internal_node_id":"0.0-137.0"}],"bonus":288}