{"start_time":"2017-02-21 10:58:42","end_time":"2017-02-21 11:16:50","points_phase0":98,"points_phase1":75,"phase_order":0,"age":29,"gender":"m","tries":1,"during":"Nothing","worker_id":"A2Q1YS118AO2BP","assignment_id":"324G5B4FB417QTASNZY0D4QFP67070","data":[{"rt":18324,"url":"\/tickets\/utils\/consent.html","trial_type":"html","trial_index":0,"time_elapsed":20244,"internal_node_id":"0.0-0.0"},{"age":29,"gender":"m","trial_type":"age","trial_index":1,"time_elapsed":25507,"internal_node_id":"0.0-1.0"},{"worker_id":"A2Q1YS118AO2BP","trial_type":"workerid","trial_index":2,"time_elapsed":34940,"internal_node_id":"0.0-2.0"},{"tries":1,"trial_type":"instructions_check","trial_index":3,"time_elapsed":48294,"internal_node_id":"0.0-3.0"},{"rt":22422,"url":"\/tickets\/utils\/start.html","trial_type":"html","trial_index":4,"time_elapsed":72491,"internal_node_id":"0.0-4.0"},{"trial_type":"number-animation","trial_index":5,"time_elapsed":87428,"internal_node_id":"0.0-5.0"},{"phase":0,"sequence":0,"avg":181,"response":170,"trial_type":"training_avg","trial_index":6,"time_elapsed":100010,"internal_node_id":"0.0-6.0"},{"trial_type":"number-animation","trial_index":7,"time_elapsed":108754,"internal_node_id":"0.0-7.0"},{"phase":0,"sequence":1,"avg":188,"response":190,"trial_type":"training_avg","trial_index":8,"time_elapsed":117846,"internal_node_id":"0.0-8.0"},{"trial_type":"number-animation","trial_index":9,"time_elapsed":125745,"internal_node_id":"0.0-9.0"},{"phase":0,"sequence":2,"avg":188,"response":185,"trial_type":"training_avg","trial_index":10,"time_elapsed":137503,"internal_node_id":"0.0-10.0"},{"trial_type":"number-animation","trial_index":11,"time_elapsed":145147,"internal_node_id":"0.0-11.0"},{"phase":0,"sequence":3,"avg":177,"response":175,"trial_type":"training_avg","trial_index":12,"time_elapsed":152908,"internal_node_id":"0.0-12.0"},{"trial_type":"number-animation","trial_index":13,"time_elapsed":160002,"internal_node_id":"0.0-13.0"},{"phase":0,"sequence":4,"avg":182,"response":185,"trial_type":"training_avg","trial_index":14,"time_elapsed":165942,"internal_node_id":"0.0-14.0"},{"responses":[{"value":6,"offby":6,"category":"$106 - $134","category_index":0},{"value":5,"offby":4,"category":"$135 - $150","category_index":1},{"value":4,"offby":1,"category":"$151 - $165","category_index":2},{"value":2,"offby":-4,"category":"$166 - $180","category_index":3},{"value":1,"offby":-5,"category":"$181 - $195","category_index":4},{"value":1,"offby":-2,"category":"$196 - $210","category_index":5},{"value":1,"offby":0,"category":"$211 - $225","category_index":6}],"phase":0,"number":0,"trial_type":"bar-choose","trial_index":15,"time_elapsed":285696,"internal_node_id":"0.0-15.0"},{"rt":11558,"url":"\/tickets\/\/utils\/testing.html","trial_type":"html","trial_index":16,"time_elapsed":299039,"internal_node_id":"0.0-16.0"},{"phase":0,"order":[24,14,28,43,31,16,40,46,27,0,23,49,1,6,47,48,11,29,36,5,41,21,8,26,10,44,2,37,15,34,38,3,42,18,9,25,7,20,33,4,45,30,12,13,35,39,17,19,32,22],"trial_type":"store_order","trial_index":17,"time_elapsed":300040,"internal_node_id":"0.0-17.0"},{"result":165,"points":2,"place":1,"phase":0,"sequence":-1,"prices":[184,180,224,165,181,199,185,193,218,126],"times":[1157,3530,585,1048],"next_num":4,"trial_type":"ticket-choose","trial_index":18,"time_elapsed":311093,"internal_node_id":"0.0-18.0"},{"rt":4490,"url":"\/tickets\/utils\/testing_after.html","trial_type":"html","trial_index":19,"time_elapsed":317356,"internal_node_id":"0.0-19.0"},{"result":184,"points":1,"place":4,"phase":0,"sequence":0,"prices":[161,193,175,181,185,224,180,199,218,184],"times":[751,378,401,467,452,542,510,667,607,732],"next_num":11,"trial_type":"ticket-choose","trial_index":20,"time_elapsed":328600,"internal_node_id":"0.0-20.0"},{"result":167,"points":2,"place":1,"phase":0,"sequence":1,"prices":[175,186,178,212,179,187,167,169,209,153],"times":[1215,563,511,587,514,547,757],"next_num":7,"trial_type":"ticket-choose","trial_index":21,"time_elapsed":337102,"internal_node_id":"0.0-21.0"},{"result":185,"points":1,"place":4,"phase":0,"sequence":2,"prices":[169,196,170,184,187,211,171,201,202,185],"times":[754,457,636,491,506,550,506,628,619,778],"next_num":11,"trial_type":"ticket-choose","trial_index":22,"time_elapsed":347624,"internal_node_id":"0.0-22.0"},{"result":178,"points":1,"place":2,"phase":0,"sequence":3,"prices":[201,187,157,184,198,179,188,185,178,170],"times":[685,368,331,448,419,398,468,729,804],"next_num":9,"trial_type":"ticket-choose","trial_index":23,"time_elapsed":356624,"internal_node_id":"0.0-23.0"},{"result":148,"points":3,"place":0,"phase":0,"sequence":4,"prices":[148,171,150,163,167,220,162,186,187,165],"times":[946],"next_num":1,"trial_type":"ticket-choose","trial_index":24,"time_elapsed":360608,"internal_node_id":"0.0-24.0"},{"result":158,"points":2,"place":1,"phase":0,"sequence":5,"prices":[175,186,158,211,180,187,177,166,209,153],"times":[863,599,1003],"next_num":3,"trial_type":"ticket-choose","trial_index":25,"time_elapsed":365986,"internal_node_id":"0.0-25.0"},{"result":150,"points":3,"place":0,"phase":0,"sequence":6,"prices":[189,150,175,160,188,207,158,194,178,199],"times":[661,774],"next_num":2,"trial_type":"ticket-choose","trial_index":26,"time_elapsed":369886,"internal_node_id":"0.0-26.0"},{"result":158,"points":3,"place":0,"phase":0,"sequence":7,"prices":[210,184,226,193,215,158,199,175,176,208],"times":[573,472,477,471,575,1785],"next_num":6,"trial_type":"ticket-choose","trial_index":27,"time_elapsed":377349,"internal_node_id":"0.0-27.0"},{"result":172,"points":1,"place":2,"phase":0,"sequence":8,"prices":[168,192,171,178,188,217,172,195,197,186],"times":[611,509,558,570,503,531,1050],"next_num":7,"trial_type":"ticket-choose","trial_index":28,"time_elapsed":387577,"internal_node_id":"0.0-28.0"},{"result":163,"points":2,"place":1,"phase":0,"sequence":9,"prices":[176,186,163,214,179,187,176,166,153,208],"times":[1635,535,861],"next_num":3,"trial_type":"ticket-choose","trial_index":29,"time_elapsed":393010,"internal_node_id":"0.0-29.0"},{"result":158,"points":2,"place":1,"phase":0,"sequence":10,"prices":[176,185,177,218,180,186,158,166,209,154],"times":[562,557,515,554,490,554,703],"next_num":7,"trial_type":"ticket-choose","trial_index":30,"time_elapsed":401627,"internal_node_id":"0.0-30.0"},{"result":163,"points":1,"place":2,"phase":0,"sequence":11,"prices":[183,163,185,180,166,148,160,186,176,184],"times":[1040,684],"next_num":2,"trial_type":"ticket-choose","trial_index":31,"time_elapsed":405515,"internal_node_id":"0.0-31.0"},{"result":163,"points":2,"place":1,"phase":0,"sequence":12,"prices":[175,187,163,209,180,188,176,165,154,208],"times":[485,520,863],"next_num":3,"trial_type":"ticket-choose","trial_index":32,"time_elapsed":409877,"internal_node_id":"0.0-32.0"},{"result":163,"points":2,"place":1,"phase":0,"sequence":13,"prices":[174,186,176,217,181,187,163,166,153,209],"times":[688,686,518,554,556,552,919],"next_num":7,"trial_type":"ticket-choose","trial_index":33,"time_elapsed":417582,"internal_node_id":"0.0-33.0"},{"result":152,"points":3,"place":0,"phase":0,"sequence":14,"prices":[200,181,203,152,175,171,160,154,176,191],"times":[576,629,526,734],"next_num":4,"trial_type":"ticket-choose","trial_index":34,"time_elapsed":423030,"internal_node_id":"0.0-34.0"},{"result":147,"points":3,"place":0,"phase":0,"sequence":15,"prices":[181,215,169,147,182,193,177,184,176,179],"times":[676,509,508,743],"next_num":4,"trial_type":"ticket-choose","trial_index":35,"time_elapsed":429668,"internal_node_id":"0.0-35.0"},{"result":167,"points":2,"place":1,"phase":0,"sequence":16,"prices":[175,187,167,212,179,187,178,169,208,153],"times":[635,534,775],"next_num":3,"trial_type":"ticket-choose","trial_index":36,"time_elapsed":433912,"internal_node_id":"0.0-36.0"},{"result":154,"points":2,"place":1,"phase":0,"sequence":17,"prices":[150,185,154,161,173,199,155,188,191,168],"times":[565,480,860],"next_num":3,"trial_type":"ticket-choose","trial_index":37,"time_elapsed":438080,"internal_node_id":"0.0-37.0"},{"result":154,"points":3,"place":0,"phase":0,"sequence":18,"prices":[188,200,165,172,198,174,177,154,177,180],"times":[504,580,750,515,488,629,534,711],"next_num":8,"trial_type":"ticket-choose","trial_index":38,"time_elapsed":446144,"internal_node_id":"0.0-38.0"},{"result":163,"points":2,"place":1,"phase":0,"sequence":19,"prices":[175,187,176,209,180,188,163,165,154,208],"times":[540,618,811,591,482,523,796],"next_num":7,"trial_type":"ticket-choose","trial_index":39,"time_elapsed":453700,"internal_node_id":"0.0-39.0"},{"result":155,"points":2,"place":1,"phase":0,"sequence":20,"prices":[201,207,155,158,156,165,167,135,178,177],"times":[538,496,746],"next_num":3,"trial_type":"ticket-choose","trial_index":40,"time_elapsed":457646,"internal_node_id":"0.0-40.0"},{"result":154,"points":3,"place":0,"phase":0,"sequence":21,"prices":[175,186,177,209,181,188,158,167,208,154],"times":[501,491,516,525,530,510,481,504,485,712],"next_num":10,"trial_type":"ticket-choose","trial_index":41,"time_elapsed":466948,"internal_node_id":"0.0-41.0"},{"result":168,"points":1,"place":2,"phase":0,"sequence":22,"prices":[174,186,167,211,181,188,178,168,208,156],"times":[561,472,551,502,448,573,617,732],"next_num":8,"trial_type":"ticket-choose","trial_index":42,"time_elapsed":474682,"internal_node_id":"0.0-42.0"},{"result":180,"points":1,"place":4,"phase":0,"sequence":23,"prices":[152,200,158,173,182,207,161,202,204,180],"times":[679,368,362,367,487,504,541,566,546,684],"next_num":11,"trial_type":"ticket-choose","trial_index":43,"time_elapsed":484320,"internal_node_id":"0.0-43.0"},{"result":169,"points":1,"place":2,"phase":0,"sequence":24,"prices":[175,186,167,225,179,187,178,169,209,153],"times":[740,570,640,501,549,540,735,980],"next_num":8,"trial_type":"ticket-choose","trial_index":44,"time_elapsed":492784,"internal_node_id":"0.0-44.0"},{"result":159,"points":1,"place":2,"phase":0,"sequence":25,"prices":[180,159,149,175,185,141,163,174,178,207],"times":[335,764],"next_num":2,"trial_type":"ticket-choose","trial_index":45,"time_elapsed":495865,"internal_node_id":"0.0-45.0"},{"result":163,"points":2,"place":1,"phase":0,"sequence":26,"prices":[174,186,163,212,181,187,176,166,153,209],"times":[405,523,766],"next_num":3,"trial_type":"ticket-choose","trial_index":46,"time_elapsed":499627,"internal_node_id":"0.0-46.0"},{"result":163,"points":2,"place":1,"phase":0,"sequence":27,"prices":[198,193,169,163,202,182,152,164,177,171],"times":[480,543,770,782],"next_num":4,"trial_type":"ticket-choose","trial_index":47,"time_elapsed":504512,"internal_node_id":"0.0-47.0"},{"result":169,"points":1,"place":2,"phase":0,"sequence":28,"prices":[175,187,178,209,179,187,167,169,208,153],"times":[404,615,706,548,635,506,540,759],"next_num":8,"trial_type":"ticket-choose","trial_index":48,"time_elapsed":512402,"internal_node_id":"0.0-48.0"},{"result":155,"points":2,"place":1,"phase":0,"sequence":29,"prices":[181,155,148,161,168,187,172,199,176,194],"times":[361,629],"next_num":2,"trial_type":"ticket-choose","trial_index":49,"time_elapsed":515273,"internal_node_id":"0.0-49.0"},{"result":163,"points":3,"place":0,"phase":0,"sequence":30,"prices":[168,199,196,198,185,195,227,163,177,166],"times":[753,526,622,498,508,760,550,776],"next_num":8,"trial_type":"ticket-choose","trial_index":50,"time_elapsed":523394,"internal_node_id":"0.0-50.0"},{"result":163,"points":2,"place":1,"phase":0,"sequence":31,"prices":[175,186,163,211,179,187,176,165,153,210],"times":[608,794,753],"next_num":3,"trial_type":"ticket-choose","trial_index":51,"time_elapsed":527858,"internal_node_id":"0.0-51.0"},{"result":143,"points":3,"place":0,"phase":0,"sequence":32,"prices":[222,173,202,197,143,205,198,183,178,186],"times":[384,936,542,664,680],"next_num":5,"trial_type":"ticket-choose","trial_index":52,"time_elapsed":533686,"internal_node_id":"0.0-52.0"},{"result":158,"points":2,"place":1,"phase":0,"sequence":33,"prices":[176,187,158,210,181,187,177,165,208,153],"times":[871,763,755],"next_num":3,"trial_type":"ticket-choose","trial_index":53,"time_elapsed":538173,"internal_node_id":"0.0-53.0"},{"result":167,"points":2,"place":1,"phase":0,"sequence":34,"prices":[175,185,167,224,181,186,178,168,208,156],"times":[576,583,684],"next_num":3,"trial_type":"ticket-choose","trial_index":54,"time_elapsed":542218,"internal_node_id":"0.0-54.0"},{"result":162,"points":2,"place":1,"phase":0,"sequence":35,"prices":[156,201,162,166,185,214,165,202,204,179],"times":[622,508,938],"next_num":3,"trial_type":"ticket-choose","trial_index":55,"time_elapsed":546406,"internal_node_id":"0.0-55.0"},{"result":163,"points":2,"place":1,"phase":0,"sequence":36,"prices":[175,186,176,224,179,187,163,165,153,210],"times":[589,544,541,573,676,672,896],"next_num":7,"trial_type":"ticket-choose","trial_index":56,"time_elapsed":553927,"internal_node_id":"0.0-56.0"},{"result":158,"points":2,"place":1,"phase":0,"sequence":37,"prices":[175,186,177,221,180,187,158,166,209,153],"times":[654,621,536,567,537,506,700],"next_num":7,"trial_type":"ticket-choose","trial_index":57,"time_elapsed":560964,"internal_node_id":"0.0-57.0"},{"result":170,"points":1,"place":4,"phase":0,"sequence":38,"prices":[159,183,166,168,173,205,167,187,191,170],"times":[652,651,694,550,516,549,767,727,590,578],"next_num":11,"trial_type":"ticket-choose","trial_index":58,"time_elapsed":571651,"internal_node_id":"0.0-58.0"},{"result":163,"points":2,"place":1,"phase":0,"sequence":39,"prices":[176,186,176,210,179,187,163,166,153,208],"times":[601,546,506,478,638,513,742],"next_num":7,"trial_type":"ticket-choose","trial_index":59,"time_elapsed":578688,"internal_node_id":"0.0-59.0"},{"result":164,"points":3,"place":0,"phase":0,"sequence":40,"prices":[212,192,188,184,167,193,189,164,176,170],"times":[542,640,520,757,493,447,526,724],"next_num":8,"trial_type":"ticket-choose","trial_index":60,"time_elapsed":586606,"internal_node_id":"0.0-60.0"},{"result":165,"points":2,"place":1,"phase":0,"sequence":41,"prices":[157,191,165,175,182,203,170,195,200,176],"times":[714,506,756],"next_num":3,"trial_type":"ticket-choose","trial_index":61,"time_elapsed":590740,"internal_node_id":"0.0-61.0"},{"result":167,"points":2,"place":1,"phase":0,"sequence":42,"prices":[174,186,178,217,181,188,167,168,208,156],"times":[548,588,555,587,564,525,675],"next_num":7,"trial_type":"ticket-choose","trial_index":62,"time_elapsed":597772,"internal_node_id":"0.0-62.0"},{"result":167,"points":2,"place":1,"phase":0,"sequence":43,"prices":[175,185,178,215,181,186,167,168,208,156],"times":[644,561,674,528,583,569,765],"next_num":7,"trial_type":"ticket-choose","trial_index":63,"time_elapsed":605115,"internal_node_id":"0.0-63.0"},{"result":168,"points":1,"place":2,"phase":0,"sequence":44,"prices":[168,154,172,185,195,144,184,211,177,227],"times":[1738],"next_num":1,"trial_type":"ticket-choose","trial_index":64,"time_elapsed":614976,"internal_node_id":"0.0-64.0"},{"result":165,"points":3,"place":0,"phase":0,"sequence":45,"prices":[189,167,180,197,165,168,172,213,178,171],"times":[705,996,567,574,891],"next_num":5,"trial_type":"ticket-choose","trial_index":65,"time_elapsed":621703,"internal_node_id":"0.0-65.0"},{"result":158,"points":2,"place":1,"phase":0,"sequence":46,"prices":[175,186,158,209,181,188,177,167,208,154],"times":[683,613,961],"next_num":3,"trial_type":"ticket-choose","trial_index":66,"time_elapsed":626337,"internal_node_id":"0.0-66.0"},{"result":158,"points":2,"place":1,"phase":0,"sequence":47,"prices":[176,185,158,217,180,186,177,166,209,154],"times":[605,612,1056],"next_num":3,"trial_type":"ticket-choose","trial_index":67,"time_elapsed":631075,"internal_node_id":"0.0-67.0"},{"result":188,"points":1,"place":4,"phase":0,"sequence":48,"prices":[161,193,167,187,190,224,174,194,195,188],"times":[1117,529,650,510,539,599,578,725,847,766],"next_num":11,"trial_type":"ticket-choose","trial_index":68,"time_elapsed":642135,"internal_node_id":"0.0-68.0"},{"result":158,"points":2,"place":1,"phase":0,"sequence":49,"prices":[176,187,177,225,181,187,158,165,208,153],"times":[558,466,1010,567,514,500,700],"next_num":7,"trial_type":"ticket-choose","trial_index":69,"time_elapsed":649950,"internal_node_id":"0.0-69.0"},{"responses":[{"value":1,"offby":1,"category":"$106 - $134","category_index":0},{"value":2,"offby":1,"category":"$135 - $150","category_index":1},{"value":3,"offby":0,"category":"$151 - $165","category_index":2},{"value":4,"offby":-2,"category":"$166 - $180","category_index":3},{"value":5,"offby":-1,"category":"$181 - $195","category_index":4},{"value":3,"offby":0,"category":"$196 - $210","category_index":5},{"value":2,"offby":1,"category":"$211 - $225","category_index":6}],"phase":0,"number":1,"trial_type":"bar-choose","trial_index":70,"time_elapsed":673537,"internal_node_id":"0.0-70.0"},{"rt":4203,"url":"\/tickets\/utils\/start2.html","trial_type":"html","trial_index":71,"time_elapsed":679529,"internal_node_id":"0.0-71.0"},{"trial_type":"number-animation","trial_index":72,"time_elapsed":691071,"internal_node_id":"0.0-72.0"},{"phase":1,"sequence":0,"avg":182,"response":175,"trial_type":"training_avg","trial_index":73,"time_elapsed":697874,"internal_node_id":"0.0-73.0"},{"trial_type":"number-animation","trial_index":74,"time_elapsed":704298,"internal_node_id":"0.0-74.0"},{"phase":1,"sequence":1,"avg":188,"response":175,"trial_type":"training_avg","trial_index":75,"time_elapsed":710775,"internal_node_id":"0.0-75.0"},{"trial_type":"number-animation","trial_index":76,"time_elapsed":717416,"internal_node_id":"0.0-76.0"},{"phase":1,"sequence":2,"avg":176,"response":180,"trial_type":"training_avg","trial_index":77,"time_elapsed":723925,"internal_node_id":"0.0-77.0"},{"trial_type":"number-animation","trial_index":78,"time_elapsed":729948,"internal_node_id":"0.0-78.0"},{"phase":1,"sequence":3,"avg":180,"response":173,"trial_type":"training_avg","trial_index":79,"time_elapsed":735308,"internal_node_id":"0.0-79.0"},{"trial_type":"number-animation","trial_index":80,"time_elapsed":742197,"internal_node_id":"0.0-80.0"},{"phase":1,"sequence":4,"avg":174,"response":170,"trial_type":"training_avg","trial_index":81,"time_elapsed":748236,"internal_node_id":"0.0-81.0"},{"responses":[{"value":2,"offby":1,"category":"$90 - $120","category_index":0},{"value":3,"offby":0,"category":"$121 - $145","category_index":1},{"value":4,"offby":1,"category":"$146 - $170","category_index":2},{"value":5,"offby":-1,"category":"$171 - $195","category_index":3},{"value":3,"offby":-1,"category":"$196 - $220","category_index":4},{"value":2,"offby":0,"category":"$221 - $245","category_index":5},{"value":1,"offby":0,"category":"$246 - $270","category_index":6}],"phase":1,"number":0,"trial_type":"bar-choose","trial_index":82,"time_elapsed":763702,"internal_node_id":"0.0-82.0"},{"rt":3639,"url":"\/tickets\/utils\/testing2.html","trial_type":"html","trial_index":83,"time_elapsed":769119,"internal_node_id":"0.0-83.0"},{"phase":1,"order":[38,41,7,37,4,30,0,14,11,15,3,32,25,8,26,20,40,31,23,42,47,34,9,43,49,28,36,18,33,2,17,45,13,16,29,1,44,5,19,10,35,27,12,21,46,39,24,22,6,48],"trial_type":"store_order","trial_index":84,"time_elapsed":770121,"internal_node_id":"0.0-84.0"},{"result":156,"points":1,"place":2,"phase":1,"sequence":0,"prices":[156,218,212,216,191,210,275,146,174,152],"times":[1229],"next_num":1,"trial_type":"ticket-choose","trial_index":85,"time_elapsed":773818,"internal_node_id":"0.0-85.0"},{"result":131,"points":2,"place":1,"phase":1,"sequence":1,"prices":[221,234,131,136,132,149,154,90,176,173],"times":[1280,478,856],"next_num":3,"trial_type":"ticket-choose","trial_index":86,"time_elapsed":778692,"internal_node_id":"0.0-86.0"},{"result":146,"points":2,"place":1,"phase":1,"sequence":2,"prices":[171,191,172,268,179,194,146,150,127,239],"times":[544,492,591,555,509,508,1236],"next_num":7,"trial_type":"ticket-choose","trial_index":87,"time_elapsed":786428,"internal_node_id":"0.0-87.0"},{"result":124,"points":3,"place":0,"phase":1,"sequence":3,"prices":[216,206,158,145,224,185,124,149,175,162],"times":[484,468,436,411,540,440,652],"next_num":7,"trial_type":"ticket-choose","trial_index":88,"time_elapsed":792980,"internal_node_id":"0.0-88.0"},{"result":146,"points":2,"place":1,"phase":1,"sequence":4,"prices":[172,191,176,272,179,194,146,152,126,235],"times":[397,445,479,536,503,497,709],"next_num":7,"trial_type":"ticket-choose","trial_index":89,"time_elapsed":799944,"internal_node_id":"0.0-89.0"},{"result":135,"points":3,"place":0,"phase":1,"sequence":5,"prices":[135,202,150,169,183,225,160,211,220,172],"times":[1212],"next_num":1,"trial_type":"ticket-choose","trial_index":90,"time_elapsed":803082,"internal_node_id":"0.0-90.0"},{"result":172,"points":1,"place":3,"phase":1,"sequence":6,"prices":[173,191,146,242,178,194,172,152,126,235],"times":[12018,327,331,504,1497,617,2624],"next_num":7,"trial_type":"ticket-choose","trial_index":91,"time_elapsed":834572,"internal_node_id":"0.0-91.0"},{"result":244,"points":0,"place":9,"phase":1,"sequence":7,"prices":[169,192,176,244,178,194,154,159,237,125],"times":[560,307,815,466],"next_num":4,"trial_type":"ticket-choose","trial_index":92,"time_elapsed":839222,"internal_node_id":"0.0-92.0"},{"result":154,"points":2,"place":1,"phase":1,"sequence":8,"prices":[169,194,154,271,178,201,176,158,236,127],"times":[396,500,1091],"next_num":3,"trial_type":"ticket-choose","trial_index":93,"time_elapsed":843684,"internal_node_id":"0.0-93.0"},{"result":159,"points":1,"place":2,"phase":1,"sequence":9,"prices":[170,193,176,245,178,194,154,159,236,126],"times":[473,482,234,534,551,410,404,439],"next_num":8,"trial_type":"ticket-choose","trial_index":94,"time_elapsed":850945,"internal_node_id":"0.0-94.0"},{"result":193,"points":0,"place":6,"phase":1,"sequence":10,"prices":[170,193,146,268,178,195,172,149,126,241],"times":[474,168],"next_num":2,"trial_type":"ticket-choose","trial_index":95,"time_elapsed":853833,"internal_node_id":"0.0-95.0"},{"result":153,"points":2,"place":1,"phase":1,"sequence":11,"prices":[143,206,153,194,201,267,168,208,210,196],"times":[260,770,551],"next_num":3,"trial_type":"ticket-choose","trial_index":96,"time_elapsed":857552,"internal_node_id":"0.0-96.0"},{"result":222,"points":0,"place":6,"phase":1,"sequence":12,"prices":[132,222,144,153,190,248,151,224,228,179],"times":[415,264],"next_num":2,"trial_type":"ticket-choose","trial_index":97,"time_elapsed":860500,"internal_node_id":"0.0-97.0"},{"result":168,"points":1,"place":3,"phase":1,"sequence":13,"prices":[168,192,154,237,182,196,176,156,235,133],"times":[1371],"next_num":1,"trial_type":"ticket-choose","trial_index":98,"time_elapsed":864596,"internal_node_id":"0.0-98.0"},{"result":124,"points":3,"place":0,"phase":1,"sequence":14,"prices":[124,220,136,165,185,234,143,225,228,179],"times":[1343],"next_num":1,"trial_type":"ticket-choose","trial_index":99,"time_elapsed":871398,"internal_node_id":"0.0-99.0"},{"result":174,"points":1,"place":4,"phase":1,"sequence":15,"prices":[169,192,174,246,180,195,136,152,238,126],"times":[788,354,684],"next_num":3,"trial_type":"ticket-choose","trial_index":100,"time_elapsed":875554,"internal_node_id":"0.0-100.0"},{"result":195,"points":0,"place":5,"phase":1,"sequence":16,"prices":[198,119,169,141,195,233,136,208,177,217],"times":[672,214,208,519,317],"next_num":5,"trial_type":"ticket-choose","trial_index":101,"time_elapsed":880045,"internal_node_id":"0.0-101.0"},{"result":117,"points":3,"place":0,"phase":1,"sequence":17,"prices":[117,161,120,147,153,259,144,191,195,149],"times":[1162],"next_num":1,"trial_type":"ticket-choose","trial_index":102,"time_elapsed":883612,"internal_node_id":"0.0-102.0"},{"result":180,"points":0,"place":5,"phase":1,"sequence":18,"prices":[173,191,174,270,180,193,136,153,239,129],"times":[417,244,525,498,535],"next_num":5,"trial_type":"ticket-choose","trial_index":103,"time_elapsed":891141,"internal_node_id":"0.0-103.0"},{"result":165,"points":2,"place":1,"phase":1,"sequence":19,"prices":[263,165,224,214,105,230,215,185,177,193],"times":[635,705],"next_num":2,"trial_type":"ticket-choose","trial_index":104,"time_elapsed":894414,"internal_node_id":"0.0-104.0"},{"result":124,"points":3,"place":0,"phase":1,"sequence":20,"prices":[219,183,227,124,176,161,140,129,171,201],"times":[480,302,603,633],"next_num":4,"trial_type":"ticket-choose","trial_index":105,"time_elapsed":898736,"internal_node_id":"0.0-105.0"},{"result":116,"points":3,"place":0,"phase":1,"sequence":21,"prices":[181,130,116,142,157,193,165,218,173,207],"times":[346,528,882],"next_num":3,"trial_type":"ticket-choose","trial_index":106,"time_elapsed":902794,"internal_node_id":"0.0-106.0"},{"result":191,"points":0,"place":6,"phase":1,"sequence":22,"prices":[169,191,154,268,183,197,176,155,236,133],"times":[662,440],"next_num":2,"trial_type":"ticket-choose","trial_index":107,"time_elapsed":905491,"internal_node_id":"0.0-107.0"},{"result":221,"points":0,"place":9,"phase":1,"sequence":23,"prices":[221,193,135,188,217,179,196,190,175,159],"times":[979],"next_num":1,"trial_type":"ticket-choose","trial_index":108,"time_elapsed":908228,"internal_node_id":"0.0-108.0"},{"result":146,"points":1,"place":2,"phase":1,"sequence":24,"prices":[186,146,191,179,152,116,140,201,172,187],"times":[652,1823],"next_num":2,"trial_type":"ticket-choose","trial_index":109,"time_elapsed":914944,"internal_node_id":"0.0-109.0"},{"result":157,"points":3,"place":0,"phase":1,"sequence":25,"prices":[157,213,159,187,194,242,161,222,225,189],"times":[1181],"next_num":1,"trial_type":"ticket-choose","trial_index":110,"time_elapsed":917900,"internal_node_id":"0.0-110.0"},{"result":149,"points":2,"place":1,"phase":1,"sequence":26,"prices":[196,221,149,164,216,167,175,128,176,181],"times":[764,575,596],"next_num":3,"trial_type":"ticket-choose","trial_index":111,"time_elapsed":922192,"internal_node_id":"0.0-111.0"},{"result":136,"points":2,"place":1,"phase":1,"sequence":27,"prices":[173,194,136,239,182,200,174,150,236,127],"times":[1036,518,538],"next_num":3,"trial_type":"ticket-choose","trial_index":112,"time_elapsed":926438,"internal_node_id":"0.0-112.0"},{"result":137,"points":3,"place":0,"phase":1,"sequence":28,"prices":[137,187,152,156,166,231,155,194,202,160],"times":[1016],"next_num":1,"trial_type":"ticket-choose","trial_index":113,"time_elapsed":929294,"internal_node_id":"0.0-113.0"},{"result":146,"points":2,"place":1,"phase":1,"sequence":29,"prices":[168,191,146,252,183,193,172,153,126,238],"times":[635,533,599],"next_num":3,"trial_type":"ticket-choose","trial_index":114,"time_elapsed":933051,"internal_node_id":"0.0-114.0"},{"result":136,"points":2,"place":1,"phase":1,"sequence":30,"prices":[171,192,136,243,182,195,174,154,236,128],"times":[777,516,621],"next_num":3,"trial_type":"ticket-choose","trial_index":115,"time_elapsed":937002,"internal_node_id":"0.0-115.0"},{"result":196,"points":0,"place":5,"phase":1,"sequence":31,"prices":[244,203,196,189,154,206,197,149,171,159],"times":[346,454,584],"next_num":3,"trial_type":"ticket-choose","trial_index":116,"time_elapsed":940395,"internal_node_id":"0.0-116.0"},{"result":154,"points":2,"place":1,"phase":1,"sequence":32,"prices":[170,190,176,251,183,192,154,157,236,131],"times":[446,535,476,503,461,518,646],"next_num":7,"trial_type":"ticket-choose","trial_index":117,"time_elapsed":946862,"internal_node_id":"0.0-117.0"},{"result":136,"points":2,"place":1,"phase":1,"sequence":33,"prices":[171,192,136,265,180,194,174,152,239,127],"times":[653,493,689],"next_num":3,"trial_type":"ticket-choose","trial_index":118,"time_elapsed":950871,"internal_node_id":"0.0-118.0"},{"result":141,"points":1,"place":3,"phase":1,"sequence":34,"prices":[121,191,128,141,166,217,129,196,202,157],"times":[274,539,466,393],"next_num":4,"trial_type":"ticket-choose","trial_index":119,"time_elapsed":954810,"internal_node_id":"0.0-119.0"},{"result":237,"points":0,"place":9,"phase":1,"sequence":35,"prices":[169,193,146,237,180,196,172,150,129,236],"times":[529,540,493,34],"next_num":4,"trial_type":"ticket-choose","trial_index":120,"time_elapsed":958900,"internal_node_id":"0.0-120.0"},{"result":138,"points":1,"place":2,"phase":1,"sequence":36,"prices":[181,138,118,170,190,101,146,169,175,233],"times":[807,607],"next_num":2,"trial_type":"ticket-choose","trial_index":121,"time_elapsed":962348,"internal_node_id":"0.0-121.0"},{"result":146,"points":2,"place":1,"phase":1,"sequence":37,"prices":[171,195,172,242,179,196,146,150,128,235],"times":[648,665,485,451,439,443,610],"next_num":7,"trial_type":"ticket-choose","trial_index":122,"time_elapsed":968911,"internal_node_id":"0.0-122.0"},{"result":136,"points":2,"place":1,"phase":1,"sequence":38,"prices":[172,190,136,270,179,192,174,152,237,129],"times":[522,471,585],"next_num":3,"trial_type":"ticket-choose","trial_index":123,"time_elapsed":972406,"internal_node_id":"0.0-123.0"},{"result":154,"points":2,"place":1,"phase":1,"sequence":39,"prices":[169,193,154,255,178,194,176,158,239,126],"times":[529,688,697],"next_num":3,"trial_type":"ticket-choose","trial_index":124,"time_elapsed":976303,"internal_node_id":"0.0-124.0"},{"result":164,"points":1,"place":3,"phase":1,"sequence":40,"prices":[155,129,164,189,210,108,187,241,174,275],"times":[744,487,530],"next_num":3,"trial_type":"ticket-choose","trial_index":125,"time_elapsed":980371,"internal_node_id":"0.0-125.0"},{"result":157,"points":3,"place":0,"phase":1,"sequence":41,"prices":[157,205,161,175,197,254,165,210,214,192],"times":[807],"next_num":1,"trial_type":"ticket-choose","trial_index":126,"time_elapsed":982676,"internal_node_id":"0.0-126.0"},{"result":168,"points":1,"place":3,"phase":1,"sequence":42,"prices":[168,192,176,242,183,197,154,156,237,132],"times":[625],"next_num":1,"trial_type":"ticket-choose","trial_index":127,"time_elapsed":984800,"internal_node_id":"0.0-127.0"},{"result":196,"points":0,"place":7,"phase":1,"sequence":43,"prices":[170,192,174,242,181,196,136,153,236,128],"times":[600,642,790,559,704,616],"next_num":6,"trial_type":"ticket-choose","trial_index":128,"time_elapsed":991375,"internal_node_id":"0.0-128.0"},{"result":188,"points":1,"place":3,"phase":1,"sequence":44,"prices":[240,188,273,207,250,136,217,170,171,236],"times":[1130,673],"next_num":2,"trial_type":"ticket-choose","trial_index":129,"time_elapsed":999341,"internal_node_id":"0.0-129.0"},{"result":153,"points":2,"place":1,"phase":1,"sequence":45,"prices":[197,153,181,215,150,155,164,247,177,162],"times":[626,643],"next_num":2,"trial_type":"ticket-choose","trial_index":130,"time_elapsed":1002459,"internal_node_id":"0.0-130.0"},{"result":142,"points":3,"place":0,"phase":1,"sequence":46,"prices":[142,207,171,182,190,269,180,218,256,188],"times":[727],"next_num":1,"trial_type":"ticket-choose","trial_index":131,"time_elapsed":1004700,"internal_node_id":"0.0-131.0"},{"result":172,"points":1,"place":3,"phase":1,"sequence":47,"prices":[172,194,174,243,182,193,136,150,237,126],"times":[898],"next_num":1,"trial_type":"ticket-choose","trial_index":132,"time_elapsed":1007348,"internal_node_id":"0.0-132.0"},{"result":168,"points":1,"place":3,"phase":1,"sequence":48,"prices":[168,191,172,240,183,193,146,151,125,238],"times":[769],"next_num":1,"trial_type":"ticket-choose","trial_index":133,"time_elapsed":1009876,"internal_node_id":"0.0-133.0"},{"result":182,"points":0,"place":5,"phase":1,"sequence":49,"prices":[182,249,159,114,184,205,175,189,172,178],"times":[1911],"next_num":1,"trial_type":"ticket-choose","trial_index":134,"time_elapsed":1013574,"internal_node_id":"0.0-134.0"},{"responses":[{"value":2,"offby":1,"category":"$90 - $120","category_index":0},{"value":3,"offby":0,"category":"$121 - $145","category_index":1},{"value":4,"offby":1,"category":"$146 - $170","category_index":2},{"value":5,"offby":-1,"category":"$171 - $195","category_index":3},{"value":2,"offby":-2,"category":"$196 - $220","category_index":4},{"value":2,"offby":0,"category":"$221 - $245","category_index":5},{"value":2,"offby":1,"category":"$246 - $270","category_index":6}],"phase":1,"number":1,"trial_type":"bar-choose","trial_index":135,"time_elapsed":1032056,"internal_node_id":"0.0-135.0"},{"special_comment":"","trial_type":"special_sequence","trial_index":136,"time_elapsed":1035598,"internal_node_id":"0.0-136.0"},{"during":"Nothing","bonus":232,"trial_type":"final","trial_index":137,"time_elapsed":1077546,"internal_node_id":"0.0-137.0"}],"bonus":232}