{"start_time":"2017-02-27 11:02:39","end_time":"2017-02-27 11:37:27","points_phase0":125,"points_phase1":126,"phase_order":0,"age":32,"gender":"m","tries":1,"during":"Nothing","worker_id":"A2RBF3IIJP15IH","assignment_id":"354P56DE9LW7R2U4W1HKNAWYKOK7S4","data":[{"rt":5525,"url":"\/tickets\/utils\/consent.html","trial_type":"html","trial_index":0,"time_elapsed":6258,"internal_node_id":"0.0-0.0"},{"age":32,"gender":"m","trial_type":"age","trial_index":1,"time_elapsed":10662,"internal_node_id":"0.0-1.0"},{"worker_id":"A2RBF3IIJP15IH","trial_type":"workerid","trial_index":2,"time_elapsed":24411,"internal_node_id":"0.0-2.0"},{"tries":1,"trial_type":"instructions_check","trial_index":3,"time_elapsed":59986,"internal_node_id":"0.0-3.0"},{"rt":9259,"url":"\/tickets\/utils\/start.html","trial_type":"html","trial_index":4,"time_elapsed":70436,"internal_node_id":"0.0-4.0"},{"trial_type":"number-animation","trial_index":5,"time_elapsed":83105,"internal_node_id":"0.0-5.0"},{"phase":0,"sequence":0,"avg":180,"response":170,"trial_type":"training_avg","trial_index":6,"time_elapsed":89723,"internal_node_id":"0.0-6.0"},{"trial_type":"number-animation","trial_index":7,"time_elapsed":99667,"internal_node_id":"0.0-7.0"},{"phase":0,"sequence":1,"avg":178,"response":175,"trial_type":"training_avg","trial_index":8,"time_elapsed":105794,"internal_node_id":"0.0-8.0"},{"trial_type":"number-animation","trial_index":9,"time_elapsed":113232,"internal_node_id":"0.0-9.0"},{"phase":0,"sequence":2,"avg":176,"response":173,"trial_type":"training_avg","trial_index":10,"time_elapsed":118073,"internal_node_id":"0.0-10.0"},{"trial_type":"number-animation","trial_index":11,"time_elapsed":124097,"internal_node_id":"0.0-11.0"},{"phase":0,"sequence":3,"avg":178,"response":172,"trial_type":"training_avg","trial_index":12,"time_elapsed":129148,"internal_node_id":"0.0-12.0"},{"trial_type":"number-animation","trial_index":13,"time_elapsed":135456,"internal_node_id":"0.0-13.0"},{"phase":0,"sequence":4,"avg":179,"response":177,"trial_type":"training_avg","trial_index":14,"time_elapsed":141391,"internal_node_id":"0.0-14.0"},{"responses":[{"value":0,"offby":0,"category":"$140 - $250","category_index":0},{"value":2,"offby":2,"category":"$151 - $160","category_index":1},{"value":2,"offby":-2,"category":"$161 - $170","category_index":2},{"value":13,"offby":7,"category":"$171 - $180","category_index":3},{"value":2,"offby":-5,"category":"$181 - $190","category_index":4},{"value":1,"offby":-2,"category":"$191 - $200","category_index":5},{"value":0,"offby":0,"category":"$201 - $210","category_index":6}],"phase":0,"number":0,"trial_type":"bar-choose","trial_index":15,"time_elapsed":196050,"internal_node_id":"0.0-15.0"},{"rt":10123,"url":"\/tickets\/\/utils\/testing.html","trial_type":"html","trial_index":16,"time_elapsed":207352,"internal_node_id":"0.0-16.0"},{"phase":0,"order":[40,24,17,36,16,38,31,35,21,14,18,49,23,29,9,32,12,33,41,11,27,4,34,0,8,7,19,25,10,3,42,44,39,5,20,30,43,45,1,48,37,2,28,26,22,15,13,6,47,46],"trial_type":"store_order","trial_index":17,"time_elapsed":208354,"internal_node_id":"0.0-17.0"},{"result":165,"points":2,"place":1,"phase":0,"sequence":-1,"prices":[184,180,224,165,181,199,185,193,218,126],"times":[4062,1224,794,1422],"next_num":4,"trial_type":"ticket-choose","trial_index":18,"time_elapsed":219237,"internal_node_id":"0.0-18.0"},{"rt":350897,"url":"\/tickets\/utils\/testing_after.html","trial_type":"html","trial_index":19,"time_elapsed":571320,"internal_node_id":"0.0-19.0"},{"result":167,"points":3,"place":0,"phase":0,"sequence":0,"prices":[179,174,199,178,196,167,170,184,177,190],"times":[1583,595,634,578,600,3070],"next_num":6,"trial_type":"ticket-choose","trial_index":20,"time_elapsed":582766,"internal_node_id":"0.0-20.0"},{"result":161,"points":3,"place":0,"phase":0,"sequence":1,"prices":[161,180,170,174,178,198,173,182,188,176],"times":[1296],"next_num":1,"trial_type":"ticket-choose","trial_index":21,"time_elapsed":586388,"internal_node_id":"0.0-21.0"},{"result":168,"points":2,"place":1,"phase":0,"sequence":2,"prices":[174,178,168,192,177,181,176,171,163,182],"times":[679,503,1094],"next_num":3,"trial_type":"ticket-choose","trial_index":22,"time_elapsed":591211,"internal_node_id":"0.0-22.0"},{"result":167,"points":3,"place":0,"phase":0,"sequence":3,"prices":[189,185,169,168,167,171,180,173,174,188],"times":[626,478,1451,1647,1031],"next_num":5,"trial_type":"ticket-choose","trial_index":23,"time_elapsed":599468,"internal_node_id":"0.0-23.0"},{"result":168,"points":2,"place":1,"phase":0,"sequence":4,"prices":[174,178,168,192,177,181,176,171,163,182],"times":[556,536,1978],"next_num":3,"trial_type":"ticket-choose","trial_index":24,"time_elapsed":604805,"internal_node_id":"0.0-24.0"},{"result":177,"points":1,"place":2,"phase":0,"sequence":5,"prices":[181,179,199,188,170,172,178,187,191,177],"times":[598,683,510,448,496,531,509,564,518,1015],"next_num":10,"trial_type":"ticket-choose","trial_index":25,"time_elapsed":614610,"internal_node_id":"0.0-25.0"},{"result":157,"points":3,"place":0,"phase":0,"sequence":6,"prices":[157,184,163,174,181,190,168,187,189,177],"times":[1641],"next_num":1,"trial_type":"ticket-choose","trial_index":26,"time_elapsed":618070,"internal_node_id":"0.0-26.0"},{"result":154,"points":3,"place":0,"phase":0,"sequence":7,"prices":[188,179,154,183,173,170,177,160,169,175],"times":[1513,541,1145],"next_num":3,"trial_type":"ticket-choose","trial_index":27,"time_elapsed":623568,"internal_node_id":"0.0-27.0"},{"result":168,"points":2,"place":1,"phase":0,"sequence":8,"prices":[174,178,176,192,177,181,168,171,163,182],"times":[1340,541,528,525,563,538,1224],"next_num":7,"trial_type":"ticket-choose","trial_index":28,"time_elapsed":631916,"internal_node_id":"0.0-28.0"},{"result":166,"points":3,"place":0,"phase":0,"sequence":9,"prices":[175,180,178,195,179,184,170,174,166,185],"times":[439,516,516,678,546,554,543,520,1079],"next_num":9,"trial_type":"ticket-choose","trial_index":29,"time_elapsed":640931,"internal_node_id":"0.0-29.0"},{"result":164,"points":3,"place":0,"phase":0,"sequence":10,"prices":[173,178,168,193,177,182,176,172,164,183],"times":[892,505,2629,517,482,540,537,510,1203],"next_num":9,"trial_type":"ticket-choose","trial_index":30,"time_elapsed":652332,"internal_node_id":"0.0-30.0"},{"result":165,"points":3,"place":0,"phase":0,"sequence":11,"prices":[175,189,193,170,179,165,180,186,177,184],"times":[506,510,578,498,498,1383],"next_num":6,"trial_type":"ticket-choose","trial_index":31,"time_elapsed":659195,"internal_node_id":"0.0-31.0"},{"result":164,"points":3,"place":0,"phase":0,"sequence":12,"prices":[173,178,176,193,177,182,168,172,164,183],"times":[447,495,537,623,514,568,2106,584,697],"next_num":9,"trial_type":"ticket-choose","trial_index":32,"time_elapsed":669283,"internal_node_id":"0.0-32.0"},{"result":166,"points":3,"place":0,"phase":0,"sequence":13,"prices":[166,190,170,173,178,203,172,192,198,174],"times":[1491],"next_num":1,"trial_type":"ticket-choose","trial_index":33,"time_elapsed":672552,"internal_node_id":"0.0-33.0"},{"result":165,"points":3,"place":0,"phase":0,"sequence":14,"prices":[176,180,170,194,179,183,178,173,165,184],"times":[523,519,480,486,490,561,503,484,1369],"next_num":9,"trial_type":"ticket-choose","trial_index":34,"time_elapsed":681392,"internal_node_id":"0.0-34.0"},{"result":175,"points":1,"place":4,"phase":0,"sequence":15,"prices":[171,180,172,174,179,188,173,183,186,175],"times":[1767,544,619,2176,577,588,634,761,703,1459],"next_num":10,"trial_type":"ticket-choose","trial_index":35,"time_elapsed":695429,"internal_node_id":"0.0-35.0"},{"result":165,"points":3,"place":0,"phase":0,"sequence":16,"prices":[176,180,178,194,179,183,170,173,165,184],"times":[370081,754,617,677,562,621,646,645,1497],"next_num":9,"trial_type":"ticket-choose","trial_index":36,"time_elapsed":1075825,"internal_node_id":"0.0-36.0"},{"result":179,"points":1,"place":4,"phase":0,"sequence":17,"prices":[170,183,172,175,180,189,174,187,188,179],"times":[2142,623,638,579,646,700,692,700,631,1449],"next_num":10,"trial_type":"ticket-choose","trial_index":37,"time_elapsed":1088881,"internal_node_id":"0.0-37.0"},{"result":165,"points":3,"place":0,"phase":0,"sequence":18,"prices":[180,165,177,193,186,196,187,169,171,182],"times":[1123,1178],"next_num":2,"trial_type":"ticket-choose","trial_index":38,"time_elapsed":1093570,"internal_node_id":"0.0-38.0"},{"result":166,"points":3,"place":0,"phase":0,"sequence":19,"prices":[175,180,170,195,179,184,178,174,166,185],"times":[743,638,661,722,724,668,638,1289,1509],"next_num":9,"trial_type":"ticket-choose","trial_index":39,"time_elapsed":1104706,"internal_node_id":"0.0-39.0"},{"result":183,"points":1,"place":4,"phase":0,"sequence":20,"prices":[168,188,171,181,184,196,180,194,195,183],"times":[2005,683,715,646,1226,762,687,692,762,1138],"next_num":10,"trial_type":"ticket-choose","trial_index":40,"time_elapsed":1117947,"internal_node_id":"0.0-40.0"},{"result":169,"points":2,"place":1,"phase":0,"sequence":21,"prices":[175,179,177,193,178,182,169,172,164,183],"times":[990,631,714,665,701,733,1108],"next_num":7,"trial_type":"ticket-choose","trial_index":41,"time_elapsed":1126730,"internal_node_id":"0.0-41.0"},{"result":165,"points":2,"place":1,"phase":0,"sequence":22,"prices":[181,180,191,186,165,197,159,167,194,185],"times":[1045,609,647,659,1123],"next_num":5,"trial_type":"ticket-choose","trial_index":42,"time_elapsed":1133532,"internal_node_id":"0.0-42.0"},{"result":164,"points":3,"place":0,"phase":0,"sequence":23,"prices":[175,179,169,193,178,182,177,172,164,183],"times":[1011,600,1186,855,655,655,574,632,1176],"next_num":9,"trial_type":"ticket-choose","trial_index":43,"time_elapsed":1144362,"internal_node_id":"0.0-43.0"},{"result":165,"points":3,"place":0,"phase":0,"sequence":24,"prices":[176,180,170,194,179,183,178,173,165,184],"times":[1114,609,609,630,600,599,623,655,1101],"next_num":9,"trial_type":"ticket-choose","trial_index":44,"time_elapsed":1155173,"internal_node_id":"0.0-44.0"},{"result":169,"points":2,"place":1,"phase":0,"sequence":25,"prices":[174,179,177,194,178,183,169,173,165,184],"times":[1253,630,600,687,668,724,1511],"next_num":7,"trial_type":"ticket-choose","trial_index":45,"time_elapsed":1164429,"internal_node_id":"0.0-45.0"},{"result":168,"points":2,"place":1,"phase":0,"sequence":26,"prices":[173,178,168,193,177,182,176,172,164,183],"times":[1419,601,1474],"next_num":3,"trial_type":"ticket-choose","trial_index":46,"time_elapsed":1170191,"internal_node_id":"0.0-46.0"},{"result":163,"points":3,"place":0,"phase":0,"sequence":27,"prices":[163,185,165,174,181,198,173,186,187,180],"times":[1164],"next_num":1,"trial_type":"ticket-choose","trial_index":47,"time_elapsed":1173891,"internal_node_id":"0.0-47.0"},{"result":166,"points":3,"place":0,"phase":0,"sequence":28,"prices":[175,180,170,195,179,184,178,174,166,185],"times":[923,614,623,655,691,691,772,721,1094],"next_num":9,"trial_type":"ticket-choose","trial_index":48,"time_elapsed":1184187,"internal_node_id":"0.0-48.0"},{"result":165,"points":3,"place":0,"phase":0,"sequence":29,"prices":[174,179,169,194,178,183,177,173,165,184],"times":[967,610,1178,568,640,656,746,708,1152],"next_num":9,"trial_type":"ticket-choose","trial_index":49,"time_elapsed":1195147,"internal_node_id":"0.0-49.0"},{"result":160,"points":3,"place":0,"phase":0,"sequence":30,"prices":[175,193,175,160,180,170,175,205,177,167],"times":[972,732,669,1179],"next_num":4,"trial_type":"ticket-choose","trial_index":50,"time_elapsed":1201138,"internal_node_id":"0.0-50.0"},{"result":150,"points":3,"place":0,"phase":0,"sequence":31,"prices":[175,150,164,155,171,199,158,180,184,196],"times":[848,1131],"next_num":2,"trial_type":"ticket-choose","trial_index":51,"time_elapsed":1205132,"internal_node_id":"0.0-51.0"},{"result":156,"points":3,"place":0,"phase":0,"sequence":32,"prices":[195,177,197,179,171,173,175,156,163,204],"times":[648,793,668,662,663,1062,693,1134],"next_num":8,"trial_type":"ticket-choose","trial_index":52,"time_elapsed":1214941,"internal_node_id":"0.0-52.0"},{"result":169,"points":2,"place":1,"phase":0,"sequence":33,"prices":[175,179,177,193,178,182,169,172,164,183],"times":[1264,644,655,754,761,770,2481],"next_num":7,"trial_type":"ticket-choose","trial_index":53,"time_elapsed":1225437,"internal_node_id":"0.0-53.0"},{"result":168,"points":2,"place":1,"phase":0,"sequence":34,"prices":[174,178,176,192,177,181,168,171,163,182],"times":[1056,630,701,748,801,716,1748],"next_num":7,"trial_type":"ticket-choose","trial_index":54,"time_elapsed":1234916,"internal_node_id":"0.0-54.0"},{"result":160,"points":3,"place":0,"phase":0,"sequence":35,"prices":[160,185,170,174,182,196,173,186,194,177],"times":[1231],"next_num":1,"trial_type":"ticket-choose","trial_index":55,"time_elapsed":1238061,"internal_node_id":"0.0-55.0"},{"result":157,"points":2,"place":1,"phase":0,"sequence":36,"prices":[188,191,179,157,181,164,166,156,175,182],"times":[1040,643,604,1242],"next_num":4,"trial_type":"ticket-choose","trial_index":56,"time_elapsed":1244203,"internal_node_id":"0.0-56.0"},{"result":162,"points":3,"place":0,"phase":0,"sequence":37,"prices":[179,174,172,162,202,184,165,197,185,169],"times":[756,586,633,1142],"next_num":4,"trial_type":"ticket-choose","trial_index":57,"time_elapsed":1249978,"internal_node_id":"0.0-57.0"},{"result":164,"points":3,"place":0,"phase":0,"sequence":38,"prices":[175,179,169,193,178,182,177,172,164,183],"times":[1151,628,1194,610,645,684,708,625,1093],"next_num":9,"trial_type":"ticket-choose","trial_index":58,"time_elapsed":1260853,"internal_node_id":"0.0-58.0"},{"result":187,"points":0,"place":7,"phase":0,"sequence":39,"prices":[193,173,175,182,179,198,181,171,176,187],"times":[1061,705,617,675,685,639,616,647,1548,1031],"next_num":10,"trial_type":"ticket-choose","trial_index":59,"time_elapsed":1273268,"internal_node_id":"0.0-59.0"},{"result":153,"points":3,"place":0,"phase":0,"sequence":40,"prices":[181,175,182,168,183,173,153,170,193,179],"times":[1167,600,685,1712,598,610,1563],"next_num":7,"trial_type":"ticket-choose","trial_index":60,"time_elapsed":1283192,"internal_node_id":"0.0-60.0"},{"result":165,"points":3,"place":0,"phase":0,"sequence":41,"prices":[174,179,169,194,178,183,177,173,165,184],"times":[1318,623,1311,577,621,772,654,670,1091],"next_num":9,"trial_type":"ticket-choose","trial_index":61,"time_elapsed":1294290,"internal_node_id":"0.0-61.0"},{"result":159,"points":3,"place":0,"phase":0,"sequence":42,"prices":[159,178,170,174,176,194,173,182,185,175],"times":[1244],"next_num":1,"trial_type":"ticket-choose","trial_index":62,"time_elapsed":1297374,"internal_node_id":"0.0-62.0"},{"result":165,"points":3,"place":0,"phase":0,"sequence":43,"prices":[165,187,173,177,186,196,176,191,192,181],"times":[1405],"next_num":1,"trial_type":"ticket-choose","trial_index":63,"time_elapsed":1300684,"internal_node_id":"0.0-63.0"},{"result":168,"points":2,"place":1,"phase":0,"sequence":44,"prices":[173,178,176,193,177,182,168,172,164,183],"times":[1168,924,700,738,699,679,1170],"next_num":7,"trial_type":"ticket-choose","trial_index":64,"time_elapsed":1309812,"internal_node_id":"0.0-64.0"},{"result":166,"points":3,"place":0,"phase":0,"sequence":45,"prices":[175,180,178,195,179,184,170,174,166,185],"times":[907,598,586,742,684,674,687,832,1357],"next_num":9,"trial_type":"ticket-choose","trial_index":65,"time_elapsed":1320834,"internal_node_id":"0.0-65.0"},{"result":165,"points":3,"place":0,"phase":0,"sequence":46,"prices":[176,180,178,194,179,183,170,173,165,184],"times":[1369,700,746,755,709,723,755,770,1349],"next_num":9,"trial_type":"ticket-choose","trial_index":66,"time_elapsed":1332394,"internal_node_id":"0.0-66.0"},{"result":165,"points":3,"place":0,"phase":0,"sequence":47,"prices":[174,179,177,194,178,183,169,173,165,184],"times":[997,660,592,686,701,644,1186,647,1107],"next_num":9,"trial_type":"ticket-choose","trial_index":67,"time_elapsed":1343544,"internal_node_id":"0.0-67.0"},{"result":181,"points":0,"place":5,"phase":0,"sequence":48,"prices":[180,175,173,177,191,190,184,196,174,181],"times":[1515,675,632,608,684,767,672,832,962,963],"next_num":10,"trial_type":"ticket-choose","trial_index":68,"time_elapsed":1355862,"internal_node_id":"0.0-68.0"},{"result":166,"points":3,"place":0,"phase":0,"sequence":49,"prices":[179,186,197,201,166,187,188,193,190,177],"times":[1201,723,624,761,1061],"next_num":5,"trial_type":"ticket-choose","trial_index":69,"time_elapsed":1363118,"internal_node_id":"0.0-69.0"},{"responses":[{"value":0,"offby":0,"category":"$140 - $250","category_index":0},{"value":0,"offby":0,"category":"$151 - $160","category_index":1},{"value":2,"offby":-2,"category":"$161 - $170","category_index":2},{"value":15,"offby":9,"category":"$171 - $180","category_index":3},{"value":3,"offby":-4,"category":"$181 - $190","category_index":4},{"value":0,"offby":-3,"category":"$191 - $200","category_index":5},{"value":0,"offby":0,"category":"$201 - $210","category_index":6}],"phase":0,"number":1,"trial_type":"bar-choose","trial_index":70,"time_elapsed":1402440,"internal_node_id":"0.0-70.0"},{"rt":4846,"url":"\/tickets\/utils\/start2.html","trial_type":"html","trial_index":71,"time_elapsed":1408446,"internal_node_id":"0.0-71.0"},{"trial_type":"number-animation","trial_index":72,"time_elapsed":1420860,"internal_node_id":"0.0-72.0"},{"phase":1,"sequence":0,"avg":166,"response":130,"trial_type":"training_avg","trial_index":73,"time_elapsed":1425652,"internal_node_id":"0.0-73.0"},{"trial_type":"number-animation","trial_index":74,"time_elapsed":1432584,"internal_node_id":"0.0-74.0"},{"phase":1,"sequence":1,"avg":198,"response":174,"trial_type":"training_avg","trial_index":75,"time_elapsed":1440659,"internal_node_id":"0.0-75.0"},{"trial_type":"number-animation","trial_index":76,"time_elapsed":1447475,"internal_node_id":"0.0-76.0"},{"phase":1,"sequence":2,"avg":177,"response":188,"trial_type":"training_avg","trial_index":77,"time_elapsed":1454607,"internal_node_id":"0.0-77.0"},{"trial_type":"number-animation","trial_index":78,"time_elapsed":1463297,"internal_node_id":"0.0-78.0"},{"phase":1,"sequence":3,"avg":190,"response":190,"trial_type":"training_avg","trial_index":79,"time_elapsed":1469954,"internal_node_id":"0.0-79.0"},{"trial_type":"number-animation","trial_index":80,"time_elapsed":1477545,"internal_node_id":"0.0-80.0"},{"phase":1,"sequence":4,"avg":201,"response":200,"trial_type":"training_avg","trial_index":81,"time_elapsed":1484291,"internal_node_id":"0.0-81.0"},{"responses":[{"value":0,"offby":-1,"category":"$30 - $75","category_index":0},{"value":0,"offby":-2,"category":"$76 - $120","category_index":1},{"value":0,"offby":-4,"category":"$121 - $165","category_index":2},{"value":15,"offby":9,"category":"$166 - $210","category_index":3},{"value":5,"offby":-1,"category":"$211 - $255","category_index":4},{"value":0,"offby":-1,"category":"$256 - $300","category_index":5},{"value":0,"offby":0,"category":"$301 - $345","category_index":6}],"phase":1,"number":0,"trial_type":"bar-choose","trial_index":82,"time_elapsed":1509145,"internal_node_id":"0.0-82.0"},{"rt":14085,"url":"\/tickets\/utils\/testing2.html","trial_type":"html","trial_index":83,"time_elapsed":1524653,"internal_node_id":"0.0-83.0"},{"phase":1,"order":[20,1,26,27,46,21,32,24,14,39,37,38,35,6,5,2,4,18,3,16,19,48,10,43,15,7,41,40,28,25,36,23,34,11,17,49,33,29,42,30,44,9,47,13,45,8,0,22,12,31],"trial_type":"store_order","trial_index":84,"time_elapsed":1525657,"internal_node_id":"0.0-84.0"},{"result":121,"points":2,"place":1,"phase":1,"sequence":0,"prices":[150,170,160,240,166,185,121,136,95,191],"times":[7422,604,541,576,644,586,1281],"next_num":7,"trial_type":"ticket-choose","trial_index":85,"time_elapsed":1541407,"internal_node_id":"0.0-85.0"},{"result":125,"points":2,"place":1,"phase":1,"sequence":1,"prices":[156,175,125,245,170,190,165,140,101,196],"times":[2804,524,1418],"next_num":3,"trial_type":"ticket-choose","trial_index":86,"time_elapsed":1548562,"internal_node_id":"0.0-86.0"},{"result":105,"points":3,"place":0,"phase":1,"sequence":2,"prices":[105,216,146,165,210,260,161,235,241,185],"times":[1232],"next_num":1,"trial_type":"ticket-choose","trial_index":87,"time_elapsed":1551601,"internal_node_id":"0.0-87.0"},{"result":120,"points":3,"place":0,"phase":1,"sequence":3,"prices":[120,221,135,185,200,261,181,251,255,196],"times":[1280],"next_num":1,"trial_type":"ticket-choose","trial_index":88,"time_elapsed":1554762,"internal_node_id":"0.0-88.0"},{"result":111,"points":3,"place":0,"phase":1,"sequence":4,"prices":[175,211,266,286,111,216,220,245,230,165],"times":[1043,591,527,495,1166],"next_num":5,"trial_type":"ticket-choose","trial_index":89,"time_elapsed":1561256,"internal_node_id":"0.0-89.0"},{"result":120,"points":2,"place":1,"phase":1,"sequence":5,"prices":[150,170,160,241,166,186,120,136,96,191],"times":[843,537,571,541,635,555,1350],"next_num":7,"trial_type":"ticket-choose","trial_index":90,"time_elapsed":1569492,"internal_node_id":"0.0-90.0"},{"result":155,"points":1,"place":4,"phase":1,"sequence":6,"prices":[135,180,141,151,175,220,145,196,211,155],"times":[1080,485,525,573,483,560,583,491,703,877],"next_num":10,"trial_type":"ticket-choose","trial_index":91,"time_elapsed":1579610,"internal_node_id":"0.0-91.0"},{"result":86,"points":3,"place":0,"phase":1,"sequence":7,"prices":[86,180,130,151,170,271,145,191,220,160],"times":[1396],"next_num":1,"trial_type":"ticket-choose","trial_index":92,"time_elapsed":1582794,"internal_node_id":"0.0-92.0"},{"result":130,"points":2,"place":1,"phase":1,"sequence":8,"prices":[155,181,170,255,176,200,130,150,110,205],"times":[829,500,484,495,541,516,1755],"next_num":7,"trial_type":"ticket-choose","trial_index":93,"time_elapsed":1591061,"internal_node_id":"0.0-93.0"},{"result":61,"points":3,"place":0,"phase":1,"sequence":9,"prices":[255,166,266,175,136,145,155,61,96,301],"times":[114248,2054,506,732,1169,495,536,1570],"next_num":8,"trial_type":"ticket-choose","trial_index":94,"time_elapsed":1715987,"internal_node_id":"0.0-94.0"},{"result":120,"points":2,"place":1,"phase":1,"sequence":10,"prices":[186,156,191,120,195,145,45,130,246,176],"times":[507,775,503,1601],"next_num":4,"trial_type":"ticket-choose","trial_index":95,"time_elapsed":1721839,"internal_node_id":"0.0-95.0"},{"result":165,"points":1,"place":2,"phase":1,"sequence":11,"prices":[185,175,276,221,130,141,171,216,235,165],"times":[456,554,615,521,725,561,577,524,510,1572],"next_num":10,"trial_type":"ticket-choose","trial_index":96,"time_elapsed":1732241,"internal_node_id":"0.0-96.0"},{"result":51,"points":3,"place":0,"phase":1,"sequence":12,"prices":[221,175,51,196,146,130,166,80,126,156],"times":[495,458,1138],"next_num":3,"trial_type":"ticket-choose","trial_index":97,"time_elapsed":1736529,"internal_node_id":"0.0-97.0"},{"result":105,"points":3,"place":0,"phase":1,"sequence":13,"prices":[150,175,166,251,170,196,126,145,105,201],"times":[341,672,613,494,498,482,530,624,1663],"next_num":9,"trial_type":"ticket-choose","trial_index":98,"time_elapsed":1745860,"internal_node_id":"0.0-98.0"},{"result":126,"points":2,"place":1,"phase":1,"sequence":14,"prices":[156,176,165,246,171,190,126,141,101,196],"times":[482,513,675,546,590,547,1434],"next_num":7,"trial_type":"ticket-choose","trial_index":99,"time_elapsed":1753855,"internal_node_id":"0.0-99.0"},{"result":105,"points":3,"place":0,"phase":1,"sequence":15,"prices":[151,176,126,251,170,196,165,145,105,201],"times":[536,475,970,566,504,529,539,559,1410],"next_num":9,"trial_type":"ticket-choose","trial_index":100,"time_elapsed":1763482,"internal_node_id":"0.0-100.0"},{"result":101,"points":3,"place":0,"phase":1,"sequence":16,"prices":[155,175,166,245,171,190,125,140,101,196],"times":[551,506,608,556,679,495,3577,509,978],"next_num":9,"trial_type":"ticket-choose","trial_index":101,"time_elapsed":1775433,"internal_node_id":"0.0-101.0"},{"result":100,"points":3,"place":0,"phase":1,"sequence":17,"prices":[146,171,120,245,165,191,160,140,100,196],"times":[518,447,410,479,443,546,540,734,1103],"next_num":9,"trial_type":"ticket-choose","trial_index":102,"time_elapsed":1784073,"internal_node_id":"0.0-102.0"},{"result":105,"points":3,"place":0,"phase":1,"sequence":18,"prices":[150,176,126,251,171,195,165,145,105,200],"times":[474,517,551,494,471,482,489,567,1308],"next_num":9,"trial_type":"ticket-choose","trial_index":103,"time_elapsed":1792833,"internal_node_id":"0.0-103.0"},{"result":95,"points":3,"place":0,"phase":1,"sequence":19,"prices":[150,171,121,241,165,185,160,136,95,191],"times":[570,470,902,501,443,472,566,480,1223],"next_num":9,"trial_type":"ticket-choose","trial_index":104,"time_elapsed":1801934,"internal_node_id":"0.0-104.0"},{"result":100,"points":3,"place":0,"phase":1,"sequence":20,"prices":[146,170,121,245,166,190,161,141,100,195],"times":[411,1100,774,469,490,570,601,739,1319],"next_num":9,"trial_type":"ticket-choose","trial_index":105,"time_elapsed":1811944,"internal_node_id":"0.0-105.0"},{"result":215,"points":0,"place":7,"phase":1,"sequence":21,"prices":[246,145,155,191,176,270,185,136,160,215],"times":[469,544,683,519,522,548,626,770,702,1881],"next_num":10,"trial_type":"ticket-choose","trial_index":106,"time_elapsed":1823056,"internal_node_id":"0.0-106.0"},{"result":111,"points":3,"place":0,"phase":1,"sequence":22,"prices":[156,181,131,256,176,200,171,151,111,206],"times":[564,636,674,579,510,656,589,787,1666],"next_num":9,"trial_type":"ticket-choose","trial_index":107,"time_elapsed":1833312,"internal_node_id":"0.0-107.0"},{"result":65,"points":2,"place":1,"phase":1,"sequence":23,"prices":[220,236,176,65,185,101,110,61,156,191],"times":[562,496,511,1519],"next_num":4,"trial_type":"ticket-choose","trial_index":108,"time_elapsed":1838800,"internal_node_id":"0.0-108.0"},{"result":110,"points":3,"place":0,"phase":1,"sequence":24,"prices":[156,181,171,256,175,200,131,150,110,206],"times":[626,594,566,492,604,579,733,527,1082],"next_num":9,"trial_type":"ticket-choose","trial_index":109,"time_elapsed":1848184,"internal_node_id":"0.0-109.0"},{"result":105,"points":3,"place":0,"phase":1,"sequence":25,"prices":[151,175,166,251,170,195,126,146,105,201],"times":[443,494,482,530,488,516,1065,562,1482],"next_num":9,"trial_type":"ticket-choose","trial_index":110,"time_elapsed":1857807,"internal_node_id":"0.0-110.0"},{"result":106,"points":3,"place":0,"phase":1,"sequence":26,"prices":[180,106,166,245,211,261,215,125,135,190],"times":[507,1271],"next_num":2,"trial_type":"ticket-choose","trial_index":111,"time_elapsed":1861733,"internal_node_id":"0.0-111.0"},{"result":116,"points":3,"place":0,"phase":1,"sequence":27,"prices":[176,150,276,171,261,116,130,201,166,231],"times":[474,569,514,606,553,1426],"next_num":6,"trial_type":"ticket-choose","trial_index":112,"time_elapsed":1868880,"internal_node_id":"0.0-112.0"},{"result":75,"points":3,"place":0,"phase":1,"sequence":28,"prices":[75,171,131,151,161,250,145,190,206,156],"times":[1299],"next_num":1,"trial_type":"ticket-choose","trial_index":113,"time_elapsed":1872230,"internal_node_id":"0.0-113.0"},{"result":95,"points":3,"place":0,"phase":1,"sequence":29,"prices":[95,205,106,151,186,271,145,210,215,181],"times":[1213],"next_num":1,"trial_type":"ticket-choose","trial_index":114,"time_elapsed":1875327,"internal_node_id":"0.0-114.0"},{"result":120,"points":2,"place":1,"phase":1,"sequence":30,"prices":[226,205,125,120,115,135,180,145,150,220],"times":[778,463,426,1137],"next_num":4,"trial_type":"ticket-choose","trial_index":115,"time_elapsed":1880608,"internal_node_id":"0.0-115.0"},{"result":120,"points":2,"place":1,"phase":1,"sequence":31,"prices":[145,170,160,245,165,190,120,141,100,195],"times":[695,478,496,571,519,527,3098],"next_num":7,"trial_type":"ticket-choose","trial_index":116,"time_elapsed":1890324,"internal_node_id":"0.0-116.0"},{"result":106,"points":2,"place":1,"phase":1,"sequence":32,"prices":[185,180,235,210,106,266,76,115,250,205],"times":[509,538,525,518,1465],"next_num":5,"trial_type":"ticket-choose","trial_index":117,"time_elapsed":1896678,"internal_node_id":"0.0-117.0"},{"result":111,"points":3,"place":0,"phase":1,"sequence":33,"prices":[156,181,130,255,175,200,170,150,111,205],"times":[497,519,522,518,487,556,536,555,1392],"next_num":9,"trial_type":"ticket-choose","trial_index":118,"time_elapsed":1905891,"internal_node_id":"0.0-118.0"},{"result":96,"points":3,"place":0,"phase":1,"sequence":34,"prices":[150,171,120,241,165,185,160,135,96,190],"times":[688,496,611,536,528,585,617,560,1388],"next_num":9,"trial_type":"ticket-choose","trial_index":119,"time_elapsed":1915476,"internal_node_id":"0.0-119.0"},{"result":165,"points":1,"place":3,"phase":1,"sequence":35,"prices":[155,225,245,130,176,106,180,211,165,200],"times":[936,605,569,763,533,513,971,725,1023],"next_num":9,"trial_type":"ticket-choose","trial_index":120,"time_elapsed":1925754,"internal_node_id":"0.0-120.0"},{"result":175,"points":1,"place":4,"phase":1,"sequence":36,"prices":[130,195,141,155,181,226,150,216,221,175],"times":[552,509,519,489,512,558,659,521,547,1086],"next_num":10,"trial_type":"ticket-choose","trial_index":121,"time_elapsed":1935430,"internal_node_id":"0.0-121.0"},{"result":111,"points":3,"place":0,"phase":1,"sequence":37,"prices":[111,231,131,146,171,295,141,241,271,150],"times":[1544],"next_num":1,"trial_type":"ticket-choose","trial_index":122,"time_elapsed":1938806,"internal_node_id":"0.0-122.0"},{"result":81,"points":3,"place":0,"phase":1,"sequence":38,"prices":[155,245,155,81,180,130,156,306,166,115],"times":[687,443,471,1108],"next_num":4,"trial_type":"ticket-choose","trial_index":123,"time_elapsed":1943919,"internal_node_id":"0.0-123.0"},{"result":81,"points":3,"place":0,"phase":1,"sequence":39,"prices":[81,205,130,151,191,261,145,210,250,165],"times":[1277],"next_num":1,"trial_type":"ticket-choose","trial_index":124,"time_elapsed":1948871,"internal_node_id":"0.0-124.0"},{"result":30,"points":3,"place":0,"phase":1,"sequence":40,"prices":[155,30,101,55,136,276,70,181,200,261],"times":[772,1523],"next_num":2,"trial_type":"ticket-choose","trial_index":125,"time_elapsed":1953656,"internal_node_id":"0.0-125.0"},{"result":105,"points":3,"place":0,"phase":1,"sequence":41,"prices":[160,180,130,251,176,195,170,146,105,200],"times":[633,530,1149,505,473,508,520,625,1333],"next_num":9,"trial_type":"ticket-choose","trial_index":126,"time_elapsed":1963452,"internal_node_id":"0.0-126.0"},{"result":185,"points":0,"place":5,"phase":1,"sequence":42,"prices":[181,156,145,165,236,231,201,260,150,185],"times":[571,587,629,517,473,539,564,505,757,1231],"next_num":10,"trial_type":"ticket-choose","trial_index":127,"time_elapsed":1973812,"internal_node_id":"0.0-127.0"},{"result":105,"points":3,"place":0,"phase":1,"sequence":43,"prices":[160,180,170,251,176,195,131,146,105,200],"times":[621,489,518,517,556,493,954,597,1151],"next_num":9,"trial_type":"ticket-choose","trial_index":128,"time_elapsed":1983396,"internal_node_id":"0.0-128.0"},{"result":91,"points":3,"place":0,"phase":1,"sequence":44,"prices":[176,150,141,91,290,201,106,266,206,126],"times":[573,506,680,1326],"next_num":4,"trial_type":"ticket-choose","trial_index":129,"time_elapsed":1989026,"internal_node_id":"0.0-129.0"},{"result":105,"points":3,"place":0,"phase":1,"sequence":45,"prices":[161,180,131,251,175,196,171,146,105,201],"times":[534,537,877,490,497,640,610,774,1158],"next_num":9,"trial_type":"ticket-choose","trial_index":130,"time_elapsed":1998779,"internal_node_id":"0.0-130.0"},{"result":100,"points":3,"place":0,"phase":1,"sequence":46,"prices":[156,175,126,246,170,190,165,140,100,196],"times":[580,581,1086,504,620,597,771,570,1251],"next_num":9,"trial_type":"ticket-choose","trial_index":131,"time_elapsed":2009034,"internal_node_id":"0.0-131.0"},{"result":100,"points":3,"place":0,"phase":1,"sequence":47,"prices":[145,171,161,245,165,191,120,140,100,196],"times":[706,545,525,494,476,489,1346,553,1065],"next_num":9,"trial_type":"ticket-choose","trial_index":132,"time_elapsed":2018959,"internal_node_id":"0.0-132.0"},{"result":105,"points":3,"place":0,"phase":1,"sequence":48,"prices":[161,180,171,250,176,195,131,146,105,201],"times":[528,493,621,527,451,503,710,630,1318],"next_num":9,"trial_type":"ticket-choose","trial_index":133,"time_elapsed":2028372,"internal_node_id":"0.0-133.0"},{"result":66,"points":3,"place":0,"phase":1,"sequence":49,"prices":[66,201,96,150,185,230,121,216,225,165],"times":[1419],"next_num":1,"trial_type":"ticket-choose","trial_index":134,"time_elapsed":2032159,"internal_node_id":"0.0-134.0"},{"responses":[{"value":0,"offby":-1,"category":"$30 - $75","category_index":0},{"value":2,"offby":0,"category":"$76 - $120","category_index":1},{"value":4,"offby":0,"category":"$121 - $165","category_index":2},{"value":10,"offby":4,"category":"$166 - $210","category_index":3},{"value":4,"offby":-2,"category":"$211 - $255","category_index":4},{"value":0,"offby":-1,"category":"$256 - $300","category_index":5},{"value":0,"offby":0,"category":"$301 - $345","category_index":6}],"phase":1,"number":1,"trial_type":"bar-choose","trial_index":135,"time_elapsed":2057499,"internal_node_id":"0.0-135.0"},{"special_comment":"No","trial_type":"special_sequence","trial_index":136,"time_elapsed":2065523,"internal_node_id":"0.0-136.0"},{"during":"Nothing","bonus":336,"trial_type":"final","trial_index":137,"time_elapsed":2086142,"internal_node_id":"0.0-137.0"}],"bonus":336}