{"start_time":"2017-02-21 11:14:34","end_time":"2017-02-21 11:34:54","points_phase0":114,"points_phase1":111,"phase_order":1,"age":37,"gender":"m","tries":1,"during":"Nothing","worker_id":"A2RVEG53L48BAE","assignment_id":"3PW9OPU9PRD0BHY4D6L5VISHJIR21P","data":[{"rt":17770,"url":"\/tickets\/utils\/consent.html","trial_type":"html","trial_index":0,"time_elapsed":17903,"internal_node_id":"0.0-0.0"},{"age":37,"gender":"m","trial_type":"age","trial_index":1,"time_elapsed":27526,"internal_node_id":"0.0-1.0"},{"worker_id":"A2RVEG53L48BAE","trial_type":"workerid","trial_index":2,"time_elapsed":35558,"internal_node_id":"0.0-2.0"},{"tries":1,"trial_type":"instructions_check","trial_index":3,"time_elapsed":79141,"internal_node_id":"0.0-3.0"},{"rt":11500,"url":"\/tickets\/utils\/start.html","trial_type":"html","trial_index":4,"time_elapsed":91774,"internal_node_id":"0.0-4.0"},{"trial_type":"number-animation","trial_index":5,"time_elapsed":110468,"internal_node_id":"0.0-5.0"},{"phase":0,"sequence":0,"avg":182,"response":155,"trial_type":"training_avg","trial_index":6,"time_elapsed":127829,"internal_node_id":"0.0-6.0"},{"trial_type":"number-animation","trial_index":7,"time_elapsed":136415,"internal_node_id":"0.0-7.0"},{"phase":0,"sequence":1,"avg":188,"response":208,"trial_type":"training_avg","trial_index":8,"time_elapsed":144979,"internal_node_id":"0.0-8.0"},{"trial_type":"number-animation","trial_index":9,"time_elapsed":154877,"internal_node_id":"0.0-9.0"},{"phase":0,"sequence":2,"avg":176,"response":172,"trial_type":"training_avg","trial_index":10,"time_elapsed":162345,"internal_node_id":"0.0-10.0"},{"trial_type":"number-animation","trial_index":11,"time_elapsed":175502,"internal_node_id":"0.0-11.0"},{"phase":0,"sequence":3,"avg":180,"response":185,"trial_type":"training_avg","trial_index":12,"time_elapsed":182369,"internal_node_id":"0.0-12.0"},{"trial_type":"number-animation","trial_index":13,"time_elapsed":191190,"internal_node_id":"0.0-13.0"},{"phase":0,"sequence":4,"avg":174,"response":189,"trial_type":"training_avg","trial_index":14,"time_elapsed":197984,"internal_node_id":"0.0-14.0"},{"responses":[{"value":0,"offby":-1,"category":"$90 - $120","category_index":0},{"value":2,"offby":-1,"category":"$121 - $145","category_index":1},{"value":8,"offby":5,"category":"$146 - $170","category_index":2},{"value":9,"offby":3,"category":"$171 - $195","category_index":3},{"value":1,"offby":-3,"category":"$196 - $220","category_index":4},{"value":0,"offby":-2,"category":"$221 - $245","category_index":5},{"value":0,"offby":-1,"category":"$246 - $270","category_index":6}],"phase":0,"number":0,"trial_type":"bar-choose","trial_index":15,"time_elapsed":242526,"internal_node_id":"0.0-15.0"},{"rt":11705,"url":"\/tickets\/\/utils\/testing.html","trial_type":"html","trial_index":16,"time_elapsed":255359,"internal_node_id":"0.0-16.0"},{"phase":0,"order":[12,30,15,35,47,2,10,24,6,31,37,19,3,5,39,8,17,21,36,1,18,29,7,4,42,0,46,11,14,13,16,43,44,48,40,22,25,38,49,45,9,27,34,32,28,26,23,33,41,20],"trial_type":"store_order","trial_index":17,"time_elapsed":256364,"internal_node_id":"0.0-17.0"},{"result":165,"points":2,"place":1,"phase":0,"sequence":-1,"prices":[184,180,224,165,181,199,185,193,218,126],"times":[2476,1227,2258,3701],"next_num":4,"trial_type":"ticket-choose","trial_index":18,"time_elapsed":269561,"internal_node_id":"0.0-18.0"},{"rt":37698,"url":"\/tickets\/utils\/testing_after.html","trial_type":"html","trial_index":19,"time_elapsed":308391,"internal_node_id":"0.0-19.0"},{"result":154,"points":2,"place":1,"phase":0,"sequence":0,"prices":[169,192,176,244,178,194,154,159,237,125],"times":[3076,1655,1487,920,1136,915,1040],"next_num":7,"trial_type":"ticket-choose","trial_index":20,"time_elapsed":323302,"internal_node_id":"0.0-20.0"},{"result":146,"points":2,"place":1,"phase":0,"sequence":1,"prices":[168,191,146,252,183,193,172,153,126,238],"times":[1399,617,966],"next_num":3,"trial_type":"ticket-choose","trial_index":21,"time_elapsed":329349,"internal_node_id":"0.0-21.0"},{"result":135,"points":3,"place":0,"phase":0,"sequence":2,"prices":[221,193,135,188,217,179,196,190,175,159],"times":[1023,626,1133],"next_num":3,"trial_type":"ticket-choose","trial_index":22,"time_elapsed":336374,"internal_node_id":"0.0-22.0"},{"result":136,"points":3,"place":0,"phase":0,"sequence":3,"prices":[240,188,273,207,250,136,217,170,171,236],"times":[930,659,1163,891,837,878],"next_num":6,"trial_type":"ticket-choose","trial_index":23,"time_elapsed":345102,"internal_node_id":"0.0-23.0"},{"result":136,"points":2,"place":1,"phase":0,"sequence":4,"prices":[170,192,174,242,181,196,136,153,236,128],"times":[1079,651,965,667,682,651,869],"next_num":7,"trial_type":"ticket-choose","trial_index":24,"time_elapsed":354189,"internal_node_id":"0.0-24.0"},{"result":146,"points":2,"place":1,"phase":0,"sequence":5,"prices":[171,195,172,242,179,196,146,150,128,235],"times":[974,635,1068,590,683,637,923],"next_num":7,"trial_type":"ticket-choose","trial_index":25,"time_elapsed":363019,"internal_node_id":"0.0-25.0"},{"result":124,"points":3,"place":0,"phase":0,"sequence":6,"prices":[124,220,136,165,185,234,143,225,228,179],"times":[1004],"next_num":1,"trial_type":"ticket-choose","trial_index":26,"time_elapsed":366594,"internal_node_id":"0.0-26.0"},{"result":154,"points":2,"place":1,"phase":0,"sequence":7,"prices":[170,190,176,251,183,192,154,157,236,131],"times":[971,541,564,621,571,571,1283],"next_num":7,"trial_type":"ticket-choose","trial_index":27,"time_elapsed":375658,"internal_node_id":"0.0-27.0"},{"result":124,"points":3,"place":0,"phase":0,"sequence":8,"prices":[219,183,227,124,176,161,140,129,171,201],"times":[844,501,934,854],"next_num":4,"trial_type":"ticket-choose","trial_index":28,"time_elapsed":381443,"internal_node_id":"0.0-28.0"},{"result":136,"points":2,"place":1,"phase":0,"sequence":9,"prices":[172,194,174,243,182,193,136,150,237,126],"times":[3115,577,590,645,612,973,830],"next_num":7,"trial_type":"ticket-choose","trial_index":29,"time_elapsed":392122,"internal_node_id":"0.0-29.0"},{"result":146,"points":2,"place":1,"phase":0,"sequence":10,"prices":[171,191,172,268,179,194,146,150,127,239],"times":[676,1722,652,540,493,555,885],"next_num":7,"trial_type":"ticket-choose","trial_index":30,"time_elapsed":400945,"internal_node_id":"0.0-30.0"},{"result":108,"points":3,"place":0,"phase":0,"sequence":11,"prices":[155,129,164,189,210,108,187,241,174,275],"times":[1669,557,1467,539,635,803],"next_num":6,"trial_type":"ticket-choose","trial_index":31,"time_elapsed":409930,"internal_node_id":"0.0-31.0"},{"result":136,"points":2,"place":1,"phase":0,"sequence":12,"prices":[172,190,136,270,179,192,174,152,237,129],"times":[725,636,1188],"next_num":3,"trial_type":"ticket-choose","trial_index":32,"time_elapsed":414842,"internal_node_id":"0.0-32.0"},{"result":146,"points":2,"place":1,"phase":0,"sequence":13,"prices":[169,193,146,237,180,196,172,150,129,236],"times":[879,556,1373],"next_num":3,"trial_type":"ticket-choose","trial_index":33,"time_elapsed":419945,"internal_node_id":"0.0-33.0"},{"result":136,"points":2,"place":1,"phase":0,"sequence":14,"prices":[169,192,174,246,180,195,136,152,238,126],"times":[674,563,572,555,540,605,888],"next_num":7,"trial_type":"ticket-choose","trial_index":34,"time_elapsed":427458,"internal_node_id":"0.0-34.0"},{"result":189,"points":1,"place":4,"phase":0,"sequence":15,"prices":[157,213,159,187,194,242,161,222,225,189],"times":[489,589,882,627,716,679,771,788,1068,967],"next_num":10,"trial_type":"ticket-choose","trial_index":35,"time_elapsed":439049,"internal_node_id":"0.0-35.0"},{"result":192,"points":1,"place":4,"phase":0,"sequence":16,"prices":[157,205,161,175,197,254,165,210,214,192],"times":[1254,731,903,726,696,778,1196,621,767,2014],"next_num":11,"trial_type":"ticket-choose","trial_index":36,"time_elapsed":453568,"internal_node_id":"0.0-36.0"},{"result":154,"points":2,"place":1,"phase":0,"sequence":17,"prices":[170,193,176,245,178,194,154,159,236,126],"times":[1098,692,758,672,764,710,870],"next_num":7,"trial_type":"ticket-choose","trial_index":37,"time_elapsed":462264,"internal_node_id":"0.0-37.0"},{"result":137,"points":3,"place":0,"phase":0,"sequence":18,"prices":[137,187,152,156,166,231,155,194,202,160],"times":[2085],"next_num":1,"trial_type":"ticket-choose","trial_index":38,"time_elapsed":466243,"internal_node_id":"0.0-38.0"},{"result":146,"points":2,"place":1,"phase":0,"sequence":19,"prices":[172,191,176,272,179,194,146,152,126,235],"times":[847,701,730,635,758,581,902],"next_num":7,"trial_type":"ticket-choose","trial_index":39,"time_elapsed":474495,"internal_node_id":"0.0-39.0"},{"result":119,"points":3,"place":0,"phase":0,"sequence":20,"prices":[198,119,169,141,195,233,136,208,177,217],"times":[832,1813],"next_num":2,"trial_type":"ticket-choose","trial_index":40,"time_elapsed":479098,"internal_node_id":"0.0-40.0"},{"result":130,"points":2,"place":1,"phase":0,"sequence":21,"prices":[181,130,116,142,157,193,165,218,173,207],"times":[654,781],"next_num":2,"trial_type":"ticket-choose","trial_index":41,"time_elapsed":483032,"internal_node_id":"0.0-41.0"},{"result":145,"points":2,"place":1,"phase":0,"sequence":22,"prices":[216,206,158,145,224,185,124,149,175,162],"times":[582,698,4164,805],"next_num":4,"trial_type":"ticket-choose","trial_index":42,"time_elapsed":491665,"internal_node_id":"0.0-42.0"},{"result":114,"points":3,"place":0,"phase":0,"sequence":23,"prices":[182,249,159,114,184,205,175,189,172,178],"times":[727,588,805,877],"next_num":4,"trial_type":"ticket-choose","trial_index":43,"time_elapsed":497183,"internal_node_id":"0.0-43.0"},{"result":127,"points":3,"place":0,"phase":0,"sequence":24,"prices":[169,194,154,271,178,201,176,158,236,127],"times":[747,658,1525,589,565,636,653,927,1339,854],"next_num":10,"trial_type":"ticket-choose","trial_index":44,"time_elapsed":509582,"internal_node_id":"0.0-44.0"},{"result":131,"points":2,"place":1,"phase":0,"sequence":25,"prices":[221,234,131,136,132,149,154,90,176,173],"times":[1099,578,837],"next_num":3,"trial_type":"ticket-choose","trial_index":45,"time_elapsed":514382,"internal_node_id":"0.0-45.0"},{"result":116,"points":3,"place":0,"phase":0,"sequence":26,"prices":[186,146,191,179,152,116,140,201,172,187],"times":[619,2189,557,550,707,886],"next_num":6,"trial_type":"ticket-choose","trial_index":46,"time_elapsed":523005,"internal_node_id":"0.0-46.0"},{"result":154,"points":2,"place":1,"phase":0,"sequence":27,"prices":[168,192,176,242,183,197,154,156,237,132],"times":[2869,571,781,4380,708,875,916],"next_num":7,"trial_type":"ticket-choose","trial_index":47,"time_elapsed":537484,"internal_node_id":"0.0-47.0"},{"result":158,"points":1,"place":2,"phase":0,"sequence":28,"prices":[169,193,154,255,178,194,176,158,239,126],"times":[912,667,2105,613,582,653,606,991],"next_num":8,"trial_type":"ticket-choose","trial_index":48,"time_elapsed":548062,"internal_node_id":"0.0-48.0"},{"result":138,"points":1,"place":2,"phase":0,"sequence":29,"prices":[181,138,118,170,190,101,146,169,175,233],"times":[684,877],"next_num":2,"trial_type":"ticket-choose","trial_index":49,"time_elapsed":551614,"internal_node_id":"0.0-49.0"},{"result":121,"points":3,"place":0,"phase":0,"sequence":30,"prices":[121,191,128,141,166,217,129,196,202,157],"times":[787],"next_num":1,"trial_type":"ticket-choose","trial_index":50,"time_elapsed":554135,"internal_node_id":"0.0-50.0"},{"result":154,"points":2,"place":1,"phase":0,"sequence":31,"prices":[244,203,196,189,154,206,197,149,171,159],"times":[987,587,766,646,3769],"next_num":5,"trial_type":"ticket-choose","trial_index":51,"time_elapsed":563748,"internal_node_id":"0.0-51.0"},{"result":136,"points":2,"place":1,"phase":0,"sequence":32,"prices":[171,192,136,265,180,194,174,152,239,127],"times":[707,605,1092],"next_num":3,"trial_type":"ticket-choose","trial_index":52,"time_elapsed":568432,"internal_node_id":"0.0-52.0"},{"result":105,"points":3,"place":0,"phase":0,"sequence":33,"prices":[263,165,224,214,105,230,215,185,177,193],"times":[590,1123,565,526,829],"next_num":5,"trial_type":"ticket-choose","trial_index":53,"time_elapsed":574717,"internal_node_id":"0.0-53.0"},{"result":135,"points":3,"place":0,"phase":0,"sequence":34,"prices":[135,202,150,169,183,225,160,211,220,172],"times":[1052],"next_num":1,"trial_type":"ticket-choose","trial_index":54,"time_elapsed":578099,"internal_node_id":"0.0-54.0"},{"result":128,"points":3,"place":0,"phase":0,"sequence":35,"prices":[196,221,149,164,216,167,175,128,176,181],"times":[765,625,830,854,644,1062,597,957],"next_num":8,"trial_type":"ticket-choose","trial_index":55,"time_elapsed":587715,"internal_node_id":"0.0-55.0"},{"result":150,"points":3,"place":0,"phase":0,"sequence":36,"prices":[197,153,181,215,150,155,164,247,177,162],"times":[635,1428,636,618,922],"next_num":5,"trial_type":"ticket-choose","trial_index":56,"time_elapsed":594907,"internal_node_id":"0.0-56.0"},{"result":146,"points":2,"place":1,"phase":0,"sequence":37,"prices":[170,193,146,268,178,195,172,149,126,241],"times":[1050,636,3623],"next_num":3,"trial_type":"ticket-choose","trial_index":57,"time_elapsed":602660,"internal_node_id":"0.0-57.0"},{"result":136,"points":2,"place":1,"phase":0,"sequence":38,"prices":[173,194,136,239,182,200,174,150,236,127],"times":[744,653,1017],"next_num":3,"trial_type":"ticket-choose","trial_index":58,"time_elapsed":607370,"internal_node_id":"0.0-58.0"},{"result":146,"points":2,"place":1,"phase":0,"sequence":39,"prices":[168,191,172,240,183,193,146,151,125,238],"times":[1455,892,573,607,675,676,796],"next_num":7,"trial_type":"ticket-choose","trial_index":59,"time_elapsed":616160,"internal_node_id":"0.0-59.0"},{"result":146,"points":2,"place":1,"phase":0,"sequence":40,"prices":[173,191,146,242,178,194,172,152,126,235],"times":[572,683,2278],"next_num":3,"trial_type":"ticket-choose","trial_index":60,"time_elapsed":622046,"internal_node_id":"0.0-60.0"},{"result":188,"points":1,"place":4,"phase":0,"sequence":41,"prices":[142,207,171,182,190,269,180,218,256,188],"times":[2271,818,653,547,560,618,654,724,852,999],"next_num":11,"trial_type":"ticket-choose","trial_index":61,"time_elapsed":634835,"internal_node_id":"0.0-61.0"},{"result":136,"points":2,"place":1,"phase":0,"sequence":42,"prices":[173,191,174,270,180,193,136,153,239,129],"times":[1259,597,582,637,642,667,941],"next_num":7,"trial_type":"ticket-choose","trial_index":62,"time_elapsed":643378,"internal_node_id":"0.0-62.0"},{"result":117,"points":3,"place":0,"phase":0,"sequence":43,"prices":[117,161,120,147,153,259,144,191,195,149],"times":[954],"next_num":1,"trial_type":"ticket-choose","trial_index":63,"time_elapsed":646385,"internal_node_id":"0.0-63.0"},{"result":136,"points":2,"place":1,"phase":0,"sequence":44,"prices":[171,192,136,243,182,195,174,154,236,128],"times":[893,546,839],"next_num":3,"trial_type":"ticket-choose","trial_index":64,"time_elapsed":650889,"internal_node_id":"0.0-64.0"},{"result":154,"points":2,"place":1,"phase":0,"sequence":45,"prices":[168,192,154,237,182,196,176,156,235,133],"times":[656,565,933],"next_num":3,"trial_type":"ticket-choose","trial_index":65,"time_elapsed":655307,"internal_node_id":"0.0-65.0"},{"result":143,"points":3,"place":0,"phase":0,"sequence":46,"prices":[143,206,153,194,201,267,168,208,210,196],"times":[799],"next_num":1,"trial_type":"ticket-choose","trial_index":66,"time_elapsed":658040,"internal_node_id":"0.0-66.0"},{"result":132,"points":3,"place":0,"phase":0,"sequence":47,"prices":[132,222,144,153,190,248,151,224,228,179],"times":[1075],"next_num":1,"trial_type":"ticket-choose","trial_index":67,"time_elapsed":660884,"internal_node_id":"0.0-67.0"},{"result":146,"points":3,"place":0,"phase":0,"sequence":48,"prices":[156,218,212,216,191,210,275,146,174,152],"times":[1649,556,557,549,604,629,534,1694],"next_num":8,"trial_type":"ticket-choose","trial_index":68,"time_elapsed":671026,"internal_node_id":"0.0-68.0"},{"result":154,"points":2,"place":1,"phase":0,"sequence":49,"prices":[169,191,154,268,183,197,176,155,236,133],"times":[1244,595,2158],"next_num":3,"trial_type":"ticket-choose","trial_index":69,"time_elapsed":677775,"internal_node_id":"0.0-69.0"},{"responses":[{"value":0,"offby":-1,"category":"$90 - $120","category_index":0},{"value":10,"offby":7,"category":"$121 - $145","category_index":1},{"value":10,"offby":7,"category":"$146 - $170","category_index":2},{"value":0,"offby":-6,"category":"$171 - $195","category_index":3},{"value":0,"offby":-4,"category":"$196 - $220","category_index":4},{"value":0,"offby":-2,"category":"$221 - $245","category_index":5},{"value":0,"offby":-1,"category":"$246 - $270","category_index":6}],"phase":0,"number":1,"trial_type":"bar-choose","trial_index":70,"time_elapsed":711419,"internal_node_id":"0.0-70.0"},{"rt":9864,"url":"\/tickets\/utils\/start2.html","trial_type":"html","trial_index":71,"time_elapsed":722414,"internal_node_id":"0.0-71.0"},{"trial_type":"number-animation","trial_index":72,"time_elapsed":732927,"internal_node_id":"0.0-72.0"},{"phase":1,"sequence":0,"avg":181,"response":178,"trial_type":"training_avg","trial_index":73,"time_elapsed":739086,"internal_node_id":"0.0-73.0"},{"trial_type":"number-animation","trial_index":74,"time_elapsed":747189,"internal_node_id":"0.0-74.0"},{"phase":1,"sequence":1,"avg":188,"response":186,"trial_type":"training_avg","trial_index":75,"time_elapsed":754621,"internal_node_id":"0.0-75.0"},{"trial_type":"number-animation","trial_index":76,"time_elapsed":762390,"internal_node_id":"0.0-76.0"},{"phase":1,"sequence":2,"avg":188,"response":190,"trial_type":"training_avg","trial_index":77,"time_elapsed":770357,"internal_node_id":"0.0-77.0"},{"trial_type":"number-animation","trial_index":78,"time_elapsed":777813,"internal_node_id":"0.0-78.0"},{"phase":1,"sequence":3,"avg":177,"response":160,"trial_type":"training_avg","trial_index":79,"time_elapsed":780764,"internal_node_id":"0.0-79.0"},{"trial_type":"number-animation","trial_index":80,"time_elapsed":787956,"internal_node_id":"0.0-80.0"},{"phase":1,"sequence":4,"avg":182,"response":176,"trial_type":"training_avg","trial_index":81,"time_elapsed":793844,"internal_node_id":"0.0-81.0"},{"responses":[{"value":0,"offby":0,"category":"$106 - $134","category_index":0},{"value":0,"offby":-1,"category":"$135 - $150","category_index":1},{"value":2,"offby":-1,"category":"$151 - $165","category_index":2},{"value":6,"offby":0,"category":"$166 - $180","category_index":3},{"value":12,"offby":6,"category":"$181 - $195","category_index":4},{"value":0,"offby":-3,"category":"$196 - $210","category_index":5},{"value":0,"offby":-1,"category":"$211 - $225","category_index":6}],"phase":1,"number":0,"trial_type":"bar-choose","trial_index":82,"time_elapsed":820063,"internal_node_id":"0.0-82.0"},{"rt":1923,"url":"\/tickets\/utils\/testing2.html","trial_type":"html","trial_index":83,"time_elapsed":823122,"internal_node_id":"0.0-83.0"},{"phase":1,"order":[14,2,43,46,21,5,26,13,47,22,7,35,19,1,20,28,27,15,33,4,40,34,37,48,11,41,49,12,10,44,29,45,16,42,30,36,39,3,18,6,0,24,23,31,17,8,32,25,38,9],"trial_type":"store_order","trial_index":84,"time_elapsed":824135,"internal_node_id":"0.0-84.0"},{"result":167,"points":2,"place":1,"phase":1,"sequence":0,"prices":[174,186,178,217,181,188,167,168,208,156],"times":[2041,681,540,578,603,563,1063],"next_num":7,"trial_type":"ticket-choose","trial_index":85,"time_elapsed":833553,"internal_node_id":"0.0-85.0"},{"result":157,"points":3,"place":0,"phase":1,"sequence":1,"prices":[157,191,165,175,182,203,170,195,200,176],"times":[1140],"next_num":1,"trial_type":"ticket-choose","trial_index":86,"time_elapsed":836810,"internal_node_id":"0.0-86.0"},{"result":167,"points":2,"place":1,"phase":1,"sequence":2,"prices":[175,187,178,209,179,187,167,169,208,153],"times":[1007,510,475,486,460,580,967],"next_num":7,"trial_type":"ticket-choose","trial_index":87,"time_elapsed":844353,"internal_node_id":"0.0-87.0"},{"result":154,"points":2,"place":1,"phase":1,"sequence":3,"prices":[168,154,172,185,195,144,184,211,177,227],"times":[984,876],"next_num":2,"trial_type":"ticket-choose","trial_index":88,"time_elapsed":848153,"internal_node_id":"0.0-88.0"},{"result":152,"points":3,"place":0,"phase":1,"sequence":4,"prices":[200,181,203,152,175,171,160,154,176,191],"times":[717,533,508,876],"next_num":4,"trial_type":"ticket-choose","trial_index":89,"time_elapsed":853245,"internal_node_id":"0.0-89.0"},{"result":166,"points":1,"place":2,"phase":1,"sequence":5,"prices":[174,186,163,212,181,187,176,166,153,209],"times":[520,532,701,606,620,533,606,1188],"next_num":8,"trial_type":"ticket-choose","trial_index":90,"time_elapsed":861834,"internal_node_id":"0.0-90.0"},{"result":167,"points":2,"place":1,"phase":1,"sequence":6,"prices":[175,186,167,225,179,187,178,169,209,153],"times":[469,515,873],"next_num":3,"trial_type":"ticket-choose","trial_index":91,"time_elapsed":865881,"internal_node_id":"0.0-91.0"},{"result":161,"points":3,"place":0,"phase":1,"sequence":7,"prices":[161,193,175,181,185,224,180,199,218,184],"times":[780],"next_num":1,"trial_type":"ticket-choose","trial_index":92,"time_elapsed":868348,"internal_node_id":"0.0-92.0"},{"result":163,"points":2,"place":1,"phase":1,"sequence":8,"prices":[174,186,176,217,181,187,163,166,153,209],"times":[611,581,509,573,556,509,805],"next_num":7,"trial_type":"ticket-choose","trial_index":93,"time_elapsed":875469,"internal_node_id":"0.0-93.0"},{"result":148,"points":3,"place":0,"phase":1,"sequence":9,"prices":[148,171,150,163,167,220,162,186,187,165],"times":[745],"next_num":1,"trial_type":"ticket-choose","trial_index":94,"time_elapsed":877865,"internal_node_id":"0.0-94.0"},{"result":152,"points":3,"place":0,"phase":1,"sequence":10,"prices":[198,193,169,163,202,182,152,164,177,171],"times":[662,517,515,726,758,563,806],"next_num":7,"trial_type":"ticket-choose","trial_index":95,"time_elapsed":885472,"internal_node_id":"0.0-95.0"},{"result":166,"points":1,"place":2,"phase":1,"sequence":11,"prices":[176,185,158,217,180,186,177,166,209,154],"times":[874,524,3589,597,484,510,493,1235],"next_num":8,"trial_type":"ticket-choose","trial_index":96,"time_elapsed":897654,"internal_node_id":"0.0-96.0"},{"result":163,"points":2,"place":1,"phase":1,"sequence":12,"prices":[175,186,163,211,179,187,176,165,153,210],"times":[704,508,1582],"next_num":3,"trial_type":"ticket-choose","trial_index":97,"time_elapsed":902607,"internal_node_id":"0.0-97.0"},{"result":163,"points":2,"place":1,"phase":1,"sequence":13,"prices":[175,187,176,209,180,188,163,165,154,208],"times":[518,504,678,627,606,612,927],"next_num":7,"trial_type":"ticket-choose","trial_index":98,"time_elapsed":910543,"internal_node_id":"0.0-98.0"},{"result":167,"points":2,"place":1,"phase":1,"sequence":14,"prices":[189,167,180,197,165,168,172,213,178,171],"times":[722,908],"next_num":2,"trial_type":"ticket-choose","trial_index":99,"time_elapsed":914175,"internal_node_id":"0.0-99.0"},{"result":156,"points":3,"place":0,"phase":1,"sequence":15,"prices":[174,186,167,211,181,188,178,168,208,156],"times":[561,548,629,525,547,484,629,599,834,813],"next_num":10,"trial_type":"ticket-choose","trial_index":100,"time_elapsed":923999,"internal_node_id":"0.0-100.0"},{"result":167,"points":1,"place":2,"phase":1,"sequence":16,"prices":[175,186,158,209,181,188,177,167,208,154],"times":[592,372,325,1309,623,507,637,1006],"next_num":8,"trial_type":"ticket-choose","trial_index":101,"time_elapsed":932727,"internal_node_id":"0.0-101.0"},{"result":158,"points":2,"place":1,"phase":1,"sequence":17,"prices":[175,186,177,209,181,188,158,167,208,154],"times":[666,612,566,669,651,1005,950],"next_num":7,"trial_type":"ticket-choose","trial_index":102,"time_elapsed":940862,"internal_node_id":"0.0-102.0"},{"result":165,"points":2,"place":1,"phase":1,"sequence":18,"prices":[188,200,165,172,198,174,177,154,177,180],"times":[944,669,1953],"next_num":3,"trial_type":"ticket-choose","trial_index":103,"time_elapsed":946718,"internal_node_id":"0.0-103.0"},{"result":163,"points":2,"place":1,"phase":1,"sequence":19,"prices":[175,187,163,209,180,188,176,165,154,208],"times":[536,509,838],"next_num":3,"trial_type":"ticket-choose","trial_index":104,"time_elapsed":950765,"internal_node_id":"0.0-104.0"},{"result":158,"points":2,"place":1,"phase":1,"sequence":20,"prices":[176,187,158,210,181,187,177,165,208,153],"times":[1067,532,974],"next_num":3,"trial_type":"ticket-choose","trial_index":105,"time_elapsed":955479,"internal_node_id":"0.0-105.0"},{"result":150,"points":3,"place":0,"phase":1,"sequence":21,"prices":[150,185,154,161,173,199,155,188,191,168],"times":[846],"next_num":1,"trial_type":"ticket-choose","trial_index":106,"time_elapsed":957991,"internal_node_id":"0.0-106.0"},{"result":163,"points":2,"place":1,"phase":1,"sequence":22,"prices":[175,186,176,224,179,187,163,165,153,210],"times":[591,467,525,604,548,496,935],"next_num":7,"trial_type":"ticket-choose","trial_index":107,"time_elapsed":965861,"internal_node_id":"0.0-107.0"},{"result":163,"points":2,"place":1,"phase":1,"sequence":23,"prices":[176,186,176,210,179,187,163,166,153,208],"times":[909,507,525,597,564,550,895],"next_num":7,"trial_type":"ticket-choose","trial_index":108,"time_elapsed":973949,"internal_node_id":"0.0-108.0"},{"result":143,"points":3,"place":0,"phase":1,"sequence":24,"prices":[222,173,202,197,143,205,198,183,178,186],"times":[632,421,621,549,806],"next_num":5,"trial_type":"ticket-choose","trial_index":109,"time_elapsed":979514,"internal_node_id":"0.0-109.0"},{"result":166,"points":1,"place":2,"phase":1,"sequence":25,"prices":[176,186,163,214,179,187,176,166,153,208],"times":[656,459,573,604,605,511,614,887],"next_num":8,"trial_type":"ticket-choose","trial_index":110,"time_elapsed":987599,"internal_node_id":"0.0-110.0"},{"result":158,"points":3,"place":0,"phase":1,"sequence":26,"prices":[210,184,226,193,215,158,199,175,176,208],"times":[564,572,965,589,573,966],"next_num":6,"trial_type":"ticket-choose","trial_index":111,"time_elapsed":994636,"internal_node_id":"0.0-111.0"},{"result":167,"points":2,"place":1,"phase":1,"sequence":27,"prices":[175,187,167,212,179,187,178,169,208,153],"times":[551,532,1741],"next_num":3,"trial_type":"ticket-choose","trial_index":112,"time_elapsed":999739,"internal_node_id":"0.0-112.0"},{"result":167,"points":2,"place":1,"phase":1,"sequence":28,"prices":[175,186,178,212,179,187,167,169,209,153],"times":[534,564,525,573,548,535,901],"next_num":7,"trial_type":"ticket-choose","trial_index":113,"time_elapsed":1007446,"internal_node_id":"0.0-113.0"},{"result":167,"points":2,"place":1,"phase":1,"sequence":29,"prices":[175,185,178,215,181,186,167,168,208,156],"times":[1889,620,574,541,590,557,886],"next_num":7,"trial_type":"ticket-choose","trial_index":114,"time_elapsed":1016789,"internal_node_id":"0.0-114.0"},{"result":158,"points":2,"place":1,"phase":1,"sequence":30,"prices":[175,186,158,211,180,187,177,166,209,153],"times":[569,642,886],"next_num":3,"trial_type":"ticket-choose","trial_index":115,"time_elapsed":1021165,"internal_node_id":"0.0-115.0"},{"result":157,"points":3,"place":0,"phase":1,"sequence":31,"prices":[201,187,157,184,198,179,188,185,178,170],"times":[676,566,997],"next_num":3,"trial_type":"ticket-choose","trial_index":116,"time_elapsed":1025647,"internal_node_id":"0.0-116.0"},{"result":159,"points":1,"place":2,"phase":1,"sequence":32,"prices":[180,159,149,175,185,141,163,174,178,207],"times":[571,1062],"next_num":2,"trial_type":"ticket-choose","trial_index":117,"time_elapsed":1029179,"internal_node_id":"0.0-117.0"},{"result":147,"points":3,"place":0,"phase":1,"sequence":33,"prices":[181,215,169,147,182,193,177,184,176,179],"times":[1020,556,701,1543],"next_num":4,"trial_type":"ticket-choose","trial_index":118,"time_elapsed":1035499,"internal_node_id":"0.0-118.0"},{"result":150,"points":3,"place":0,"phase":1,"sequence":34,"prices":[189,150,175,160,188,207,158,194,178,199],"times":[970,933],"next_num":2,"trial_type":"ticket-choose","trial_index":119,"time_elapsed":1039362,"internal_node_id":"0.0-119.0"},{"result":158,"points":2,"place":1,"phase":1,"sequence":35,"prices":[176,187,177,225,181,187,158,165,208,153],"times":[591,577,588,607,636,557,924],"next_num":7,"trial_type":"ticket-choose","trial_index":120,"time_elapsed":1046963,"internal_node_id":"0.0-120.0"},{"result":156,"points":3,"place":0,"phase":1,"sequence":36,"prices":[156,201,162,166,185,214,165,202,204,179],"times":[875],"next_num":1,"trial_type":"ticket-choose","trial_index":121,"time_elapsed":1049506,"internal_node_id":"0.0-121.0"},{"result":163,"points":3,"place":0,"phase":1,"sequence":37,"prices":[168,199,196,198,185,195,227,163,177,166],"times":[782,636,550,540,590,532,701,942],"next_num":8,"trial_type":"ticket-choose","trial_index":122,"time_elapsed":1057978,"internal_node_id":"0.0-122.0"},{"result":163,"points":1,"place":2,"phase":1,"sequence":38,"prices":[183,163,185,180,166,148,160,186,176,184],"times":[692,997],"next_num":2,"trial_type":"ticket-choose","trial_index":123,"time_elapsed":1061612,"internal_node_id":"0.0-123.0"},{"result":164,"points":3,"place":0,"phase":1,"sequence":39,"prices":[212,192,188,184,167,193,189,164,176,170],"times":[1176,525,556,541,1012,653,581,828],"next_num":8,"trial_type":"ticket-choose","trial_index":124,"time_elapsed":1070738,"internal_node_id":"0.0-124.0"},{"result":168,"points":1,"place":2,"phase":1,"sequence":40,"prices":[175,185,167,224,181,186,178,168,208,156],"times":[658,566,1048,507,566,501,566,1613],"next_num":8,"trial_type":"ticket-choose","trial_index":125,"time_elapsed":1081289,"internal_node_id":"0.0-125.0"},{"result":168,"points":3,"place":0,"phase":1,"sequence":41,"prices":[168,192,171,178,188,217,172,195,197,186],"times":[2352],"next_num":1,"trial_type":"ticket-choose","trial_index":126,"time_elapsed":1085535,"internal_node_id":"0.0-126.0"},{"result":155,"points":2,"place":1,"phase":1,"sequence":42,"prices":[181,155,148,161,168,187,172,199,176,194],"times":[929,869],"next_num":2,"trial_type":"ticket-choose","trial_index":127,"time_elapsed":1089292,"internal_node_id":"0.0-127.0"},{"result":161,"points":3,"place":0,"phase":1,"sequence":43,"prices":[161,193,167,187,190,224,174,194,195,188],"times":[1469],"next_num":1,"trial_type":"ticket-choose","trial_index":128,"time_elapsed":1092761,"internal_node_id":"0.0-128.0"},{"result":185,"points":1,"place":4,"phase":1,"sequence":44,"prices":[169,196,170,184,187,211,171,201,202,185],"times":[1237,653,616,570,557,662,1368,589,692,966],"next_num":11,"trial_type":"ticket-choose","trial_index":129,"time_elapsed":1104497,"internal_node_id":"0.0-129.0"},{"result":152,"points":3,"place":0,"phase":1,"sequence":45,"prices":[152,200,158,173,182,207,161,202,204,180],"times":[827],"next_num":1,"trial_type":"ticket-choose","trial_index":130,"time_elapsed":1107210,"internal_node_id":"0.0-130.0"},{"result":158,"points":2,"place":1,"phase":1,"sequence":46,"prices":[176,185,177,218,180,186,158,166,209,154],"times":[670,542,556,606,620,533,829],"next_num":7,"trial_type":"ticket-choose","trial_index":131,"time_elapsed":1114607,"internal_node_id":"0.0-131.0"},{"result":159,"points":3,"place":0,"phase":1,"sequence":47,"prices":[159,183,166,168,173,205,167,187,191,170],"times":[1151],"next_num":1,"trial_type":"ticket-choose","trial_index":132,"time_elapsed":1117567,"internal_node_id":"0.0-132.0"},{"result":155,"points":2,"place":1,"phase":1,"sequence":48,"prices":[201,207,155,158,156,165,167,135,178,177],"times":[1186,514,872],"next_num":3,"trial_type":"ticket-choose","trial_index":133,"time_elapsed":1122440,"internal_node_id":"0.0-133.0"},{"result":158,"points":2,"place":1,"phase":1,"sequence":49,"prices":[175,186,177,221,180,187,158,166,209,153],"times":[902,532,526,613,692,523,941],"next_num":7,"trial_type":"ticket-choose","trial_index":134,"time_elapsed":1130307,"internal_node_id":"0.0-134.0"},{"responses":[{"value":0,"offby":0,"category":"$106 - $134","category_index":0},{"value":0,"offby":-1,"category":"$135 - $150","category_index":1},{"value":5,"offby":2,"category":"$151 - $165","category_index":2},{"value":6,"offby":0,"category":"$166 - $180","category_index":3},{"value":8,"offby":2,"category":"$181 - $195","category_index":4},{"value":1,"offby":-2,"category":"$196 - $210","category_index":5},{"value":0,"offby":-1,"category":"$211 - $225","category_index":6}],"phase":1,"number":1,"trial_type":"bar-choose","trial_index":135,"time_elapsed":1155572,"internal_node_id":"0.0-135.0"},{"special_comment":"Priceshigher to Mexico","trial_type":"special_sequence","trial_index":136,"time_elapsed":1175949,"internal_node_id":"0.0-136.0"},{"during":"Nothing","bonus":300,"trial_type":"final","trial_index":137,"time_elapsed":1207072,"internal_node_id":"0.0-137.0"}],"bonus":300}