{"start_time":"2017-02-27 10:47:24","end_time":"2017-02-27 11:26:36","points_phase0":107,"points_phase1":110,"phase_order":1,"age":30,"gender":"m","tries":1,"during":"Nothing","worker_id":"A2S4YDJ9UGAXFQ","assignment_id":"3CP1TO84PUUZZZZNETNHY85YVOQ52K","data":[{"rt":221203,"url":"\/tickets\/utils\/consent.html","trial_type":"html","trial_index":0,"time_elapsed":221494,"internal_node_id":"0.0-0.0"},{"age":30,"gender":"m","trial_type":"age","trial_index":1,"time_elapsed":226414,"internal_node_id":"0.0-1.0"},{"worker_id":"A2S4YDJ9UGAXFQ","trial_type":"workerid","trial_index":2,"time_elapsed":234173,"internal_node_id":"0.0-2.0"},{"tries":1,"trial_type":"instructions_check","trial_index":3,"time_elapsed":277421,"internal_node_id":"0.0-3.0"},{"rt":10360,"url":"\/tickets\/utils\/start.html","trial_type":"html","trial_index":4,"time_elapsed":288861,"internal_node_id":"0.0-4.0"},{"trial_type":"number-animation","trial_index":5,"time_elapsed":305793,"internal_node_id":"0.0-5.0"},{"phase":0,"sequence":0,"avg":166,"response":170,"trial_type":"training_avg","trial_index":6,"time_elapsed":317069,"internal_node_id":"0.0-6.0"},{"trial_type":"number-animation","trial_index":7,"time_elapsed":335789,"internal_node_id":"0.0-7.0"},{"phase":0,"sequence":1,"avg":198,"response":180,"trial_type":"training_avg","trial_index":8,"time_elapsed":345685,"internal_node_id":"0.0-8.0"},{"trial_type":"number-animation","trial_index":9,"time_elapsed":362077,"internal_node_id":"0.0-9.0"},{"phase":0,"sequence":2,"avg":177,"response":175,"trial_type":"training_avg","trial_index":10,"time_elapsed":373869,"internal_node_id":"0.0-10.0"},{"trial_type":"number-animation","trial_index":11,"time_elapsed":384541,"internal_node_id":"0.0-11.0"},{"phase":0,"sequence":3,"avg":190,"response":160,"trial_type":"training_avg","trial_index":12,"time_elapsed":391805,"internal_node_id":"0.0-12.0"},{"trial_type":"number-animation","trial_index":13,"time_elapsed":417878,"internal_node_id":"0.0-13.0"},{"phase":0,"sequence":4,"avg":201,"response":190,"trial_type":"training_avg","trial_index":14,"time_elapsed":429934,"internal_node_id":"0.0-14.0"},{"responses":[{"value":0,"offby":-1,"category":"$30 - $75","category_index":0},{"value":4,"offby":2,"category":"$76 - $120","category_index":1},{"value":8,"offby":4,"category":"$121 - $165","category_index":2},{"value":6,"offby":0,"category":"$166 - $210","category_index":3},{"value":2,"offby":-4,"category":"$211 - $255","category_index":4},{"value":0,"offby":-1,"category":"$256 - $300","category_index":5},{"value":0,"offby":0,"category":"$301 - $345","category_index":6}],"phase":0,"number":0,"trial_type":"bar-choose","trial_index":15,"time_elapsed":660207,"internal_node_id":"0.0-15.0"},{"rt":17546,"url":"\/tickets\/\/utils\/testing.html","trial_type":"html","trial_index":16,"time_elapsed":678837,"internal_node_id":"0.0-16.0"},{"phase":0,"order":[17,29,45,25,26,0,21,32,5,40,35,13,37,42,47,8,36,7,20,39,49,34,2,48,4,18,44,6,22,9,46,1,27,41,43,24,16,28,15,11,10,3,23,30,12,14,31,19,33,38],"trial_type":"store_order","trial_index":17,"time_elapsed":679839,"internal_node_id":"0.0-17.0"},{"result":126,"points":3,"place":0,"phase":0,"sequence":-1,"prices":[184,180,224,165,181,199,185,193,218,126],"times":[1819,1725,1054,1191,742,671,743,774,823,1087],"next_num":10,"trial_type":"ticket-choose","trial_index":18,"time_elapsed":694798,"internal_node_id":"0.0-18.0"},{"rt":18520,"url":"\/tickets\/utils\/testing_after.html","trial_type":"html","trial_index":19,"time_elapsed":714421,"internal_node_id":"0.0-19.0"},{"result":131,"points":2,"place":1,"phase":0,"sequence":0,"prices":[161,180,171,250,176,195,131,146,105,201],"times":[1505,917,710,741,687,670,951],"next_num":7,"trial_type":"ticket-choose","trial_index":20,"time_elapsed":724261,"internal_node_id":"0.0-20.0"},{"result":141,"points":1,"place":2,"phase":0,"sequence":1,"prices":[146,170,121,245,166,190,161,141,100,195],"times":[2166,495,485,749,638,639,694,830],"next_num":8,"trial_type":"ticket-choose","trial_index":21,"time_elapsed":734797,"internal_node_id":"0.0-21.0"},{"result":126,"points":2,"place":1,"phase":0,"sequence":2,"prices":[156,176,165,246,171,190,126,141,101,196],"times":[65016,686,750,727,772,788,965],"next_num":7,"trial_type":"ticket-choose","trial_index":22,"time_elapsed":807877,"internal_node_id":"0.0-22.0"},{"result":145,"points":2,"place":1,"phase":0,"sequence":3,"prices":[246,145,155,191,176,270,185,136,160,215],"times":[1064,1398],"next_num":2,"trial_type":"ticket-choose","trial_index":23,"time_elapsed":812541,"internal_node_id":"0.0-23.0"},{"result":106,"points":3,"place":0,"phase":0,"sequence":4,"prices":[180,106,166,245,211,261,215,125,135,190],"times":[1303,814],"next_num":2,"trial_type":"ticket-choose","trial_index":24,"time_elapsed":816941,"internal_node_id":"0.0-24.0"},{"result":51,"points":3,"place":0,"phase":0,"sequence":5,"prices":[221,175,51,196,146,130,166,80,126,156],"times":[943,703,804],"next_num":3,"trial_type":"ticket-choose","trial_index":25,"time_elapsed":821733,"internal_node_id":"0.0-25.0"},{"result":111,"points":3,"place":0,"phase":0,"sequence":6,"prices":[175,211,266,286,111,216,220,245,230,165],"times":[2418,711,622,565,911],"next_num":5,"trial_type":"ticket-choose","trial_index":26,"time_elapsed":829765,"internal_node_id":"0.0-26.0"},{"result":121,"points":2,"place":1,"phase":0,"sequence":7,"prices":[150,170,160,240,166,185,121,136,95,191],"times":[709,598,799,727,758,655,919],"next_num":7,"trial_type":"ticket-choose","trial_index":27,"time_elapsed":838036,"internal_node_id":"0.0-27.0"},{"result":126,"points":2,"place":1,"phase":0,"sequence":8,"prices":[150,175,166,251,170,196,126,145,105,201],"times":[124272,518,558,574,694,622,846],"next_num":7,"trial_type":"ticket-choose","trial_index":28,"time_elapsed":969237,"internal_node_id":"0.0-28.0"},{"result":86,"points":3,"place":0,"phase":0,"sequence":9,"prices":[86,180,130,151,170,271,145,191,220,160],"times":[1422],"next_num":1,"trial_type":"ticket-choose","trial_index":29,"time_elapsed":972661,"internal_node_id":"0.0-29.0"},{"result":81,"points":3,"place":0,"phase":0,"sequence":10,"prices":[81,205,130,151,191,261,145,210,250,165],"times":[1193],"next_num":1,"trial_type":"ticket-choose","trial_index":30,"time_elapsed":976069,"internal_node_id":"0.0-30.0"},{"result":150,"points":2,"place":1,"phase":0,"sequence":11,"prices":[181,156,145,165,236,231,201,260,150,185],"times":[1533,526,879,1014,766,663,694,615,783],"next_num":9,"trial_type":"ticket-choose","trial_index":31,"time_elapsed":987133,"internal_node_id":"0.0-31.0"},{"result":120,"points":2,"place":1,"phase":0,"sequence":12,"prices":[150,170,160,241,166,186,120,136,96,191],"times":[10410,548,581,582,974,621,807],"next_num":7,"trial_type":"ticket-choose","trial_index":32,"time_elapsed":1006005,"internal_node_id":"0.0-32.0"},{"result":140,"points":1,"place":2,"phase":0,"sequence":13,"prices":[156,175,125,245,170,190,165,140,101,196],"times":[71253,14932,575,519,622,590,711,790],"next_num":8,"trial_type":"ticket-choose","trial_index":33,"time_elapsed":1099501,"internal_node_id":"0.0-33.0"},{"result":120,"points":2,"place":1,"phase":0,"sequence":14,"prices":[186,156,191,120,195,145,45,130,246,176],"times":[1377,1126,582,765],"next_num":4,"trial_type":"ticket-choose","trial_index":34,"time_elapsed":1105797,"internal_node_id":"0.0-34.0"},{"result":130,"points":2,"place":1,"phase":0,"sequence":15,"prices":[156,181,130,255,175,200,170,150,111,205],"times":[1783,542,975],"next_num":3,"trial_type":"ticket-choose","trial_index":35,"time_elapsed":1111701,"internal_node_id":"0.0-35.0"},{"result":136,"points":1,"place":2,"phase":0,"sequence":16,"prices":[255,166,266,175,136,145,155,61,96,301],"times":[965,742,614,782,862],"next_num":5,"trial_type":"ticket-choose","trial_index":36,"time_elapsed":1118373,"internal_node_id":"0.0-36.0"},{"result":145,"points":1,"place":2,"phase":0,"sequence":17,"prices":[135,180,141,151,175,220,145,196,211,155],"times":[574,742,750,631,687,599,822],"next_num":7,"trial_type":"ticket-choose","trial_index":37,"time_elapsed":1126333,"internal_node_id":"0.0-37.0"},{"result":175,"points":1,"place":4,"phase":0,"sequence":18,"prices":[130,195,141,155,181,226,150,216,221,175],"times":[1794,549,863,654,583,710,782,645,597,670],"next_num":10,"trial_type":"ticket-choose","trial_index":38,"time_elapsed":1139324,"internal_node_id":"0.0-38.0"},{"result":106,"points":2,"place":1,"phase":0,"sequence":19,"prices":[185,180,235,210,106,266,76,115,250,205],"times":[1390,918,612,565,767],"next_num":5,"trial_type":"ticket-choose","trial_index":39,"time_elapsed":1146224,"internal_node_id":"0.0-39.0"},{"result":81,"points":3,"place":0,"phase":0,"sequence":20,"prices":[155,245,155,81,180,130,156,306,166,115],"times":[18653,751,942,774],"next_num":4,"trial_type":"ticket-choose","trial_index":40,"time_elapsed":1169821,"internal_node_id":"0.0-40.0"},{"result":75,"points":3,"place":0,"phase":0,"sequence":21,"prices":[75,171,131,151,161,250,145,190,206,156],"times":[1240],"next_num":1,"trial_type":"ticket-choose","trial_index":41,"time_elapsed":1172949,"internal_node_id":"0.0-41.0"},{"result":126,"points":2,"place":1,"phase":0,"sequence":22,"prices":[151,176,126,251,170,196,165,145,105,201],"times":[1312,2183,911],"next_num":3,"trial_type":"ticket-choose","trial_index":42,"time_elapsed":1179724,"internal_node_id":"0.0-42.0"},{"result":105,"points":3,"place":0,"phase":0,"sequence":23,"prices":[105,216,146,165,210,260,161,235,241,185],"times":[818],"next_num":1,"trial_type":"ticket-choose","trial_index":43,"time_elapsed":1182421,"internal_node_id":"0.0-43.0"},{"result":120,"points":2,"place":1,"phase":0,"sequence":24,"prices":[146,171,120,245,165,191,160,140,100,196],"times":[927,549,1294],"next_num":3,"trial_type":"ticket-choose","trial_index":44,"time_elapsed":1187468,"internal_node_id":"0.0-44.0"},{"result":120,"points":2,"place":1,"phase":0,"sequence":25,"prices":[150,171,120,241,165,185,160,135,96,190],"times":[680,622,790],"next_num":3,"trial_type":"ticket-choose","trial_index":45,"time_elapsed":1191788,"internal_node_id":"0.0-45.0"},{"result":126,"points":2,"place":1,"phase":0,"sequence":26,"prices":[156,175,126,246,170,190,165,140,100,196],"times":[107397,637,772],"next_num":3,"trial_type":"ticket-choose","trial_index":46,"time_elapsed":1302860,"internal_node_id":"0.0-46.0"},{"result":125,"points":1,"place":2,"phase":0,"sequence":27,"prices":[226,205,125,120,115,135,180,145,150,220],"times":[848,678,798],"next_num":3,"trial_type":"ticket-choose","trial_index":47,"time_elapsed":1307389,"internal_node_id":"0.0-47.0"},{"result":65,"points":2,"place":1,"phase":0,"sequence":28,"prices":[220,236,176,65,185,101,110,61,156,191],"times":[620,550,647,774],"next_num":4,"trial_type":"ticket-choose","trial_index":48,"time_elapsed":1312460,"internal_node_id":"0.0-48.0"},{"result":131,"points":2,"place":1,"phase":0,"sequence":29,"prices":[160,180,170,251,176,195,131,146,105,200],"times":[632,582,574,718,773,813,766],"next_num":7,"trial_type":"ticket-choose","trial_index":49,"time_elapsed":1320415,"internal_node_id":"0.0-49.0"},{"result":30,"points":3,"place":0,"phase":0,"sequence":30,"prices":[155,30,101,55,136,276,70,181,200,261],"times":[4412,719],"next_num":2,"trial_type":"ticket-choose","trial_index":50,"time_elapsed":1327573,"internal_node_id":"0.0-50.0"},{"result":91,"points":3,"place":0,"phase":0,"sequence":31,"prices":[176,150,141,91,290,201,106,266,206,126],"times":[1160,757,686,735],"next_num":4,"trial_type":"ticket-choose","trial_index":51,"time_elapsed":1333389,"internal_node_id":"0.0-51.0"},{"result":130,"points":2,"place":1,"phase":0,"sequence":32,"prices":[155,225,245,130,176,106,180,211,165,200],"times":[7464,695,566,774],"next_num":4,"trial_type":"ticket-choose","trial_index":52,"time_elapsed":1345348,"internal_node_id":"0.0-52.0"},{"result":121,"points":1,"place":2,"phase":0,"sequence":33,"prices":[66,201,96,150,185,230,121,216,225,165],"times":[613,742,710,510,551,534,790],"next_num":7,"trial_type":"ticket-choose","trial_index":53,"time_elapsed":1352860,"internal_node_id":"0.0-53.0"},{"result":146,"points":1,"place":2,"phase":0,"sequence":34,"prices":[161,180,131,251,175,196,171,146,105,201],"times":[808,622,1150,566,622,606,599,726],"next_num":8,"trial_type":"ticket-choose","trial_index":54,"time_elapsed":1361788,"internal_node_id":"0.0-54.0"},{"result":130,"points":2,"place":1,"phase":0,"sequence":35,"prices":[155,181,170,255,176,200,130,150,110,205],"times":[1016,678,614,574,663,598,744],"next_num":7,"trial_type":"ticket-choose","trial_index":55,"time_elapsed":1369772,"internal_node_id":"0.0-55.0"},{"result":131,"points":2,"place":1,"phase":0,"sequence":36,"prices":[156,181,171,256,175,200,131,150,110,206],"times":[1214,559,582,582,750,622,822],"next_num":7,"trial_type":"ticket-choose","trial_index":56,"time_elapsed":1378044,"internal_node_id":"0.0-56.0"},{"result":130,"points":2,"place":1,"phase":0,"sequence":37,"prices":[160,180,130,251,176,195,170,146,105,200],"times":[3141,542,720],"next_num":3,"trial_type":"ticket-choose","trial_index":57,"time_elapsed":1384724,"internal_node_id":"0.0-57.0"},{"result":130,"points":3,"place":0,"phase":0,"sequence":38,"prices":[185,175,276,221,130,141,171,216,235,165],"times":[806,758,559,485,751],"next_num":5,"trial_type":"ticket-choose","trial_index":58,"time_elapsed":1390629,"internal_node_id":"0.0-58.0"},{"result":120,"points":2,"place":1,"phase":0,"sequence":39,"prices":[145,170,160,245,165,190,120,141,100,195],"times":[4404,518,693,565,647,613,806],"next_num":7,"trial_type":"ticket-choose","trial_index":59,"time_elapsed":1402100,"internal_node_id":"0.0-59.0"},{"result":120,"points":3,"place":0,"phase":0,"sequence":40,"prices":[120,221,135,185,200,261,181,251,255,196],"times":[6815],"next_num":1,"trial_type":"ticket-choose","trial_index":60,"time_elapsed":1410757,"internal_node_id":"0.0-60.0"},{"result":131,"points":2,"place":1,"phase":0,"sequence":41,"prices":[156,181,131,256,176,200,171,151,111,206],"times":[1068,694,740],"next_num":3,"trial_type":"ticket-choose","trial_index":61,"time_elapsed":1415828,"internal_node_id":"0.0-61.0"},{"result":120,"points":2,"place":1,"phase":0,"sequence":42,"prices":[145,171,161,245,165,191,120,140,100,196],"times":[9329,646,528,638,574,766,918],"next_num":7,"trial_type":"ticket-choose","trial_index":62,"time_elapsed":1432652,"internal_node_id":"0.0-62.0"},{"result":95,"points":3,"place":0,"phase":0,"sequence":43,"prices":[95,205,106,151,186,271,145,210,215,181],"times":[11871],"next_num":1,"trial_type":"ticket-choose","trial_index":63,"time_elapsed":1446820,"internal_node_id":"0.0-63.0"},{"result":126,"points":2,"place":1,"phase":0,"sequence":44,"prices":[150,176,126,251,171,195,165,145,105,200],"times":[935,631,822],"next_num":3,"trial_type":"ticket-choose","trial_index":64,"time_elapsed":1451452,"internal_node_id":"0.0-64.0"},{"result":121,"points":2,"place":1,"phase":0,"sequence":45,"prices":[150,171,121,241,165,185,160,136,95,191],"times":[1740,581,790],"next_num":3,"trial_type":"ticket-choose","trial_index":65,"time_elapsed":1456844,"internal_node_id":"0.0-65.0"},{"result":116,"points":3,"place":0,"phase":0,"sequence":46,"prices":[176,150,276,171,261,116,130,201,166,231],"times":[799,686,566,661,783,711],"next_num":6,"trial_type":"ticket-choose","trial_index":66,"time_elapsed":1463893,"internal_node_id":"0.0-66.0"},{"result":111,"points":3,"place":0,"phase":0,"sequence":47,"prices":[111,231,131,146,171,295,141,241,271,150],"times":[7758],"next_num":1,"trial_type":"ticket-choose","trial_index":67,"time_elapsed":1473509,"internal_node_id":"0.0-67.0"},{"result":126,"points":2,"place":1,"phase":0,"sequence":48,"prices":[151,175,166,251,170,195,126,146,105,201],"times":[1190,542,571,534,647,606,831],"next_num":7,"trial_type":"ticket-choose","trial_index":68,"time_elapsed":1481509,"internal_node_id":"0.0-68.0"},{"result":125,"points":2,"place":1,"phase":0,"sequence":49,"prices":[155,175,166,245,171,190,125,140,101,196],"times":[1093,526,526,549,766,582,718],"next_num":7,"trial_type":"ticket-choose","trial_index":69,"time_elapsed":1489741,"internal_node_id":"0.0-69.0"},{"responses":[{"value":0,"offby":-1,"category":"$30 - $75","category_index":0},{"value":2,"offby":0,"category":"$76 - $120","category_index":1},{"value":4,"offby":0,"category":"$121 - $165","category_index":2},{"value":8,"offby":2,"category":"$166 - $210","category_index":3},{"value":6,"offby":0,"category":"$211 - $255","category_index":4},{"value":0,"offby":-1,"category":"$256 - $300","category_index":5},{"value":0,"offby":0,"category":"$301 - $345","category_index":6}],"phase":0,"number":1,"trial_type":"bar-choose","trial_index":70,"time_elapsed":1510878,"internal_node_id":"0.0-70.0"},{"rt":5903,"url":"\/tickets\/utils\/start2.html","trial_type":"html","trial_index":71,"time_elapsed":1517861,"internal_node_id":"0.0-71.0"},{"trial_type":"number-animation","trial_index":72,"time_elapsed":1528708,"internal_node_id":"0.0-72.0"},{"phase":1,"sequence":0,"avg":180,"response":179,"trial_type":"training_avg","trial_index":73,"time_elapsed":1534661,"internal_node_id":"0.0-73.0"},{"trial_type":"number-animation","trial_index":74,"time_elapsed":1542701,"internal_node_id":"0.0-74.0"},{"phase":1,"sequence":1,"avg":178,"response":182,"trial_type":"training_avg","trial_index":75,"time_elapsed":1547917,"internal_node_id":"0.0-75.0"},{"trial_type":"number-animation","trial_index":76,"time_elapsed":1556605,"internal_node_id":"0.0-76.0"},{"phase":1,"sequence":2,"avg":176,"response":175,"trial_type":"training_avg","trial_index":77,"time_elapsed":1561621,"internal_node_id":"0.0-77.0"},{"trial_type":"number-animation","trial_index":78,"time_elapsed":1663276,"internal_node_id":"0.0-78.0"},{"phase":1,"sequence":3,"avg":178,"response":175,"trial_type":"training_avg","trial_index":79,"time_elapsed":1667548,"internal_node_id":"0.0-79.0"},{"trial_type":"number-animation","trial_index":80,"time_elapsed":1675100,"internal_node_id":"0.0-80.0"},{"phase":1,"sequence":4,"avg":179,"response":175,"trial_type":"training_avg","trial_index":81,"time_elapsed":1679653,"internal_node_id":"0.0-81.0"},{"responses":[{"value":0,"offby":0,"category":"$140 - $250","category_index":0},{"value":0,"offby":0,"category":"$151 - $160","category_index":1},{"value":4,"offby":0,"category":"$161 - $170","category_index":2},{"value":7,"offby":1,"category":"$171 - $180","category_index":3},{"value":5,"offby":-2,"category":"$181 - $190","category_index":4},{"value":4,"offby":1,"category":"$191 - $200","category_index":5},{"value":0,"offby":0,"category":"$201 - $210","category_index":6}],"phase":1,"number":0,"trial_type":"bar-choose","trial_index":82,"time_elapsed":1705053,"internal_node_id":"0.0-82.0"},{"rt":7042,"url":"\/tickets\/utils\/testing2.html","trial_type":"html","trial_index":83,"time_elapsed":1713524,"internal_node_id":"0.0-83.0"},{"phase":1,"order":[12,19,5,48,41,35,46,20,6,24,30,47,21,1,37,11,39,32,33,34,42,28,2,26,18,17,0,36,43,13,44,45,49,31,8,14,15,9,38,23,27,10,22,25,3,16,40,29,7,4],"trial_type":"store_order","trial_index":84,"time_elapsed":1714526,"internal_node_id":"0.0-84.0"},{"result":163,"points":3,"place":0,"phase":1,"sequence":0,"prices":[174,178,168,192,177,181,176,171,163,182],"times":[115862,1325,910,559,550,597,566,558,758],"next_num":9,"trial_type":"ticket-choose","trial_index":85,"time_elapsed":1840349,"internal_node_id":"0.0-85.0"},{"result":166,"points":3,"place":0,"phase":1,"sequence":1,"prices":[166,190,170,173,178,203,172,192,198,174],"times":[975],"next_num":1,"trial_type":"ticket-choose","trial_index":86,"time_elapsed":1843124,"internal_node_id":"0.0-86.0"},{"result":162,"points":3,"place":0,"phase":1,"sequence":2,"prices":[179,174,172,162,202,184,165,197,185,169],"times":[856,511,574,679],"next_num":4,"trial_type":"ticket-choose","trial_index":87,"time_elapsed":1848052,"internal_node_id":"0.0-87.0"},{"result":163,"points":3,"place":0,"phase":1,"sequence":3,"prices":[163,185,165,174,181,198,173,186,187,180],"times":[885],"next_num":1,"trial_type":"ticket-choose","trial_index":88,"time_elapsed":1850716,"internal_node_id":"0.0-88.0"},{"result":165,"points":3,"place":0,"phase":1,"sequence":4,"prices":[165,187,173,177,186,196,176,191,192,181],"times":[799],"next_num":1,"trial_type":"ticket-choose","trial_index":89,"time_elapsed":1853340,"internal_node_id":"0.0-89.0"},{"result":169,"points":2,"place":1,"phase":1,"sequence":5,"prices":[175,179,169,193,178,182,177,172,164,183],"times":[791,549,774],"next_num":3,"trial_type":"ticket-choose","trial_index":90,"time_elapsed":1857652,"internal_node_id":"0.0-90.0"},{"result":168,"points":2,"place":1,"phase":1,"sequence":6,"prices":[174,178,176,192,177,181,168,171,163,182],"times":[624,622,566,656,839,599,726],"next_num":7,"trial_type":"ticket-choose","trial_index":91,"time_elapsed":1865636,"internal_node_id":"0.0-91.0"},{"result":175,"points":1,"place":4,"phase":1,"sequence":7,"prices":[171,180,172,174,179,188,173,183,186,175],"times":[4060,575,606,582,582,638,1023,622,742,550],"next_num":10,"trial_type":"ticket-choose","trial_index":92,"time_elapsed":1879828,"internal_node_id":"0.0-92.0"},{"result":169,"points":2,"place":1,"phase":1,"sequence":8,"prices":[175,179,177,193,178,182,169,172,164,183],"times":[895,535,614,631,661,662,758],"next_num":7,"trial_type":"ticket-choose","trial_index":93,"time_elapsed":1887724,"internal_node_id":"0.0-93.0"},{"result":167,"points":3,"place":0,"phase":1,"sequence":9,"prices":[179,174,199,178,196,167,170,184,177,190],"times":[959,814,614,542,11382,726],"next_num":6,"trial_type":"ticket-choose","trial_index":94,"time_elapsed":1905508,"internal_node_id":"0.0-94.0"},{"result":154,"points":3,"place":0,"phase":1,"sequence":10,"prices":[188,179,154,183,173,170,177,160,169,175],"times":[1125,862,774],"next_num":3,"trial_type":"ticket-choose","trial_index":95,"time_elapsed":1910342,"internal_node_id":"0.0-95.0"},{"result":170,"points":2,"place":1,"phase":1,"sequence":11,"prices":[176,180,178,194,179,183,170,173,165,184],"times":[789,574,606,622,550,575,870],"next_num":7,"trial_type":"ticket-choose","trial_index":96,"time_elapsed":1918004,"internal_node_id":"0.0-96.0"},{"result":168,"points":2,"place":1,"phase":1,"sequence":12,"prices":[181,175,182,168,183,173,153,170,193,179],"times":[782,703,574,678],"next_num":4,"trial_type":"ticket-choose","trial_index":97,"time_elapsed":1923100,"internal_node_id":"0.0-97.0"},{"result":160,"points":3,"place":0,"phase":1,"sequence":13,"prices":[175,193,175,160,180,170,175,205,177,167],"times":[2189,623,582,1046],"next_num":4,"trial_type":"ticket-choose","trial_index":98,"time_elapsed":1929988,"internal_node_id":"0.0-98.0"},{"result":181,"points":0,"place":5,"phase":1,"sequence":14,"prices":[180,175,173,177,191,190,184,196,174,181],"times":[703,534,1879,566,591,622,1278,678,1981,798],"next_num":10,"trial_type":"ticket-choose","trial_index":99,"time_elapsed":1943644,"internal_node_id":"0.0-99.0"},{"result":173,"points":1,"place":2,"phase":1,"sequence":15,"prices":[176,180,170,194,179,183,178,173,165,184],"times":[1068,654,686,654,693,622,574,839],"next_num":8,"trial_type":"ticket-choose","trial_index":100,"time_elapsed":1952740,"internal_node_id":"0.0-100.0"},{"result":169,"points":1,"place":2,"phase":1,"sequence":16,"prices":[189,185,169,168,167,171,180,173,174,188],"times":[629,750,758],"next_num":3,"trial_type":"ticket-choose","trial_index":101,"time_elapsed":1957101,"internal_node_id":"0.0-101.0"},{"result":169,"points":2,"place":1,"phase":1,"sequence":17,"prices":[174,179,177,194,178,183,169,173,165,184],"times":[439,637,671,638,638,695,1429],"next_num":7,"trial_type":"ticket-choose","trial_index":102,"time_elapsed":1965412,"internal_node_id":"0.0-102.0"},{"result":168,"points":2,"place":1,"phase":1,"sequence":18,"prices":[174,178,176,192,177,181,168,171,163,182],"times":[1195,504,518,614,831,606,789],"next_num":7,"trial_type":"ticket-choose","trial_index":103,"time_elapsed":1973372,"internal_node_id":"0.0-103.0"},{"result":156,"points":3,"place":0,"phase":1,"sequence":19,"prices":[195,177,197,179,171,173,175,156,163,204],"times":[3008,1382,542,606,679,694,711,878],"next_num":8,"trial_type":"ticket-choose","trial_index":104,"time_elapsed":1985068,"internal_node_id":"0.0-104.0"},{"result":170,"points":2,"place":1,"phase":1,"sequence":20,"prices":[175,189,193,170,179,165,180,186,177,184],"times":[848,535,590,838],"next_num":4,"trial_type":"ticket-choose","trial_index":105,"time_elapsed":1990348,"internal_node_id":"0.0-105.0"},{"result":165,"points":2,"place":1,"phase":1,"sequence":21,"prices":[181,180,191,186,165,197,159,167,194,185],"times":[784,623,526,533,854],"next_num":5,"trial_type":"ticket-choose","trial_index":106,"time_elapsed":1996316,"internal_node_id":"0.0-106.0"},{"result":169,"points":2,"place":1,"phase":1,"sequence":22,"prices":[174,179,169,194,178,183,177,173,165,184],"times":[872,694,678],"next_num":3,"trial_type":"ticket-choose","trial_index":107,"time_elapsed":2000972,"internal_node_id":"0.0-107.0"},{"result":171,"points":3,"place":0,"phase":1,"sequence":23,"prices":[193,173,175,182,179,198,181,171,176,187],"times":[648,543,526,559,550,598,639,741],"next_num":8,"trial_type":"ticket-choose","trial_index":108,"time_elapsed":2009052,"internal_node_id":"0.0-108.0"},{"result":169,"points":2,"place":1,"phase":1,"sequence":24,"prices":[175,179,177,193,178,182,169,172,164,183],"times":[751,558,511,678,833,667,797],"next_num":7,"trial_type":"ticket-choose","trial_index":109,"time_elapsed":2016813,"internal_node_id":"0.0-109.0"},{"result":168,"points":2,"place":1,"phase":1,"sequence":25,"prices":[173,178,168,193,177,182,176,172,164,183],"times":[1469,535,750],"next_num":3,"trial_type":"ticket-choose","trial_index":110,"time_elapsed":2021861,"internal_node_id":"0.0-110.0"},{"result":150,"points":3,"place":0,"phase":1,"sequence":26,"prices":[175,150,164,155,171,199,158,180,184,196],"times":[711,958],"next_num":2,"trial_type":"ticket-choose","trial_index":111,"time_elapsed":2025485,"internal_node_id":"0.0-111.0"},{"result":169,"points":2,"place":1,"phase":1,"sequence":27,"prices":[174,179,177,194,178,183,169,173,165,184],"times":[511,598,583,630,686,599,694],"next_num":7,"trial_type":"ticket-choose","trial_index":112,"time_elapsed":2032797,"internal_node_id":"0.0-112.0"},{"result":168,"points":2,"place":1,"phase":1,"sequence":28,"prices":[173,178,176,193,177,182,168,172,164,183],"times":[838,622,622,759,694,599,751],"next_num":7,"trial_type":"ticket-choose","trial_index":113,"time_elapsed":2040933,"internal_node_id":"0.0-113.0"},{"result":173,"points":1,"place":2,"phase":1,"sequence":29,"prices":[176,180,170,194,179,183,178,173,165,184],"times":[1279,534,615,606,742,662,750,871],"next_num":8,"trial_type":"ticket-choose","trial_index":114,"time_elapsed":2050325,"internal_node_id":"0.0-114.0"},{"result":166,"points":3,"place":0,"phase":1,"sequence":30,"prices":[179,186,197,201,166,187,188,193,190,177],"times":[895,542,614,574,790],"next_num":5,"trial_type":"ticket-choose","trial_index":115,"time_elapsed":2056213,"internal_node_id":"0.0-115.0"},{"result":169,"points":2,"place":1,"phase":1,"sequence":31,"prices":[175,179,169,193,178,182,177,172,164,183],"times":[733,743,670],"next_num":3,"trial_type":"ticket-choose","trial_index":116,"time_elapsed":2060525,"internal_node_id":"0.0-116.0"},{"result":183,"points":1,"place":4,"phase":1,"sequence":32,"prices":[168,188,171,181,184,196,180,194,195,183],"times":[431,678,518,574,557,630,806,606,591,525],"next_num":10,"trial_type":"ticket-choose","trial_index":117,"time_elapsed":2070220,"internal_node_id":"0.0-117.0"},{"result":165,"points":3,"place":0,"phase":1,"sequence":33,"prices":[180,165,177,193,186,196,187,169,171,182],"times":[1242,821],"next_num":2,"trial_type":"ticket-choose","trial_index":118,"time_elapsed":2074348,"internal_node_id":"0.0-118.0"},{"result":157,"points":2,"place":1,"phase":1,"sequence":34,"prices":[188,191,179,157,181,164,166,156,175,182],"times":[51542,581,550,821],"next_num":4,"trial_type":"ticket-choose","trial_index":119,"time_elapsed":2130437,"internal_node_id":"0.0-119.0"},{"result":161,"points":3,"place":0,"phase":1,"sequence":35,"prices":[161,180,170,174,178,198,173,182,188,176],"times":[839],"next_num":1,"trial_type":"ticket-choose","trial_index":120,"time_elapsed":2133100,"internal_node_id":"0.0-120.0"},{"result":168,"points":2,"place":1,"phase":1,"sequence":36,"prices":[174,178,168,192,177,181,176,171,163,182],"times":[65340,550,735],"next_num":3,"trial_type":"ticket-choose","trial_index":121,"time_elapsed":2202108,"internal_node_id":"0.0-121.0"},{"result":159,"points":3,"place":0,"phase":1,"sequence":37,"prices":[159,178,170,174,176,194,173,182,185,175],"times":[854],"next_num":1,"trial_type":"ticket-choose","trial_index":122,"time_elapsed":2204756,"internal_node_id":"0.0-122.0"},{"result":170,"points":2,"place":1,"phase":1,"sequence":38,"prices":[175,180,178,195,179,184,170,174,166,185],"times":[1277,614,878,703,814,1318,663],"next_num":7,"trial_type":"ticket-choose","trial_index":123,"time_elapsed":2214068,"internal_node_id":"0.0-123.0"},{"result":170,"points":2,"place":1,"phase":1,"sequence":39,"prices":[175,180,170,195,179,184,178,174,166,185],"times":[1032,887,760],"next_num":3,"trial_type":"ticket-choose","trial_index":124,"time_elapsed":2218956,"internal_node_id":"0.0-124.0"},{"result":170,"points":2,"place":1,"phase":1,"sequence":40,"prices":[175,180,170,195,179,184,178,174,166,185],"times":[870,598,750],"next_num":3,"trial_type":"ticket-choose","trial_index":125,"time_elapsed":2223380,"internal_node_id":"0.0-125.0"},{"result":169,"points":2,"place":1,"phase":1,"sequence":41,"prices":[174,179,169,194,178,183,177,173,165,184],"times":[807,647,676],"next_num":3,"trial_type":"ticket-choose","trial_index":126,"time_elapsed":2227716,"internal_node_id":"0.0-126.0"},{"result":168,"points":2,"place":1,"phase":1,"sequence":42,"prices":[173,178,176,193,177,182,168,172,164,183],"times":[806,582,566,574,621,895,702],"next_num":7,"trial_type":"ticket-choose","trial_index":127,"time_elapsed":2235692,"internal_node_id":"0.0-127.0"},{"result":160,"points":3,"place":0,"phase":1,"sequence":43,"prices":[160,185,170,174,182,196,173,186,194,177],"times":[16287],"next_num":1,"trial_type":"ticket-choose","trial_index":128,"time_elapsed":2253764,"internal_node_id":"0.0-128.0"},{"result":170,"points":2,"place":1,"phase":1,"sequence":44,"prices":[176,180,178,194,179,183,170,173,165,184],"times":[974,495,701,543,726,684,742],"next_num":7,"trial_type":"ticket-choose","trial_index":129,"time_elapsed":2261636,"internal_node_id":"0.0-129.0"},{"result":170,"points":2,"place":1,"phase":1,"sequence":45,"prices":[175,180,178,195,179,184,170,174,166,185],"times":[791,590,606,613,718,710,662],"next_num":7,"trial_type":"ticket-choose","trial_index":130,"time_elapsed":2269524,"internal_node_id":"0.0-130.0"},{"result":157,"points":3,"place":0,"phase":1,"sequence":46,"prices":[157,184,163,174,181,190,168,187,189,177],"times":[991],"next_num":1,"trial_type":"ticket-choose","trial_index":131,"time_elapsed":2272316,"internal_node_id":"0.0-131.0"},{"result":168,"points":2,"place":1,"phase":1,"sequence":47,"prices":[173,178,168,193,177,182,176,172,164,183],"times":[935,614,670],"next_num":3,"trial_type":"ticket-choose","trial_index":132,"time_elapsed":2276908,"internal_node_id":"0.0-132.0"},{"result":174,"points":1,"place":2,"phase":1,"sequence":48,"prices":[170,183,172,175,180,189,174,187,188,179],"times":[1656,559,951,647,615,598,759],"next_num":7,"trial_type":"ticket-choose","trial_index":133,"time_elapsed":2285668,"internal_node_id":"0.0-133.0"},{"result":170,"points":3,"place":0,"phase":1,"sequence":49,"prices":[181,179,199,188,170,172,178,187,191,177],"times":[1428,661,710,663,1014],"next_num":5,"trial_type":"ticket-choose","trial_index":134,"time_elapsed":2293564,"internal_node_id":"0.0-134.0"},{"responses":[{"value":0,"offby":0,"category":"$140 - $250","category_index":0},{"value":0,"offby":0,"category":"$151 - $160","category_index":1},{"value":4,"offby":0,"category":"$161 - $170","category_index":2},{"value":9,"offby":3,"category":"$171 - $180","category_index":3},{"value":7,"offby":0,"category":"$181 - $190","category_index":4},{"value":0,"offby":-3,"category":"$191 - $200","category_index":5},{"value":0,"offby":0,"category":"$201 - $210","category_index":6}],"phase":1,"number":1,"trial_type":"bar-choose","trial_index":135,"time_elapsed":2311232,"internal_node_id":"0.0-135.0"},{"special_comment":"Inoticed nothing special.","trial_type":"special_sequence","trial_index":136,"time_elapsed":2323117,"internal_node_id":"0.0-136.0"},{"during":"Nothing","bonus":288,"trial_type":"final","trial_index":137,"time_elapsed":2350590,"internal_node_id":"0.0-137.0"}],"bonus":288}