{"start_time":"2017-02-15 09:13:16","end_time":"2017-02-15 09:41:36","points_phase0":112,"points_phase1":120,"phase_order":1,"age":27,"gender":"m","tries":1,"during":"Nothing","worker_id":"A2S5GPVIUV8RJI","assignment_id":"3OWEPKL08A5ABP2ZO50YOGMSWBB7NY","data":[{"rt":46988,"url":"\/tickets\/utils\/consent.html","trial_type":"html","trial_index":0,"time_elapsed":47787,"internal_node_id":"0.0-0.0"},{"age":27,"gender":"m","trial_type":"age","trial_index":1,"time_elapsed":52598,"internal_node_id":"0.0-1.0"},{"worker_id":"A2S5GPVIUV8RJI","trial_type":"workerid","trial_index":2,"time_elapsed":57720,"internal_node_id":"0.0-2.0"},{"tries":1,"trial_type":"instructions_check","trial_index":3,"time_elapsed":66818,"internal_node_id":"0.0-3.0"},{"rt":1900,"url":"\/tickets\/utils\/start.html","trial_type":"html","trial_index":4,"time_elapsed":69873,"internal_node_id":"0.0-4.0"},{"trial_type":"number-animation","trial_index":5,"time_elapsed":94393,"internal_node_id":"0.0-5.0"},{"phase":0,"sequence":0,"avg":182,"response":145,"trial_type":"training_avg","trial_index":6,"time_elapsed":109829,"internal_node_id":"0.0-6.0"},{"trial_type":"number-animation","trial_index":7,"time_elapsed":123334,"internal_node_id":"0.0-7.0"},{"phase":0,"sequence":1,"avg":188,"response":195,"trial_type":"training_avg","trial_index":8,"time_elapsed":133238,"internal_node_id":"0.0-8.0"},{"trial_type":"number-animation","trial_index":9,"time_elapsed":155122,"internal_node_id":"0.0-9.0"},{"phase":0,"sequence":2,"avg":176,"response":178,"trial_type":"training_avg","trial_index":10,"time_elapsed":161792,"internal_node_id":"0.0-10.0"},{"trial_type":"number-animation","trial_index":11,"time_elapsed":170073,"internal_node_id":"0.0-11.0"},{"phase":0,"sequence":3,"avg":180,"response":145,"trial_type":"training_avg","trial_index":12,"time_elapsed":177299,"internal_node_id":"0.0-12.0"},{"trial_type":"number-animation","trial_index":13,"time_elapsed":185430,"internal_node_id":"0.0-13.0"},{"phase":0,"sequence":4,"avg":174,"response":181,"trial_type":"training_avg","trial_index":14,"time_elapsed":193202,"internal_node_id":"0.0-14.0"},{"responses":[{"value":1,"offby":0,"category":"$90 - $120","category_index":0},{"value":2,"offby":-1,"category":"$121 - $145","category_index":1},{"value":1,"offby":-2,"category":"$146 - $170","category_index":2},{"value":1,"offby":-5,"category":"$171 - $195","category_index":3},{"value":6,"offby":2,"category":"$196 - $220","category_index":4},{"value":8,"offby":6,"category":"$221 - $245","category_index":5},{"value":1,"offby":0,"category":"$246 - $270","category_index":6}],"phase":0,"number":0,"trial_type":"bar-choose","trial_index":15,"time_elapsed":248387,"internal_node_id":"0.0-15.0"},{"rt":7157,"url":"\/tickets\/\/utils\/testing.html","trial_type":"html","trial_index":16,"time_elapsed":256649,"internal_node_id":"0.0-16.0"},{"phase":0,"order":[49,23,30,16,0,2,25,19,38,29,24,5,15,35,34,13,9,6,32,45,43,17,48,22,40,41,42,20,26,18,37,46,39,4,44,11,33,28,47,1,10,7,27,3,12,21,36,31,8,14],"trial_type":"store_order","trial_index":17,"time_elapsed":257651,"internal_node_id":"0.0-17.0"},{"result":126,"points":3,"place":0,"phase":0,"sequence":-1,"times":[1942,722,754,982,689,709,897,762,778,1150],"next_num":10,"trial_type":"ticket-choose","trial_index":18,"time_elapsed":271565,"internal_node_id":"0.0-18.0"},{"rt":216297,"url":"\/tickets\/utils\/testing_after.html","trial_type":"html","trial_index":19,"time_elapsed":489007,"internal_node_id":"0.0-19.0"},{"result":136,"points":2,"place":1,"phase":0,"sequence":0,"times":[2484,1684,718,848,938,691,1449],"next_num":7,"trial_type":"ticket-choose","trial_index":20,"time_elapsed":502989,"internal_node_id":"0.0-20.0"},{"result":146,"points":3,"place":0,"phase":0,"sequence":1,"times":[1198,600,634,758,699,763,723,1182],"next_num":8,"trial_type":"ticket-choose","trial_index":21,"time_elapsed":513817,"internal_node_id":"0.0-21.0"},{"result":133,"points":3,"place":0,"phase":0,"sequence":2,"times":[983,655,1069,637,661,700,915,2352,651,1007],"next_num":10,"trial_type":"ticket-choose","trial_index":22,"time_elapsed":536925,"internal_node_id":"0.0-22.0"},{"result":136,"points":2,"place":1,"phase":0,"sequence":3,"times":[1123,630,990],"next_num":3,"trial_type":"ticket-choose","trial_index":23,"time_elapsed":542452,"internal_node_id":"0.0-23.0"},{"result":114,"points":3,"place":0,"phase":0,"sequence":4,"times":[768,583,1045,994],"next_num":4,"trial_type":"ticket-choose","trial_index":24,"time_elapsed":548694,"internal_node_id":"0.0-24.0"},{"result":126,"points":3,"place":0,"phase":0,"sequence":5,"times":[797,629,596,662,670,680,1096,707,869],"next_num":9,"trial_type":"ticket-choose","trial_index":25,"time_elapsed":559315,"internal_node_id":"0.0-25.0"},{"result":162,"points":1,"place":3,"phase":0,"sequence":6,"times":[762,614,640,683,638,750,648,692,613,805],"next_num":10,"trial_type":"ticket-choose","trial_index":26,"time_elapsed":570451,"internal_node_id":"0.0-26.0"},{"result":124,"points":3,"place":0,"phase":0,"sequence":7,"times":[1152],"next_num":1,"trial_type":"ticket-choose","trial_index":27,"time_elapsed":573933,"internal_node_id":"0.0-27.0"},{"result":118,"points":2,"place":1,"phase":0,"sequence":8,"times":[951,543,1244],"next_num":3,"trial_type":"ticket-choose","trial_index":28,"time_elapsed":579313,"internal_node_id":"0.0-28.0"},{"result":135,"points":3,"place":0,"phase":0,"sequence":9,"times":[718,666,944],"next_num":3,"trial_type":"ticket-choose","trial_index":29,"time_elapsed":584159,"internal_node_id":"0.0-29.0"},{"result":132,"points":3,"place":0,"phase":0,"sequence":10,"times":[706,655,635,641,723,625,996,812,688,770],"next_num":10,"trial_type":"ticket-choose","trial_index":30,"time_elapsed":595516,"internal_node_id":"0.0-30.0"},{"result":124,"points":3,"place":0,"phase":0,"sequence":11,"times":[1594,628,624,703,680,658,1042],"next_num":7,"trial_type":"ticket-choose","trial_index":31,"time_elapsed":605387,"internal_node_id":"0.0-31.0"},{"result":124,"points":3,"place":0,"phase":0,"sequence":12,"times":[2715,973,655,925],"next_num":4,"trial_type":"ticket-choose","trial_index":32,"time_elapsed":613394,"internal_node_id":"0.0-32.0"},{"result":117,"points":3,"place":0,"phase":0,"sequence":13,"times":[1050],"next_num":1,"trial_type":"ticket-choose","trial_index":33,"time_elapsed":616393,"internal_node_id":"0.0-33.0"},{"result":126,"points":3,"place":0,"phase":0,"sequence":14,"times":[762,657,714,568,650,683,675,1198,917],"next_num":9,"trial_type":"ticket-choose","trial_index":34,"time_elapsed":627354,"internal_node_id":"0.0-34.0"},{"result":189,"points":1,"place":4,"phase":0,"sequence":15,"times":[11123,748,682,681,789,682,808,717,673,1122],"next_num":10,"trial_type":"ticket-choose","trial_index":35,"time_elapsed":649997,"internal_node_id":"0.0-35.0"},{"result":196,"points":1,"place":4,"phase":0,"sequence":16,"times":[1463,638,718,598,716,632,759,687,690,1164],"next_num":10,"trial_type":"ticket-choose","trial_index":36,"time_elapsed":662110,"internal_node_id":"0.0-36.0"},{"result":136,"points":2,"place":1,"phase":0,"sequence":17,"times":[848,642,947],"next_num":3,"trial_type":"ticket-choose","trial_index":37,"time_elapsed":666903,"internal_node_id":"0.0-37.0"},{"result":146,"points":2,"place":1,"phase":0,"sequence":18,"times":[738,590,872],"next_num":3,"trial_type":"ticket-choose","trial_index":38,"time_elapsed":671488,"internal_node_id":"0.0-38.0"},{"result":146,"points":2,"place":1,"phase":0,"sequence":19,"times":[653,570,652,613,1036,791,1042],"next_num":7,"trial_type":"ticket-choose","trial_index":39,"time_elapsed":680144,"internal_node_id":"0.0-39.0"},{"result":154,"points":2,"place":1,"phase":0,"sequence":20,"times":[1014,602,661,790,677,709,957],"next_num":7,"trial_type":"ticket-choose","trial_index":40,"time_elapsed":688950,"internal_node_id":"0.0-40.0"},{"result":130,"points":2,"place":1,"phase":0,"sequence":21,"times":[981,936],"next_num":2,"trial_type":"ticket-choose","trial_index":41,"time_elapsed":692970,"internal_node_id":"0.0-41.0"},{"result":136,"points":2,"place":1,"phase":0,"sequence":22,"times":[719,626,639,567,675,646,865],"next_num":7,"trial_type":"ticket-choose","trial_index":42,"time_elapsed":700935,"internal_node_id":"0.0-42.0"},{"result":146,"points":2,"place":1,"phase":0,"sequence":23,"times":[1258,632,914],"next_num":3,"trial_type":"ticket-choose","trial_index":43,"time_elapsed":706266,"internal_node_id":"0.0-43.0"},{"result":154,"points":2,"place":1,"phase":0,"sequence":24,"times":[954,646,804],"next_num":3,"trial_type":"ticket-choose","trial_index":44,"time_elapsed":710972,"internal_node_id":"0.0-44.0"},{"result":146,"points":2,"place":1,"phase":0,"sequence":25,"times":[664,501,818],"next_num":3,"trial_type":"ticket-choose","trial_index":45,"time_elapsed":715289,"internal_node_id":"0.0-45.0"},{"result":131,"points":2,"place":1,"phase":0,"sequence":26,"times":[875,546,1218],"next_num":3,"trial_type":"ticket-choose","trial_index":46,"time_elapsed":720324,"internal_node_id":"0.0-46.0"},{"result":127,"points":3,"place":0,"phase":0,"sequence":27,"times":[782,653,666,628,544,641,608,2313,286,649],"next_num":10,"trial_type":"ticket-choose","trial_index":47,"time_elapsed":732138,"internal_node_id":"0.0-47.0"},{"result":121,"points":3,"place":0,"phase":0,"sequence":28,"times":[1129],"next_num":1,"trial_type":"ticket-choose","trial_index":48,"time_elapsed":735273,"internal_node_id":"0.0-48.0"},{"result":135,"points":3,"place":0,"phase":0,"sequence":29,"times":[918],"next_num":1,"trial_type":"ticket-choose","trial_index":49,"time_elapsed":738049,"internal_node_id":"0.0-49.0"},{"result":146,"points":2,"place":1,"phase":0,"sequence":30,"times":[1238,578,592,628,667,622,928],"next_num":7,"trial_type":"ticket-choose","trial_index":50,"time_elapsed":746652,"internal_node_id":"0.0-50.0"},{"result":154,"points":2,"place":1,"phase":0,"sequence":31,"times":[1109,620,628,639,918],"next_num":5,"trial_type":"ticket-choose","trial_index":51,"time_elapsed":753420,"internal_node_id":"0.0-51.0"},{"result":165,"points":2,"place":1,"phase":0,"sequence":32,"times":[1403,1136],"next_num":2,"trial_type":"ticket-choose","trial_index":52,"time_elapsed":758204,"internal_node_id":"0.0-52.0"},{"result":154,"points":2,"place":1,"phase":0,"sequence":33,"times":[690,418,821],"next_num":3,"trial_type":"ticket-choose","trial_index":53,"time_elapsed":762429,"internal_node_id":"0.0-53.0"},{"result":154,"points":2,"place":1,"phase":0,"sequence":34,"times":[728,335,527,649,591,651,1070],"next_num":7,"trial_type":"ticket-choose","trial_index":54,"time_elapsed":770122,"internal_node_id":"0.0-54.0"},{"result":155,"points":1,"place":2,"phase":0,"sequence":35,"times":[1358],"next_num":1,"trial_type":"ticket-choose","trial_index":55,"time_elapsed":773442,"internal_node_id":"0.0-55.0"},{"result":136,"points":3,"place":0,"phase":0,"sequence":36,"times":[692,580,531,558,560,927],"next_num":6,"trial_type":"ticket-choose","trial_index":56,"time_elapsed":780291,"internal_node_id":"0.0-56.0"},{"result":137,"points":3,"place":0,"phase":0,"sequence":37,"times":[4359],"next_num":1,"trial_type":"ticket-choose","trial_index":57,"time_elapsed":787170,"internal_node_id":"0.0-57.0"},{"result":142,"points":3,"place":0,"phase":0,"sequence":38,"times":[1408],"next_num":1,"trial_type":"ticket-choose","trial_index":58,"time_elapsed":790960,"internal_node_id":"0.0-58.0"},{"result":170,"points":1,"place":3,"phase":0,"sequence":39,"times":[2103],"next_num":1,"trial_type":"ticket-choose","trial_index":59,"time_elapsed":795092,"internal_node_id":"0.0-59.0"},{"result":119,"points":3,"place":0,"phase":0,"sequence":40,"times":[670,833],"next_num":2,"trial_type":"ticket-choose","trial_index":60,"time_elapsed":798595,"internal_node_id":"0.0-60.0"},{"result":136,"points":2,"place":1,"phase":0,"sequence":41,"times":[1373,554,880],"next_num":3,"trial_type":"ticket-choose","trial_index":61,"time_elapsed":803706,"internal_node_id":"0.0-61.0"},{"result":132,"points":3,"place":0,"phase":0,"sequence":42,"times":[780],"next_num":1,"trial_type":"ticket-choose","trial_index":62,"time_elapsed":806284,"internal_node_id":"0.0-62.0"},{"result":192,"points":1,"place":4,"phase":0,"sequence":43,"times":[848,552,831,635,649,682,972,650,673,916],"next_num":10,"trial_type":"ticket-choose","trial_index":63,"time_elapsed":817603,"internal_node_id":"0.0-63.0"},{"result":146,"points":1,"place":2,"phase":0,"sequence":44,"times":[795,833],"next_num":2,"trial_type":"ticket-choose","trial_index":64,"time_elapsed":821291,"internal_node_id":"0.0-64.0"},{"result":146,"points":2,"place":1,"phase":0,"sequence":45,"times":[659,606,551,650,638,690,1061],"next_num":7,"trial_type":"ticket-choose","trial_index":65,"time_elapsed":829406,"internal_node_id":"0.0-65.0"},{"result":136,"points":2,"place":1,"phase":0,"sequence":46,"times":[733,583,874],"next_num":3,"trial_type":"ticket-choose","trial_index":66,"time_elapsed":834086,"internal_node_id":"0.0-66.0"},{"result":149,"points":2,"place":1,"phase":0,"sequence":47,"times":[816,573,878],"next_num":3,"trial_type":"ticket-choose","trial_index":67,"time_elapsed":838998,"internal_node_id":"0.0-67.0"},{"result":136,"points":2,"place":1,"phase":0,"sequence":48,"times":[741,602,753,653,697,683,898],"next_num":7,"trial_type":"ticket-choose","trial_index":68,"time_elapsed":847344,"internal_node_id":"0.0-68.0"},{"result":136,"points":2,"place":1,"phase":0,"sequence":49,"times":[1482,515,576,636,1268,728,1098],"next_num":7,"trial_type":"ticket-choose","trial_index":69,"time_elapsed":857627,"internal_node_id":"0.0-69.0"},{"responses":[{"value":1,"offby":0,"category":"$90 - $120","category_index":0},{"value":2,"offby":-1,"category":"$121 - $145","category_index":1},{"value":2,"offby":-1,"category":"$146 - $170","category_index":2},{"value":5,"offby":-1,"category":"$171 - $195","category_index":3},{"value":5,"offby":1,"category":"$196 - $220","category_index":4},{"value":3,"offby":1,"category":"$221 - $245","category_index":5},{"value":2,"offby":1,"category":"$246 - $270","category_index":6}],"phase":0,"number":1,"trial_type":"bar-choose","trial_index":70,"time_elapsed":905138,"internal_node_id":"0.0-70.0"},{"rt":4165,"url":"\/tickets\/utils\/start2.html","trial_type":"html","trial_index":71,"time_elapsed":910465,"internal_node_id":"0.0-71.0"},{"trial_type":"number-animation","trial_index":72,"time_elapsed":920850,"internal_node_id":"0.0-72.0"},{"phase":1,"sequence":0,"avg":181,"response":182,"trial_type":"training_avg","trial_index":73,"time_elapsed":927422,"internal_node_id":"0.0-73.0"},{"trial_type":"number-animation","trial_index":74,"time_elapsed":934537,"internal_node_id":"0.0-74.0"},{"phase":1,"sequence":1,"avg":188,"response":189,"trial_type":"training_avg","trial_index":75,"time_elapsed":942388,"internal_node_id":"0.0-75.0"},{"trial_type":"number-animation","trial_index":76,"time_elapsed":950101,"internal_node_id":"0.0-76.0"},{"phase":1,"sequence":2,"avg":188,"response":181,"trial_type":"training_avg","trial_index":77,"time_elapsed":956501,"internal_node_id":"0.0-77.0"},{"trial_type":"number-animation","trial_index":78,"time_elapsed":963907,"internal_node_id":"0.0-78.0"},{"phase":1,"sequence":3,"avg":177,"response":184,"trial_type":"training_avg","trial_index":79,"time_elapsed":970935,"internal_node_id":"0.0-79.0"},{"trial_type":"number-animation","trial_index":80,"time_elapsed":978089,"internal_node_id":"0.0-80.0"},{"phase":1,"sequence":4,"avg":182,"response":193,"trial_type":"training_avg","trial_index":81,"time_elapsed":983682,"internal_node_id":"0.0-81.0"},{"responses":[{"value":1,"offby":1,"category":"$106 - $134","category_index":0},{"value":2,"offby":1,"category":"$135 - $150","category_index":1},{"value":2,"offby":-1,"category":"$151 - $165","category_index":2},{"value":4,"offby":-2,"category":"$166 - $180","category_index":3},{"value":5,"offby":-1,"category":"$181 - $195","category_index":4},{"value":3,"offby":0,"category":"$196 - $210","category_index":5},{"value":3,"offby":2,"category":"$211 - $225","category_index":6}],"phase":1,"number":0,"trial_type":"bar-choose","trial_index":82,"time_elapsed":1004690,"internal_node_id":"0.0-82.0"},{"rt":57064,"url":"\/tickets\/utils\/testing2.html","trial_type":"html","trial_index":83,"time_elapsed":1062887,"internal_node_id":"0.0-83.0"},{"phase":1,"order":[20,38,9,17,48,4,39,26,44,43,12,37,47,31,3,28,32,18,1,5,13,34,23,2,8,0,41,11,29,30,6,45,42,10,14,35,46,33,24,15,40,19,25,27,49,7,16,36,21,22],"trial_type":"store_order","trial_index":84,"time_elapsed":1063889,"internal_node_id":"0.0-84.0"},{"result":148,"points":3,"place":0,"phase":1,"sequence":0,"times":[2647,512,599,1003,999,890],"next_num":6,"trial_type":"ticket-choose","trial_index":85,"time_elapsed":1073632,"internal_node_id":"0.0-85.0"},{"result":158,"points":2,"place":1,"phase":1,"sequence":1,"times":[941,530,611,651,601,668,2107],"next_num":7,"trial_type":"ticket-choose","trial_index":86,"time_elapsed":1082999,"internal_node_id":"0.0-86.0"},{"result":176,"points":1,"place":4,"phase":1,"sequence":2,"times":[992,538,578,541,623,616,614,619,718,791],"next_num":10,"trial_type":"ticket-choose","trial_index":87,"time_elapsed":1093552,"internal_node_id":"0.0-87.0"},{"result":158,"points":2,"place":1,"phase":1,"sequence":3,"times":[742,560,1540],"next_num":3,"trial_type":"ticket-choose","trial_index":88,"time_elapsed":1098666,"internal_node_id":"0.0-88.0"},{"result":153,"points":3,"place":0,"phase":1,"sequence":4,"times":[718,533,554,584,601,629,608,602,998],"next_num":9,"trial_type":"ticket-choose","trial_index":89,"time_elapsed":1108105,"internal_node_id":"0.0-89.0"},{"result":163,"points":2,"place":1,"phase":1,"sequence":5,"times":[746,649,1440],"next_num":3,"trial_type":"ticket-choose","trial_index":90,"time_elapsed":1113209,"internal_node_id":"0.0-90.0"},{"result":156,"points":3,"place":0,"phase":1,"sequence":6,"times":[1152],"next_num":1,"trial_type":"ticket-choose","trial_index":91,"time_elapsed":1116159,"internal_node_id":"0.0-91.0"},{"result":158,"points":2,"place":1,"phase":1,"sequence":7,"times":[715,585,857],"next_num":3,"trial_type":"ticket-choose","trial_index":92,"time_elapsed":1120436,"internal_node_id":"0.0-92.0"},{"result":163,"points":3,"place":0,"phase":1,"sequence":8,"times":[701,447,595,541,615,582,618,1001],"next_num":8,"trial_type":"ticket-choose","trial_index":93,"time_elapsed":1128946,"internal_node_id":"0.0-93.0"},{"result":150,"points":3,"place":0,"phase":1,"sequence":9,"times":[1288],"next_num":1,"trial_type":"ticket-choose","trial_index":94,"time_elapsed":1132502,"internal_node_id":"0.0-94.0"},{"result":161,"points":3,"place":0,"phase":1,"sequence":10,"times":[817],"next_num":1,"trial_type":"ticket-choose","trial_index":95,"time_elapsed":1135369,"internal_node_id":"0.0-95.0"},{"result":163,"points":2,"place":1,"phase":1,"sequence":11,"times":[779,590,615,620,641,577,905],"next_num":7,"trial_type":"ticket-choose","trial_index":96,"time_elapsed":1143525,"internal_node_id":"0.0-96.0"},{"result":153,"points":3,"place":0,"phase":1,"sequence":12,"times":[856,545,548,614,788,594,1002,870,696,763],"next_num":10,"trial_type":"ticket-choose","trial_index":97,"time_elapsed":1154627,"internal_node_id":"0.0-97.0"},{"result":154,"points":2,"place":1,"phase":1,"sequence":13,"times":[1423,1279],"next_num":2,"trial_type":"ticket-choose","trial_index":98,"time_elapsed":1159455,"internal_node_id":"0.0-98.0"},{"result":155,"points":2,"place":1,"phase":1,"sequence":14,"times":[774,859],"next_num":2,"trial_type":"ticket-choose","trial_index":99,"time_elapsed":1163237,"internal_node_id":"0.0-99.0"},{"result":156,"points":3,"place":0,"phase":1,"sequence":15,"times":[664,587,585,628,767,601,825,991,748,664],"next_num":10,"trial_type":"ticket-choose","trial_index":100,"time_elapsed":1173986,"internal_node_id":"0.0-100.0"},{"result":156,"points":3,"place":0,"phase":1,"sequence":16,"times":[173813,566,904,638,629,668,667,1540,605,738],"next_num":10,"trial_type":"ticket-choose","trial_index":101,"time_elapsed":1358581,"internal_node_id":"0.0-101.0"},{"result":163,"points":2,"place":1,"phase":1,"sequence":17,"times":[964,571,549,627,671,646,1230],"next_num":7,"trial_type":"ticket-choose","trial_index":102,"time_elapsed":1367476,"internal_node_id":"0.0-102.0"},{"result":161,"points":3,"place":0,"phase":1,"sequence":18,"times":[2555],"next_num":1,"trial_type":"ticket-choose","trial_index":103,"time_elapsed":1372265,"internal_node_id":"0.0-103.0"},{"result":164,"points":3,"place":0,"phase":1,"sequence":19,"times":[699,568,620,614,959,633,572,952],"next_num":8,"trial_type":"ticket-choose","trial_index":104,"time_elapsed":1381409,"internal_node_id":"0.0-104.0"},{"result":157,"points":3,"place":0,"phase":1,"sequence":20,"times":[1531,1255,1050],"next_num":3,"trial_type":"ticket-choose","trial_index":105,"time_elapsed":1387456,"internal_node_id":"0.0-105.0"},{"result":158,"points":2,"place":1,"phase":1,"sequence":21,"times":[816,630,882],"next_num":3,"trial_type":"ticket-choose","trial_index":106,"time_elapsed":1392070,"internal_node_id":"0.0-106.0"},{"result":169,"points":2,"place":1,"phase":1,"sequence":22,"times":[3500,693,1089],"next_num":3,"trial_type":"ticket-choose","trial_index":107,"time_elapsed":1399606,"internal_node_id":"0.0-107.0"},{"result":158,"points":2,"place":1,"phase":1,"sequence":23,"times":[834,650,874,646,591,648,858],"next_num":7,"trial_type":"ticket-choose","trial_index":108,"time_elapsed":1407820,"internal_node_id":"0.0-108.0"},{"result":150,"points":3,"place":0,"phase":1,"sequence":24,"times":[695,1218],"next_num":2,"trial_type":"ticket-choose","trial_index":109,"time_elapsed":1411752,"internal_node_id":"0.0-109.0"},{"result":155,"points":2,"place":1,"phase":1,"sequence":25,"times":[960,799,943],"next_num":3,"trial_type":"ticket-choose","trial_index":110,"time_elapsed":1416678,"internal_node_id":"0.0-110.0"},{"result":143,"points":3,"place":0,"phase":1,"sequence":26,"times":[483,527,557,622,836],"next_num":5,"trial_type":"ticket-choose","trial_index":111,"time_elapsed":1422301,"internal_node_id":"0.0-111.0"},{"result":158,"points":2,"place":1,"phase":1,"sequence":27,"times":[514,574,637,670,649,940,893],"next_num":7,"trial_type":"ticket-choose","trial_index":112,"time_elapsed":1430283,"internal_node_id":"0.0-112.0"},{"result":152,"points":3,"place":0,"phase":1,"sequence":28,"times":[1304],"next_num":1,"trial_type":"ticket-choose","trial_index":113,"time_elapsed":1433375,"internal_node_id":"0.0-113.0"},{"result":158,"points":2,"place":1,"phase":1,"sequence":29,"times":[717,565,807],"next_num":3,"trial_type":"ticket-choose","trial_index":114,"time_elapsed":1437682,"internal_node_id":"0.0-114.0"},{"result":169,"points":1,"place":3,"phase":1,"sequence":30,"times":[552,515,1267],"next_num":3,"trial_type":"ticket-choose","trial_index":115,"time_elapsed":1442139,"internal_node_id":"0.0-115.0"},{"result":158,"points":3,"place":0,"phase":1,"sequence":31,"times":[622,597,697,650,699,951],"next_num":6,"trial_type":"ticket-choose","trial_index":116,"time_elapsed":1449143,"internal_node_id":"0.0-116.0"},{"result":165,"points":3,"place":0,"phase":1,"sequence":32,"times":[9470,545,552,621,1346],"next_num":5,"trial_type":"ticket-choose","trial_index":117,"time_elapsed":1464499,"internal_node_id":"0.0-117.0"},{"result":163,"points":2,"place":1,"phase":1,"sequence":33,"times":[744,549,579,666,697,604,983],"next_num":7,"trial_type":"ticket-choose","trial_index":118,"time_elapsed":1472465,"internal_node_id":"0.0-118.0"},{"result":159,"points":1,"place":2,"phase":1,"sequence":34,"times":[681,870],"next_num":2,"trial_type":"ticket-choose","trial_index":119,"time_elapsed":1475963,"internal_node_id":"0.0-119.0"},{"result":153,"points":3,"place":0,"phase":1,"sequence":35,"times":[709,539,499,541,565,569,634,860,638,577],"next_num":10,"trial_type":"ticket-choose","trial_index":120,"time_elapsed":1485804,"internal_node_id":"0.0-120.0"},{"result":159,"points":3,"place":0,"phase":1,"sequence":36,"times":[823],"next_num":1,"trial_type":"ticket-choose","trial_index":121,"time_elapsed":1488788,"internal_node_id":"0.0-121.0"},{"result":185,"points":1,"place":4,"phase":1,"sequence":37,"times":[743,530,620,578,561,625,579,610,522,896],"next_num":10,"trial_type":"ticket-choose","trial_index":122,"time_elapsed":1499023,"internal_node_id":"0.0-122.0"},{"result":152,"points":3,"place":0,"phase":1,"sequence":38,"times":[810,525,597,1559],"next_num":4,"trial_type":"ticket-choose","trial_index":123,"time_elapsed":1504979,"internal_node_id":"0.0-123.0"},{"result":163,"points":2,"place":1,"phase":1,"sequence":39,"times":[790,460,833],"next_num":3,"trial_type":"ticket-choose","trial_index":124,"time_elapsed":1509305,"internal_node_id":"0.0-124.0"},{"result":167,"points":2,"place":1,"phase":1,"sequence":40,"times":[671,630,895],"next_num":3,"trial_type":"ticket-choose","trial_index":125,"time_elapsed":1513672,"internal_node_id":"0.0-125.0"},{"result":163,"points":2,"place":1,"phase":1,"sequence":41,"times":[594,591,612,596,781,614,909],"next_num":7,"trial_type":"ticket-choose","trial_index":126,"time_elapsed":1521352,"internal_node_id":"0.0-126.0"},{"result":186,"points":1,"place":4,"phase":1,"sequence":42,"times":[1368,336,572,556,574,692,598,638,714,775],"next_num":10,"trial_type":"ticket-choose","trial_index":127,"time_elapsed":1531971,"internal_node_id":"0.0-127.0"},{"result":163,"points":2,"place":1,"phase":1,"sequence":43,"times":[693,578,902],"next_num":3,"trial_type":"ticket-choose","trial_index":128,"time_elapsed":1536303,"internal_node_id":"0.0-128.0"},{"result":156,"points":3,"place":0,"phase":1,"sequence":44,"times":[641,607,559,574,593,609,1333,362,711,621],"next_num":10,"trial_type":"ticket-choose","trial_index":129,"time_elapsed":1546651,"internal_node_id":"0.0-129.0"},{"result":154,"points":3,"place":0,"phase":1,"sequence":45,"times":[956,481,539,650,532,510,503,539,960,647],"next_num":10,"trial_type":"ticket-choose","trial_index":130,"time_elapsed":1556743,"internal_node_id":"0.0-130.0"},{"result":154,"points":3,"place":0,"phase":1,"sequence":46,"times":[1921,2630,477,515,629,674,643,883],"next_num":8,"trial_type":"ticket-choose","trial_index":131,"time_elapsed":1568573,"internal_node_id":"0.0-131.0"},{"result":148,"points":3,"place":0,"phase":1,"sequence":47,"times":[843],"next_num":1,"trial_type":"ticket-choose","trial_index":132,"time_elapsed":1571332,"internal_node_id":"0.0-132.0"},{"result":167,"points":2,"place":1,"phase":1,"sequence":48,"times":[994,667,866],"next_num":3,"trial_type":"ticket-choose","trial_index":133,"time_elapsed":1576107,"internal_node_id":"0.0-133.0"},{"result":153,"points":3,"place":0,"phase":1,"sequence":49,"times":[711,677,615,581,605,624,671,686,566,619],"next_num":10,"trial_type":"ticket-choose","trial_index":134,"time_elapsed":1586730,"internal_node_id":"0.0-134.0"},{"responses":[{"value":1,"offby":1,"category":"$106 - $134","category_index":0},{"value":1,"offby":0,"category":"$135 - $150","category_index":1},{"value":2,"offby":-1,"category":"$151 - $165","category_index":2},{"value":6,"offby":0,"category":"$166 - $180","category_index":3},{"value":5,"offby":-1,"category":"$181 - $195","category_index":4},{"value":3,"offby":0,"category":"$196 - $210","category_index":5},{"value":2,"offby":1,"category":"$211 - $225","category_index":6}],"phase":1,"number":1,"trial_type":"bar-choose","trial_index":135,"time_elapsed":1608476,"internal_node_id":"0.0-135.0"},{"special_comment":"no","trial_type":"special_sequence","trial_index":136,"time_elapsed":1614167,"internal_node_id":"0.0-136.0"},{"during":"Nothing","bonus":308,"trial_type":"final","trial_index":137,"time_elapsed":1696898,"internal_node_id":"0.0-137.0"}],"bonus":308}