{"start_time":"2017-01-26 12:04:10","end_time":"2017-01-26 12:29:49","points_phase0":110,"points_phase1":110,"phase_order":1,"age":28,"gender":"m","tries":1,"during":"Nothing","worker_id":"A2SVNXNMD7E7EH","assignment_id":"3C44YUNSI2IQVJFMVXGCSX1JGQSPDU","data":[{"rt":7691,"url":"\/tickets\/utils\/consent.html","trial_type":"html","trial_index":0,"time_elapsed":7813,"internal_node_id":"0.0-0.0"},{"age":28,"gender":"m","trial_type":"age","trial_index":1,"time_elapsed":12787,"internal_node_id":"0.0-1.0"},{"worker_id":"A2SVNXNMD7E7EH","trial_type":"workerid","trial_index":2,"time_elapsed":34383,"internal_node_id":"0.0-2.0"},{"tries":1,"trial_type":"instructions_check","trial_index":3,"time_elapsed":61661,"internal_node_id":"0.0-3.0"},{"rt":28995,"url":"\/tickets\/utils\/start.html","trial_type":"html","trial_index":4,"time_elapsed":91815,"internal_node_id":"0.0-4.0"},{"trial_type":"number-animation","trial_index":5,"time_elapsed":139100,"internal_node_id":"0.0-5.0"},{"phase":0,"sequence":0,"avg":184,"response":186,"trial_type":"training_avg","trial_index":6,"time_elapsed":162486,"internal_node_id":"0.0-6.0"},{"trial_type":"number-animation","trial_index":7,"time_elapsed":208657,"internal_node_id":"0.0-7.0"},{"phase":0,"sequence":1,"avg":199,"response":192,"trial_type":"training_avg","trial_index":8,"time_elapsed":219380,"internal_node_id":"0.0-8.0"},{"trial_type":"number-animation","trial_index":9,"time_elapsed":237048,"internal_node_id":"0.0-9.0"},{"phase":0,"sequence":2,"avg":199,"response":208,"trial_type":"training_avg","trial_index":10,"time_elapsed":244955,"internal_node_id":"0.0-10.0"},{"trial_type":"number-animation","trial_index":11,"time_elapsed":280530,"internal_node_id":"0.0-11.0"},{"phase":0,"sequence":3,"avg":210,"response":198,"trial_type":"training_avg","trial_index":12,"time_elapsed":291857,"internal_node_id":"0.0-12.0"},{"trial_type":"number-animation","trial_index":13,"time_elapsed":304125,"internal_node_id":"0.0-13.0"},{"phase":0,"sequence":4,"avg":202,"response":198,"trial_type":"training_avg","trial_index":14,"time_elapsed":316570,"internal_node_id":"0.0-14.0"},{"responses":[{"value":1,"offby":0,"category":"$105 - $130","category_index":0},{"value":1,"offby":-1,"category":"$131 - $155","category_index":1},{"value":3,"offby":1,"category":"$156 - $180","category_index":2},{"value":6,"offby":1,"category":"$181 - $205","category_index":3},{"value":6,"offby":1,"category":"$206 - $230","category_index":4},{"value":2,"offby":-1,"category":"$231 - $255","category_index":5},{"value":1,"offby":-1,"category":"$256 - $280","category_index":6}],"phase":0,"number":0,"trial_type":"bar-choose","trial_index":15,"time_elapsed":421660,"internal_node_id":"0.0-15.0"},{"rt":51738,"url":"\/tickets\/\/utils\/testing.html","trial_type":"html","trial_index":16,"time_elapsed":474705,"internal_node_id":"0.0-16.0"},{"phase":0,"order":[38,43,33,24,19,35,45,11,1,46,18,0,13,3,44,17,2,49,16,7,42,28,20,14,9,22,21,4,37,29,32,15,23,12,34,41,27,48,31,5,8,39,25,26,6,40,47,36,30,10],"trial_type":"store_order","trial_index":17,"time_elapsed":475710,"internal_node_id":"0.0-17.0"},{"result":165,"points":2,"place":1,"phase":0,"sequence":-1,"times":[2770,868,666,953],"next_num":4,"trial_type":"ticket-choose","trial_index":18,"time_elapsed":484907,"internal_node_id":"0.0-18.0"},{"rt":19936,"url":"\/tickets\/utils\/testing_after.html","trial_type":"html","trial_index":19,"time_elapsed":505990,"internal_node_id":"0.0-19.0"},{"result":208,"points":1,"place":4,"phase":0,"sequence":0,"times":[1781,979,848,1059,659,702,531,484,589,3120],"next_num":10,"trial_type":"ticket-choose","trial_index":20,"time_elapsed":521726,"internal_node_id":"0.0-20.0"},{"result":151,"points":3,"place":0,"phase":0,"sequence":1,"times":[1935,1055],"next_num":2,"trial_type":"ticket-choose","trial_index":21,"time_elapsed":528665,"internal_node_id":"0.0-21.0"},{"result":175,"points":1,"place":2,"phase":0,"sequence":2,"times":[1364,783,1613,423,442,447,1093],"next_num":7,"trial_type":"ticket-choose","trial_index":22,"time_elapsed":539344,"internal_node_id":"0.0-22.0"},{"result":151,"points":2,"place":1,"phase":0,"sequence":3,"times":[781,447,936],"next_num":3,"trial_type":"ticket-choose","trial_index":23,"time_elapsed":546126,"internal_node_id":"0.0-23.0"},{"result":182,"points":2,"place":1,"phase":0,"sequence":4,"times":[690,394,435,402,450,445,1430],"next_num":7,"trial_type":"ticket-choose","trial_index":24,"time_elapsed":553904,"internal_node_id":"0.0-24.0"},{"result":140,"points":2,"place":1,"phase":0,"sequence":5,"times":[650,443,369,439,1192,2026,2706],"next_num":7,"trial_type":"ticket-choose","trial_index":25,"time_elapsed":566471,"internal_node_id":"0.0-25.0"},{"result":170,"points":2,"place":1,"phase":0,"sequence":6,"times":[420,388,417,439,432,433,869],"next_num":7,"trial_type":"ticket-choose","trial_index":26,"time_elapsed":573334,"internal_node_id":"0.0-26.0"},{"result":148,"points":3,"place":0,"phase":0,"sequence":7,"times":[453,393,330,431,600,508,1028,895],"next_num":8,"trial_type":"ticket-choose","trial_index":27,"time_elapsed":586116,"internal_node_id":"0.0-27.0"},{"result":166,"points":1,"place":2,"phase":0,"sequence":8,"times":[7446,898],"next_num":2,"trial_type":"ticket-choose","trial_index":28,"time_elapsed":597483,"internal_node_id":"0.0-28.0"},{"result":153,"points":3,"place":0,"phase":0,"sequence":9,"times":[1171],"next_num":1,"trial_type":"ticket-choose","trial_index":29,"time_elapsed":601445,"internal_node_id":"0.0-29.0"},{"result":135,"points":3,"place":0,"phase":0,"sequence":10,"times":[942,439,821,1109],"next_num":4,"trial_type":"ticket-choose","trial_index":30,"time_elapsed":608020,"internal_node_id":"0.0-30.0"},{"result":134,"points":3,"place":0,"phase":0,"sequence":11,"times":[494,409,493,486,452,502,1745,558,562,699],"next_num":10,"trial_type":"ticket-choose","trial_index":31,"time_elapsed":618856,"internal_node_id":"0.0-31.0"},{"result":126,"points":3,"place":0,"phase":0,"sequence":12,"times":[1264,419,373,753,732,565,1022,632,570,753],"next_num":10,"trial_type":"ticket-choose","trial_index":32,"time_elapsed":630926,"internal_node_id":"0.0-32.0"},{"result":156,"points":3,"place":0,"phase":0,"sequence":13,"times":[581,862,683,618,537,1055],"next_num":6,"trial_type":"ticket-choose","trial_index":33,"time_elapsed":638881,"internal_node_id":"0.0-33.0"},{"result":158,"points":1,"place":2,"phase":0,"sequence":14,"times":[517,1244],"next_num":2,"trial_type":"ticket-choose","trial_index":34,"time_elapsed":643013,"internal_node_id":"0.0-34.0"},{"result":157,"points":2,"place":1,"phase":0,"sequence":15,"times":[413,540,958],"next_num":3,"trial_type":"ticket-choose","trial_index":35,"time_elapsed":647308,"internal_node_id":"0.0-35.0"},{"result":148,"points":2,"place":1,"phase":0,"sequence":16,"times":[444,520,833],"next_num":3,"trial_type":"ticket-choose","trial_index":36,"time_elapsed":651598,"internal_node_id":"0.0-36.0"},{"result":144,"points":3,"place":0,"phase":0,"sequence":17,"times":[3333,491,689,967],"next_num":4,"trial_type":"ticket-choose","trial_index":37,"time_elapsed":659860,"internal_node_id":"0.0-37.0"},{"result":145,"points":3,"place":0,"phase":0,"sequence":18,"times":[1076],"next_num":1,"trial_type":"ticket-choose","trial_index":38,"time_elapsed":662894,"internal_node_id":"0.0-38.0"},{"result":150,"points":3,"place":0,"phase":0,"sequence":19,"times":[883,494,425,448,429,433,544,544,615,1058],"next_num":10,"trial_type":"ticket-choose","trial_index":39,"time_elapsed":672720,"internal_node_id":"0.0-39.0"},{"result":145,"points":3,"place":0,"phase":0,"sequence":20,"times":[1334,471,1037,793,473,889,745],"next_num":7,"trial_type":"ticket-choose","trial_index":40,"time_elapsed":682790,"internal_node_id":"0.0-40.0"},{"result":156,"points":3,"place":0,"phase":0,"sequence":21,"times":[1346,692,806,640,1220,1847,3223,655,875],"next_num":9,"trial_type":"ticket-choose","trial_index":41,"time_elapsed":698761,"internal_node_id":"0.0-41.0"},{"result":158,"points":3,"place":0,"phase":0,"sequence":22,"times":[2475],"next_num":1,"trial_type":"ticket-choose","trial_index":42,"time_elapsed":703919,"internal_node_id":"0.0-42.0"},{"result":183,"points":1,"place":2,"phase":0,"sequence":23,"times":[979,515,520,493,475,560,878,1182],"next_num":8,"trial_type":"ticket-choose","trial_index":43,"time_elapsed":713176,"internal_node_id":"0.0-43.0"},{"result":155,"points":3,"place":0,"phase":0,"sequence":24,"times":[701,573,926],"next_num":3,"trial_type":"ticket-choose","trial_index":44,"time_elapsed":717834,"internal_node_id":"0.0-44.0"},{"result":217,"points":1,"place":4,"phase":0,"sequence":25,"times":[397,502,489,599,537,514,883,840,489,1187],"next_num":10,"trial_type":"ticket-choose","trial_index":45,"time_elapsed":728565,"internal_node_id":"0.0-45.0"},{"result":176,"points":1,"place":2,"phase":0,"sequence":26,"times":[2444,572,845,559,562,467,492,994],"next_num":8,"trial_type":"ticket-choose","trial_index":46,"time_elapsed":739049,"internal_node_id":"0.0-46.0"},{"result":140,"points":3,"place":0,"phase":0,"sequence":27,"times":[575,1015],"next_num":2,"trial_type":"ticket-choose","trial_index":47,"time_elapsed":743081,"internal_node_id":"0.0-47.0"},{"result":150,"points":3,"place":0,"phase":0,"sequence":28,"times":[1149,745,589,708,419,580,562,483,605,909],"next_num":10,"trial_type":"ticket-choose","trial_index":48,"time_elapsed":754317,"internal_node_id":"0.0-48.0"},{"result":240,"points":0,"place":5,"phase":0,"sequence":29,"times":[6700,623,244,581,551,452,514,548,534,1145],"next_num":10,"trial_type":"ticket-choose","trial_index":49,"time_elapsed":770568,"internal_node_id":"0.0-49.0"},{"result":149,"points":2,"place":1,"phase":0,"sequence":30,"times":[1023,1231],"next_num":2,"trial_type":"ticket-choose","trial_index":50,"time_elapsed":775025,"internal_node_id":"0.0-50.0"},{"result":148,"points":3,"place":0,"phase":0,"sequence":31,"times":[468,562,775,542,667,592,592,1120,424,668],"next_num":10,"trial_type":"ticket-choose","trial_index":51,"time_elapsed":785653,"internal_node_id":"0.0-51.0"},{"result":167,"points":3,"place":0,"phase":0,"sequence":32,"times":[478,718,458,809,800,583,582,844],"next_num":8,"trial_type":"ticket-choose","trial_index":52,"time_elapsed":796455,"internal_node_id":"0.0-52.0"},{"result":141,"points":3,"place":0,"phase":0,"sequence":33,"times":[1421],"next_num":1,"trial_type":"ticket-choose","trial_index":53,"time_elapsed":800028,"internal_node_id":"0.0-53.0"},{"result":137,"points":3,"place":0,"phase":0,"sequence":34,"times":[950],"next_num":1,"trial_type":"ticket-choose","trial_index":54,"time_elapsed":803062,"internal_node_id":"0.0-54.0"},{"result":116,"points":3,"place":0,"phase":0,"sequence":35,"times":[540,809,851,380,395,1030],"next_num":6,"trial_type":"ticket-choose","trial_index":55,"time_elapsed":809930,"internal_node_id":"0.0-55.0"},{"result":142,"points":3,"place":0,"phase":0,"sequence":36,"times":[1155,1011,3887,483,491,426,418,507,837,674],"next_num":10,"trial_type":"ticket-choose","trial_index":56,"time_elapsed":823610,"internal_node_id":"0.0-56.0"},{"result":210,"points":1,"place":4,"phase":0,"sequence":37,"times":[1388,429,401,603,455,395,556,529,492,1085],"next_num":10,"trial_type":"ticket-choose","trial_index":57,"time_elapsed":833966,"internal_node_id":"0.0-57.0"},{"result":205,"points":0,"place":6,"phase":0,"sequence":38,"times":[769,1250,474,582,1345,659,555,510,797],"next_num":9,"trial_type":"ticket-choose","trial_index":58,"time_elapsed":845219,"internal_node_id":"0.0-58.0"},{"result":175,"points":2,"place":1,"phase":0,"sequence":39,"times":[571,497,546,601,1429],"next_num":5,"trial_type":"ticket-choose","trial_index":59,"time_elapsed":852219,"internal_node_id":"0.0-59.0"},{"result":175,"points":2,"place":1,"phase":0,"sequence":40,"times":[830,454,439,541,527,632,1082],"next_num":7,"trial_type":"ticket-choose","trial_index":60,"time_elapsed":859945,"internal_node_id":"0.0-60.0"},{"result":148,"points":2,"place":1,"phase":0,"sequence":41,"times":[660,474,399,459,409,399,1350],"next_num":7,"trial_type":"ticket-choose","trial_index":61,"time_elapsed":867702,"internal_node_id":"0.0-61.0"},{"result":154,"points":3,"place":0,"phase":0,"sequence":42,"times":[7990],"next_num":1,"trial_type":"ticket-choose","trial_index":62,"time_elapsed":876970,"internal_node_id":"0.0-62.0"},{"result":174,"points":1,"place":3,"phase":0,"sequence":43,"times":[2132,461,894],"next_num":3,"trial_type":"ticket-choose","trial_index":63,"time_elapsed":882998,"internal_node_id":"0.0-63.0"},{"result":165,"points":1,"place":2,"phase":0,"sequence":44,"times":[1090],"next_num":1,"trial_type":"ticket-choose","trial_index":64,"time_elapsed":886299,"internal_node_id":"0.0-64.0"},{"result":147,"points":3,"place":0,"phase":0,"sequence":45,"times":[842,358,288,435,344,473,782,480,150],"next_num":9,"trial_type":"ticket-choose","trial_index":65,"time_elapsed":894631,"internal_node_id":"0.0-65.0"},{"result":184,"points":1,"place":2,"phase":0,"sequence":46,"times":[1055,422,1470,472,496,434,832],"next_num":7,"trial_type":"ticket-choose","trial_index":66,"time_elapsed":903227,"internal_node_id":"0.0-66.0"},{"result":126,"points":3,"place":0,"phase":0,"sequence":47,"times":[396,1157,482,446,1029],"next_num":5,"trial_type":"ticket-choose","trial_index":67,"time_elapsed":909471,"internal_node_id":"0.0-67.0"},{"result":205,"points":1,"place":4,"phase":0,"sequence":48,"times":[598],"next_num":1,"trial_type":"ticket-choose","trial_index":68,"time_elapsed":912158,"internal_node_id":"0.0-68.0"},{"result":137,"points":3,"place":0,"phase":0,"sequence":49,"times":[402,379,840],"next_num":3,"trial_type":"ticket-choose","trial_index":69,"time_elapsed":916377,"internal_node_id":"0.0-69.0"},{"responses":[{"value":1,"offby":0,"category":"$105 - $130","category_index":0},{"value":2,"offby":0,"category":"$131 - $155","category_index":1},{"value":3,"offby":1,"category":"$156 - $180","category_index":2},{"value":4,"offby":-1,"category":"$181 - $205","category_index":3},{"value":5,"offby":0,"category":"$206 - $230","category_index":4},{"value":4,"offby":1,"category":"$231 - $255","category_index":5},{"value":1,"offby":-1,"category":"$256 - $280","category_index":6}],"phase":0,"number":1,"trial_type":"bar-choose","trial_index":70,"time_elapsed":959779,"internal_node_id":"0.0-70.0"},{"rt":11831,"url":"\/tickets\/utils\/start2.html","trial_type":"html","trial_index":71,"time_elapsed":972744,"internal_node_id":"0.0-71.0"},{"trial_type":"number-animation","trial_index":72,"time_elapsed":986017,"internal_node_id":"0.0-72.0"},{"phase":1,"sequence":0,"avg":181,"response":178,"trial_type":"training_avg","trial_index":73,"time_elapsed":993102,"internal_node_id":"0.0-73.0"},{"trial_type":"number-animation","trial_index":74,"time_elapsed":1006793,"internal_node_id":"0.0-74.0"},{"phase":1,"sequence":1,"avg":188,"response":184,"trial_type":"training_avg","trial_index":75,"time_elapsed":1012857,"internal_node_id":"0.0-75.0"},{"trial_type":"number-animation","trial_index":76,"time_elapsed":1035250,"internal_node_id":"0.0-76.0"},{"phase":1,"sequence":2,"avg":188,"response":194,"trial_type":"training_avg","trial_index":77,"time_elapsed":1042134,"internal_node_id":"0.0-77.0"},{"trial_type":"number-animation","trial_index":78,"time_elapsed":1054027,"internal_node_id":"0.0-78.0"},{"phase":1,"sequence":3,"avg":177,"response":179,"trial_type":"training_avg","trial_index":79,"time_elapsed":1059067,"internal_node_id":"0.0-79.0"},{"trial_type":"number-animation","trial_index":80,"time_elapsed":1072573,"internal_node_id":"0.0-80.0"},{"phase":1,"sequence":4,"avg":182,"response":180,"trial_type":"training_avg","trial_index":81,"time_elapsed":1077637,"internal_node_id":"0.0-81.0"},{"responses":[{"value":1,"offby":1,"category":"$106 - $134","category_index":0},{"value":2,"offby":1,"category":"$135 - $150","category_index":1},{"value":2,"offby":-1,"category":"$151 - $165","category_index":2},{"value":7,"offby":1,"category":"$166 - $180","category_index":3},{"value":5,"offby":-1,"category":"$181 - $195","category_index":4},{"value":2,"offby":-1,"category":"$196 - $210","category_index":5},{"value":1,"offby":0,"category":"$211 - $225","category_index":6}],"phase":1,"number":0,"trial_type":"bar-choose","trial_index":82,"time_elapsed":1108675,"internal_node_id":"0.0-82.0"},{"rt":5378,"url":"\/tickets\/utils\/testing2.html","trial_type":"html","trial_index":83,"time_elapsed":1115181,"internal_node_id":"0.0-83.0"},{"phase":1,"order":[20,33,9,41,14,17,18,36,49,21,48,8,5,46,44,0,3,47,22,6,37,19,29,12,43,28,15,40,7,32,35,1,38,25,27,30,4,24,39,45,11,13,26,16,31,10,23,42,2,34],"trial_type":"store_order","trial_index":84,"time_elapsed":1116184,"internal_node_id":"0.0-84.0"},{"result":163,"points":3,"place":0,"phase":1,"sequence":0,"times":[2995,455,465,434,554,581,512,907],"next_num":8,"trial_type":"ticket-choose","trial_index":85,"time_elapsed":1126777,"internal_node_id":"0.0-85.0"},{"result":157,"points":3,"place":0,"phase":1,"sequence":1,"times":[488,439,1235],"next_num":3,"trial_type":"ticket-choose","trial_index":86,"time_elapsed":1131244,"internal_node_id":"0.0-86.0"},{"result":155,"points":3,"place":0,"phase":1,"sequence":2,"times":[398,752],"next_num":2,"trial_type":"ticket-choose","trial_index":87,"time_elapsed":1134603,"internal_node_id":"0.0-87.0"},{"result":185,"points":1,"place":4,"phase":1,"sequence":3,"times":[761,473,433,452,729,472,412,527,488,880],"next_num":10,"trial_type":"ticket-choose","trial_index":88,"time_elapsed":1144041,"internal_node_id":"0.0-88.0"},{"result":175,"points":2,"place":1,"phase":1,"sequence":4,"times":[642,520,515,469,619,589,777],"next_num":7,"trial_type":"ticket-choose","trial_index":89,"time_elapsed":1151434,"internal_node_id":"0.0-89.0"},{"result":168,"points":1,"place":2,"phase":1,"sequence":5,"times":[1475],"next_num":1,"trial_type":"ticket-choose","trial_index":90,"time_elapsed":1155411,"internal_node_id":"0.0-90.0"},{"result":167,"points":2,"place":1,"phase":1,"sequence":6,"times":[617,791,527,308,868],"next_num":5,"trial_type":"ticket-choose","trial_index":91,"time_elapsed":1161289,"internal_node_id":"0.0-91.0"},{"result":174,"points":1,"place":3,"phase":1,"sequence":7,"times":[824,295,894],"next_num":3,"trial_type":"ticket-choose","trial_index":92,"time_elapsed":1165809,"internal_node_id":"0.0-92.0"},{"result":166,"points":1,"place":3,"phase":1,"sequence":8,"times":[399,344,409,386,671,428,436,1063],"next_num":8,"trial_type":"ticket-choose","trial_index":93,"time_elapsed":1173208,"internal_node_id":"0.0-93.0"},{"result":158,"points":3,"place":0,"phase":1,"sequence":9,"times":[431,485,463,430,489,761],"next_num":6,"trial_type":"ticket-choose","trial_index":94,"time_elapsed":1195688,"internal_node_id":"0.0-94.0"},{"result":186,"points":1,"place":4,"phase":1,"sequence":10,"times":[1584],"next_num":1,"trial_type":"ticket-choose","trial_index":95,"time_elapsed":1199592,"internal_node_id":"0.0-95.0"},{"result":146,"points":3,"place":0,"phase":1,"sequence":11,"times":[720,432,331,442,327,336,445,424,469,656],"next_num":10,"trial_type":"ticket-choose","trial_index":96,"time_elapsed":1207899,"internal_node_id":"0.0-96.0"},{"result":150,"points":3,"place":0,"phase":1,"sequence":12,"times":[813,426,820,450,470,513,407,366,760],"next_num":9,"trial_type":"ticket-choose","trial_index":97,"time_elapsed":1216255,"internal_node_id":"0.0-97.0"},{"result":154,"points":2,"place":1,"phase":1,"sequence":13,"times":[520,298,714],"next_num":3,"trial_type":"ticket-choose","trial_index":98,"time_elapsed":1220007,"internal_node_id":"0.0-98.0"},{"result":141,"points":3,"place":0,"phase":1,"sequence":14,"times":[482,286,422,510,646,784],"next_num":6,"trial_type":"ticket-choose","trial_index":99,"time_elapsed":1226025,"internal_node_id":"0.0-99.0"},{"result":150,"points":2,"place":1,"phase":1,"sequence":15,"times":[530,276,517,552,506,484,720],"next_num":7,"trial_type":"ticket-choose","trial_index":100,"time_elapsed":1232718,"internal_node_id":"0.0-100.0"},{"result":153,"points":3,"place":0,"phase":1,"sequence":16,"times":[357,355,407,504,640,522,543,554,784,549],"next_num":10,"trial_type":"ticket-choose","trial_index":101,"time_elapsed":1241647,"internal_node_id":"0.0-101.0"},{"result":148,"points":3,"place":0,"phase":1,"sequence":17,"times":[564,374,713,418,552,847],"next_num":6,"trial_type":"ticket-choose","trial_index":102,"time_elapsed":1247763,"internal_node_id":"0.0-102.0"},{"result":145,"points":3,"place":0,"phase":1,"sequence":18,"times":[420,319,354,526,521,498,506,1190,629],"next_num":9,"trial_type":"ticket-choose","trial_index":103,"time_elapsed":1256022,"internal_node_id":"0.0-103.0"},{"result":155,"points":3,"place":0,"phase":1,"sequence":19,"times":[328,387,301,772,439,526,598,466,442,527],"next_num":10,"trial_type":"ticket-choose","trial_index":104,"time_elapsed":1264228,"internal_node_id":"0.0-104.0"},{"result":143,"points":3,"place":0,"phase":1,"sequence":20,"times":[710,595,600,618,822],"next_num":5,"trial_type":"ticket-choose","trial_index":105,"time_elapsed":1270284,"internal_node_id":"0.0-105.0"},{"result":188,"points":1,"place":4,"phase":1,"sequence":21,"times":[627,487,520,2617,524,487,674,496,500,908],"next_num":10,"trial_type":"ticket-choose","trial_index":106,"time_elapsed":1282376,"internal_node_id":"0.0-106.0"},{"result":184,"points":1,"place":4,"phase":1,"sequence":22,"times":[531,402,386,1074,467,689,504,562,463,1026],"next_num":10,"trial_type":"ticket-choose","trial_index":107,"time_elapsed":1293261,"internal_node_id":"0.0-107.0"},{"result":171,"points":2,"place":1,"phase":1,"sequence":23,"times":[705,406,506,495,604,527,1011],"next_num":7,"trial_type":"ticket-choose","trial_index":108,"time_elapsed":1300427,"internal_node_id":"0.0-108.0"},{"result":167,"points":1,"place":2,"phase":1,"sequence":24,"times":[480,424,408,572,474,479,1115],"next_num":7,"trial_type":"ticket-choose","trial_index":109,"time_elapsed":1307250,"internal_node_id":"0.0-109.0"},{"result":180,"points":1,"place":4,"phase":1,"sequence":25,"times":[381,426,346,390,443,510,366,707,561,948],"next_num":10,"trial_type":"ticket-choose","trial_index":110,"time_elapsed":1316240,"internal_node_id":"0.0-110.0"},{"result":179,"points":1,"place":4,"phase":1,"sequence":26,"times":[1027,734,747,508,424,450,453,735,485,1054],"next_num":10,"trial_type":"ticket-choose","trial_index":111,"time_elapsed":1326731,"internal_node_id":"0.0-111.0"},{"result":140,"points":3,"place":0,"phase":1,"sequence":27,"times":[582,478,461,617,455,715,789,436,544,606],"next_num":10,"trial_type":"ticket-choose","trial_index":112,"time_elapsed":1336007,"internal_node_id":"0.0-112.0"},{"result":163,"points":2,"place":1,"phase":1,"sequence":28,"times":[420,334,474,1213],"next_num":4,"trial_type":"ticket-choose","trial_index":113,"time_elapsed":1340853,"internal_node_id":"0.0-113.0"},{"result":170,"points":1,"place":4,"phase":1,"sequence":29,"times":[337,367,411,445,604,511,441,465,430,637],"next_num":10,"trial_type":"ticket-choose","trial_index":114,"time_elapsed":1349040,"internal_node_id":"0.0-114.0"},{"result":146,"points":3,"place":0,"phase":1,"sequence":30,"times":[676,548,1020],"next_num":3,"trial_type":"ticket-choose","trial_index":115,"time_elapsed":1353538,"internal_node_id":"0.0-115.0"},{"result":166,"points":2,"place":1,"phase":1,"sequence":31,"times":[473,470,441,440,683,1410,926],"next_num":7,"trial_type":"ticket-choose","trial_index":116,"time_elapsed":1361544,"internal_node_id":"0.0-116.0"},{"result":168,"points":3,"place":0,"phase":1,"sequence":32,"times":[1321],"next_num":1,"trial_type":"ticket-choose","trial_index":117,"time_elapsed":1364858,"internal_node_id":"0.0-117.0"},{"result":171,"points":1,"place":2,"phase":1,"sequence":33,"times":[643,345,745,460,509,499,556,1028],"next_num":8,"trial_type":"ticket-choose","trial_index":118,"time_elapsed":1373034,"internal_node_id":"0.0-118.0"},{"result":155,"points":2,"place":1,"phase":1,"sequence":34,"times":[812,871],"next_num":2,"trial_type":"ticket-choose","trial_index":119,"time_elapsed":1376790,"internal_node_id":"0.0-119.0"},{"result":155,"points":2,"place":1,"phase":1,"sequence":35,"times":[660,349,937],"next_num":3,"trial_type":"ticket-choose","trial_index":120,"time_elapsed":1380898,"internal_node_id":"0.0-120.0"},{"result":148,"points":3,"place":0,"phase":1,"sequence":36,"times":[762],"next_num":1,"trial_type":"ticket-choose","trial_index":121,"time_elapsed":1383441,"internal_node_id":"0.0-121.0"},{"result":147,"points":3,"place":0,"phase":1,"sequence":37,"times":[549,417,654,904],"next_num":4,"trial_type":"ticket-choose","trial_index":122,"time_elapsed":1388404,"internal_node_id":"0.0-122.0"},{"result":160,"points":2,"place":1,"phase":1,"sequence":38,"times":[592,425,374,380,450,704],"next_num":6,"trial_type":"ticket-choose","trial_index":123,"time_elapsed":1394020,"internal_node_id":"0.0-123.0"},{"result":143,"points":3,"place":0,"phase":1,"sequence":39,"times":[1447,402,423,522,569,424,485,537,499,729],"next_num":10,"trial_type":"ticket-choose","trial_index":124,"time_elapsed":1403722,"internal_node_id":"0.0-124.0"},{"result":174,"points":1,"place":2,"phase":1,"sequence":40,"times":[741,414,872,570,557,557,1147],"next_num":7,"trial_type":"ticket-choose","trial_index":125,"time_elapsed":1411562,"internal_node_id":"0.0-125.0"},{"result":167,"points":2,"place":1,"phase":1,"sequence":41,"times":[775,781],"next_num":2,"trial_type":"ticket-choose","trial_index":126,"time_elapsed":1415119,"internal_node_id":"0.0-126.0"},{"result":150,"points":3,"place":0,"phase":1,"sequence":42,"times":[754],"next_num":1,"trial_type":"ticket-choose","trial_index":127,"time_elapsed":1417750,"internal_node_id":"0.0-127.0"},{"result":157,"points":3,"place":0,"phase":1,"sequence":43,"times":[823],"next_num":1,"trial_type":"ticket-choose","trial_index":128,"time_elapsed":1420582,"internal_node_id":"0.0-128.0"},{"result":155,"points":3,"place":0,"phase":1,"sequence":44,"times":[798,425,442,551,474,516,603,856,458,664],"next_num":10,"trial_type":"ticket-choose","trial_index":129,"time_elapsed":1429884,"internal_node_id":"0.0-129.0"},{"result":150,"points":3,"place":0,"phase":1,"sequence":45,"times":[673,1380],"next_num":2,"trial_type":"ticket-choose","trial_index":130,"time_elapsed":1433738,"internal_node_id":"0.0-130.0"},{"result":152,"points":3,"place":0,"phase":1,"sequence":46,"times":[528,429,479,746],"next_num":4,"trial_type":"ticket-choose","trial_index":131,"time_elapsed":1438191,"internal_node_id":"0.0-131.0"},{"result":165,"points":2,"place":1,"phase":1,"sequence":47,"times":[622,307,793],"next_num":3,"trial_type":"ticket-choose","trial_index":132,"time_elapsed":1442038,"internal_node_id":"0.0-132.0"},{"result":138,"points":3,"place":0,"phase":1,"sequence":48,"times":[621,500,809,502,561,940],"next_num":6,"trial_type":"ticket-choose","trial_index":133,"time_elapsed":1448774,"internal_node_id":"0.0-133.0"},{"result":161,"points":1,"place":3,"phase":1,"sequence":49,"times":[454,442,882],"next_num":3,"trial_type":"ticket-choose","trial_index":134,"time_elapsed":1453446,"internal_node_id":"0.0-134.0"},{"responses":[{"value":1,"offby":1,"category":"$106 - $134","category_index":0},{"value":2,"offby":1,"category":"$135 - $150","category_index":1},{"value":3,"offby":0,"category":"$151 - $165","category_index":2},{"value":4,"offby":-2,"category":"$166 - $180","category_index":3},{"value":5,"offby":-1,"category":"$181 - $195","category_index":4},{"value":3,"offby":0,"category":"$196 - $210","category_index":5},{"value":2,"offby":1,"category":"$211 - $225","category_index":6}],"phase":1,"number":1,"trial_type":"bar-choose","trial_index":135,"time_elapsed":1488251,"internal_node_id":"0.0-135.0"},{"during":"Nothing","bonus":292,"trial_type":"final","trial_index":136,"time_elapsed":1535720,"internal_node_id":"0.0-136.0"}],"bonus":292}