{"start_time":"2017-02-21 11:51:30","end_time":"2017-02-21 12:17:44","points_phase0":106,"points_phase1":108,"phase_order":0,"age":30,"gender":"m","tries":1,"during":"Nothing","worker_id":"A2T2RV6G8AMC7Y","assignment_id":"3L6L49WXW1Q92DEAI765RN2WFCS546","data":[{"rt":15236,"url":"\/tickets\/utils\/consent.html","trial_type":"html","trial_index":0,"time_elapsed":15437,"internal_node_id":"0.0-0.0"},{"age":30,"gender":"m","trial_type":"age","trial_index":1,"time_elapsed":20249,"internal_node_id":"0.0-1.0"},{"worker_id":"A2T2RV6G8AMC7Y","trial_type":"workerid","trial_index":2,"time_elapsed":30125,"internal_node_id":"0.0-2.0"},{"tries":1,"trial_type":"instructions_check","trial_index":3,"time_elapsed":58552,"internal_node_id":"0.0-3.0"},{"rt":11729,"url":"\/tickets\/utils\/start.html","trial_type":"html","trial_index":4,"time_elapsed":71441,"internal_node_id":"0.0-4.0"},{"trial_type":"number-animation","trial_index":5,"time_elapsed":87240,"internal_node_id":"0.0-5.0"},{"phase":0,"sequence":0,"avg":181,"response":177,"trial_type":"training_avg","trial_index":6,"time_elapsed":96940,"internal_node_id":"0.0-6.0"},{"trial_type":"number-animation","trial_index":7,"time_elapsed":108543,"internal_node_id":"0.0-7.0"},{"phase":0,"sequence":1,"avg":188,"response":175,"trial_type":"training_avg","trial_index":8,"time_elapsed":116811,"internal_node_id":"0.0-8.0"},{"trial_type":"number-animation","trial_index":9,"time_elapsed":138284,"internal_node_id":"0.0-9.0"},{"phase":0,"sequence":2,"avg":188,"response":183,"trial_type":"training_avg","trial_index":10,"time_elapsed":150327,"internal_node_id":"0.0-10.0"},{"trial_type":"number-animation","trial_index":11,"time_elapsed":160499,"internal_node_id":"0.0-11.0"},{"phase":0,"sequence":3,"avg":177,"response":176,"trial_type":"training_avg","trial_index":12,"time_elapsed":166970,"internal_node_id":"0.0-12.0"},{"trial_type":"number-animation","trial_index":13,"time_elapsed":178894,"internal_node_id":"0.0-13.0"},{"phase":0,"sequence":4,"avg":182,"response":182,"trial_type":"training_avg","trial_index":14,"time_elapsed":185546,"internal_node_id":"0.0-14.0"},{"responses":[{"value":0,"offby":0,"category":"$106 - $134","category_index":0},{"value":2,"offby":1,"category":"$135 - $150","category_index":1},{"value":4,"offby":1,"category":"$151 - $165","category_index":2},{"value":4,"offby":-2,"category":"$166 - $180","category_index":3},{"value":2,"offby":-4,"category":"$181 - $195","category_index":4},{"value":3,"offby":0,"category":"$196 - $210","category_index":5},{"value":0,"offby":-1,"category":"$211 - $225","category_index":6}],"phase":0,"number":0,"trial_type":"bar-choose","trial_index":15,"time_elapsed":515647,"internal_node_id":"0.0-15.0"},{"rt":20497,"url":"\/tickets\/\/utils\/testing.html","trial_type":"html","trial_index":16,"time_elapsed":537307,"internal_node_id":"0.0-16.0"},{"phase":0,"order":[28,5,35,22,45,30,29,1,18,39,10,24,7,33,0,17,31,25,43,11,20,2,40,23,36,3,6,38,44,14,34,9,32,26,27,42,13,15,8,48,4,19,21,47,41,49,16,46,12,37],"trial_type":"store_order","trial_index":17,"time_elapsed":538307,"internal_node_id":"0.0-17.0"},{"result":126,"points":3,"place":0,"phase":0,"sequence":-1,"prices":[184,180,224,165,181,199,185,193,218,126],"times":[2811,1326,1243,3595,618,618,906,704,931,1457],"next_num":10,"trial_type":"ticket-choose","trial_index":18,"time_elapsed":557047,"internal_node_id":"0.0-18.0"},{"rt":15297,"url":"\/tickets\/utils\/testing_after.html","trial_type":"html","trial_index":19,"time_elapsed":573511,"internal_node_id":"0.0-19.0"},{"result":185,"points":1,"place":4,"phase":0,"sequence":0,"prices":[169,196,170,184,187,211,171,201,202,185],"times":[2310,830,892,647,639,650,787,599,620,1162],"next_num":10,"trial_type":"ticket-choose","trial_index":20,"time_elapsed":587310,"internal_node_id":"0.0-20.0"},{"result":163,"points":2,"place":1,"phase":0,"sequence":1,"prices":[175,187,176,209,180,188,163,165,154,208],"times":[984,558,828,563,607,761,1762],"next_num":7,"trial_type":"ticket-choose","trial_index":21,"time_elapsed":597437,"internal_node_id":"0.0-21.0"},{"result":154,"points":2,"place":1,"phase":0,"sequence":2,"prices":[168,154,172,185,195,144,184,211,177,227],"times":[5253,1487],"next_num":2,"trial_type":"ticket-choose","trial_index":22,"time_elapsed":606653,"internal_node_id":"0.0-22.0"},{"result":158,"points":2,"place":1,"phase":0,"sequence":3,"prices":[176,187,177,225,181,187,158,165,208,153],"times":[1348,548,768,651,666,530,1340],"next_num":7,"trial_type":"ticket-choose","trial_index":23,"time_elapsed":616048,"internal_node_id":"0.0-23.0"},{"result":167,"points":2,"place":1,"phase":0,"sequence":4,"prices":[212,192,188,184,167,193,189,164,176,170],"times":[1434,1257,954,1095,2056],"next_num":5,"trial_type":"ticket-choose","trial_index":24,"time_elapsed":625697,"internal_node_id":"0.0-24.0"},{"result":176,"points":1,"place":4,"phase":0,"sequence":5,"prices":[157,191,165,175,182,203,170,195,200,176],"times":[1922,485,889,551,491,502,675,650,587,1024],"next_num":10,"trial_type":"ticket-choose","trial_index":25,"time_elapsed":637397,"internal_node_id":"0.0-25.0"},{"result":150,"points":3,"place":0,"phase":0,"sequence":6,"prices":[150,185,154,161,173,199,155,188,191,168],"times":[2451],"next_num":1,"trial_type":"ticket-choose","trial_index":26,"time_elapsed":642413,"internal_node_id":"0.0-26.0"},{"result":163,"points":2,"place":1,"phase":0,"sequence":7,"prices":[175,187,163,209,180,188,176,165,154,208],"times":[980,569,1404],"next_num":3,"trial_type":"ticket-choose","trial_index":27,"time_elapsed":648003,"internal_node_id":"0.0-27.0"},{"result":158,"points":2,"place":1,"phase":0,"sequence":8,"prices":[176,187,158,210,181,187,177,165,208,153],"times":[10450,451,1268],"next_num":3,"trial_type":"ticket-choose","trial_index":28,"time_elapsed":662535,"internal_node_id":"0.0-28.0"},{"result":171,"points":1,"place":3,"phase":0,"sequence":9,"prices":[189,167,180,197,165,168,172,213,178,171],"times":[585,803,490,484,467,777,530,550,570,879],"next_num":10,"trial_type":"ticket-choose","trial_index":29,"time_elapsed":672579,"internal_node_id":"0.0-29.0"},{"result":167,"points":2,"place":1,"phase":0,"sequence":10,"prices":[175,186,167,225,179,187,178,169,209,153],"times":[890,526,1294],"next_num":3,"trial_type":"ticket-choose","trial_index":30,"time_elapsed":677764,"internal_node_id":"0.0-30.0"},{"result":161,"points":3,"place":0,"phase":0,"sequence":11,"prices":[161,193,175,181,185,224,180,199,218,184],"times":[1311],"next_num":1,"trial_type":"ticket-choose","trial_index":31,"time_elapsed":681868,"internal_node_id":"0.0-31.0"},{"result":163,"points":2,"place":1,"phase":0,"sequence":12,"prices":[175,186,176,224,179,187,163,165,153,210],"times":[600,563,587,530,541,519,1131],"next_num":7,"trial_type":"ticket-choose","trial_index":32,"time_elapsed":689609,"internal_node_id":"0.0-32.0"},{"result":159,"points":3,"place":0,"phase":0,"sequence":13,"prices":[159,183,166,168,173,205,167,187,191,170],"times":[1140],"next_num":1,"trial_type":"ticket-choose","trial_index":33,"time_elapsed":692715,"internal_node_id":"0.0-33.0"},{"result":163,"points":2,"place":1,"phase":0,"sequence":14,"prices":[176,186,163,214,179,187,176,166,153,208],"times":[1912,483,1161],"next_num":3,"trial_type":"ticket-choose","trial_index":34,"time_elapsed":698919,"internal_node_id":"0.0-34.0"},{"result":158,"points":2,"place":1,"phase":0,"sequence":15,"prices":[175,186,158,209,181,188,177,167,208,154],"times":[1774,835,2565],"next_num":3,"trial_type":"ticket-choose","trial_index":35,"time_elapsed":706598,"internal_node_id":"0.0-35.0"},{"result":148,"points":3,"place":0,"phase":0,"sequence":16,"prices":[148,171,150,163,167,220,162,186,187,165],"times":[1407],"next_num":1,"trial_type":"ticket-choose","trial_index":36,"time_elapsed":709947,"internal_node_id":"0.0-36.0"},{"result":156,"points":3,"place":0,"phase":0,"sequence":17,"prices":[156,201,162,166,185,214,165,202,204,179],"times":[1298],"next_num":1,"trial_type":"ticket-choose","trial_index":37,"time_elapsed":713343,"internal_node_id":"0.0-37.0"},{"result":157,"points":3,"place":0,"phase":0,"sequence":18,"prices":[201,187,157,184,198,179,188,185,178,170],"times":[782,961,1283],"next_num":3,"trial_type":"ticket-choose","trial_index":38,"time_elapsed":718803,"internal_node_id":"0.0-38.0"},{"result":167,"points":2,"place":1,"phase":0,"sequence":19,"prices":[175,187,167,212,179,187,178,169,208,153],"times":[575,521,1175],"next_num":3,"trial_type":"ticket-choose","trial_index":39,"time_elapsed":723603,"internal_node_id":"0.0-39.0"},{"result":158,"points":2,"place":1,"phase":0,"sequence":20,"prices":[175,186,177,221,180,187,158,166,209,153],"times":[920,553,516,507,583,531,991],"next_num":7,"trial_type":"ticket-choose","trial_index":40,"time_elapsed":731391,"internal_node_id":"0.0-40.0"},{"result":163,"points":2,"place":1,"phase":0,"sequence":21,"prices":[174,186,163,212,181,187,176,166,153,209],"times":[549,482,1468],"next_num":3,"trial_type":"ticket-choose","trial_index":41,"time_elapsed":736289,"internal_node_id":"0.0-41.0"},{"result":150,"points":3,"place":0,"phase":0,"sequence":22,"prices":[189,150,175,160,188,207,158,194,178,199],"times":[502,1120],"next_num":2,"trial_type":"ticket-choose","trial_index":42,"time_elapsed":740089,"internal_node_id":"0.0-42.0"},{"result":158,"points":2,"place":1,"phase":0,"sequence":23,"prices":[176,185,177,218,180,186,158,166,209,154],"times":[719,490,478,523,535,541,1024],"next_num":7,"trial_type":"ticket-choose","trial_index":43,"time_elapsed":747638,"internal_node_id":"0.0-43.0"},{"result":165,"points":2,"place":1,"phase":0,"sequence":24,"prices":[188,200,165,172,198,174,177,154,177,180],"times":[2188,498,1874],"next_num":3,"trial_type":"ticket-choose","trial_index":44,"time_elapsed":754646,"internal_node_id":"0.0-44.0"},{"result":165,"points":1,"place":2,"phase":0,"sequence":25,"prices":[175,186,163,211,179,187,176,165,153,210],"times":[669,498,1851,563,447,454,690,1200],"next_num":8,"trial_type":"ticket-choose","trial_index":45,"time_elapsed":764689,"internal_node_id":"0.0-45.0"},{"result":163,"points":2,"place":1,"phase":0,"sequence":26,"prices":[174,186,176,217,181,187,163,166,153,209],"times":[906,670,502,563,639,583,1269],"next_num":7,"trial_type":"ticket-choose","trial_index":46,"time_elapsed":773174,"internal_node_id":"0.0-46.0"},{"result":163,"points":3,"place":0,"phase":0,"sequence":27,"prices":[168,199,196,198,185,195,227,163,177,166],"times":[1030,436,451,484,622,524,527,1041],"next_num":8,"trial_type":"ticket-choose","trial_index":47,"time_elapsed":781825,"internal_node_id":"0.0-47.0"},{"result":159,"points":1,"place":2,"phase":0,"sequence":28,"prices":[180,159,149,175,185,141,163,174,178,207],"times":[664,1048],"next_num":2,"trial_type":"ticket-choose","trial_index":48,"time_elapsed":785809,"internal_node_id":"0.0-48.0"},{"result":153,"points":3,"place":0,"phase":0,"sequence":29,"prices":[175,186,178,212,179,187,167,169,209,153],"times":[520,449,463,571,638,575,631,1835,628,977],"next_num":10,"trial_type":"ticket-choose","trial_index":49,"time_elapsed":797786,"internal_node_id":"0.0-49.0"},{"result":155,"points":2,"place":1,"phase":0,"sequence":30,"prices":[181,155,148,161,168,187,172,199,176,194],"times":[4854,1753],"next_num":2,"trial_type":"ticket-choose","trial_index":50,"time_elapsed":806736,"internal_node_id":"0.0-50.0"},{"result":168,"points":1,"place":2,"phase":0,"sequence":31,"prices":[175,185,167,224,181,186,178,168,208,156],"times":[885,506,1004,547,724,815,615,1218],"next_num":8,"trial_type":"ticket-choose","trial_index":51,"time_elapsed":816517,"internal_node_id":"0.0-51.0"},{"result":161,"points":3,"place":0,"phase":0,"sequence":32,"prices":[161,193,167,187,190,224,174,194,195,188],"times":[1311],"next_num":1,"trial_type":"ticket-choose","trial_index":52,"time_elapsed":819758,"internal_node_id":"0.0-52.0"},{"result":152,"points":3,"place":0,"phase":0,"sequence":33,"prices":[152,200,158,173,182,207,161,202,204,180],"times":[1094],"next_num":1,"trial_type":"ticket-choose","trial_index":53,"time_elapsed":822792,"internal_node_id":"0.0-53.0"},{"result":186,"points":1,"place":4,"phase":0,"sequence":34,"prices":[168,192,171,178,188,217,172,195,197,186],"times":[814,487,503,479,542,699,890,792,582,923],"next_num":10,"trial_type":"ticket-choose","trial_index":54,"time_elapsed":833364,"internal_node_id":"0.0-54.0"},{"result":173,"points":2,"place":1,"phase":0,"sequence":35,"prices":[222,173,202,197,143,205,198,183,178,186],"times":[4017,3669],"next_num":2,"trial_type":"ticket-choose","trial_index":55,"time_elapsed":843263,"internal_node_id":"0.0-55.0"},{"result":167,"points":2,"place":1,"phase":0,"sequence":36,"prices":[175,185,178,215,181,186,167,168,208,156],"times":[932,603,615,504,575,543,1219],"next_num":7,"trial_type":"ticket-choose","trial_index":56,"time_elapsed":851424,"internal_node_id":"0.0-56.0"},{"result":167,"points":2,"place":1,"phase":0,"sequence":37,"prices":[175,187,178,209,179,187,167,169,208,153],"times":[1432,522,616,487,606,628,1225],"next_num":7,"trial_type":"ticket-choose","trial_index":57,"time_elapsed":860244,"internal_node_id":"0.0-57.0"},{"result":167,"points":2,"place":1,"phase":0,"sequence":38,"prices":[174,186,167,211,181,188,178,168,208,156],"times":[978,519,1181],"next_num":3,"trial_type":"ticket-choose","trial_index":58,"time_elapsed":865404,"internal_node_id":"0.0-58.0"},{"result":147,"points":3,"place":0,"phase":0,"sequence":39,"prices":[181,215,169,147,182,193,177,184,176,179],"times":[785,519,1953,1132],"next_num":4,"trial_type":"ticket-choose","trial_index":59,"time_elapsed":872279,"internal_node_id":"0.0-59.0"},{"result":163,"points":2,"place":1,"phase":0,"sequence":40,"prices":[176,186,176,210,179,187,163,166,153,208],"times":[707,488,814,522,699,695,1242],"next_num":7,"trial_type":"ticket-choose","trial_index":60,"time_elapsed":880726,"internal_node_id":"0.0-60.0"},{"result":158,"points":2,"place":1,"phase":0,"sequence":41,"prices":[176,185,158,217,180,186,177,166,209,154],"times":[822,736,1283],"next_num":3,"trial_type":"ticket-choose","trial_index":61,"time_elapsed":885947,"internal_node_id":"0.0-61.0"},{"result":158,"points":2,"place":1,"phase":0,"sequence":42,"prices":[175,186,177,209,181,188,158,167,208,154],"times":[1117,576,504,530,611,527,1085],"next_num":7,"trial_type":"ticket-choose","trial_index":62,"time_elapsed":894203,"internal_node_id":"0.0-62.0"},{"result":152,"points":3,"place":0,"phase":0,"sequence":43,"prices":[200,181,203,152,175,171,160,154,176,191],"times":[498,1046,622,1084],"next_num":4,"trial_type":"ticket-choose","trial_index":63,"time_elapsed":900131,"internal_node_id":"0.0-63.0"},{"result":155,"points":2,"place":1,"phase":0,"sequence":44,"prices":[201,207,155,158,156,165,167,135,178,177],"times":[805,920,1029],"next_num":3,"trial_type":"ticket-choose","trial_index":64,"time_elapsed":905122,"internal_node_id":"0.0-64.0"},{"result":163,"points":1,"place":2,"phase":0,"sequence":45,"prices":[183,163,185,180,166,148,160,186,176,184],"times":[646,1751],"next_num":2,"trial_type":"ticket-choose","trial_index":65,"time_elapsed":909634,"internal_node_id":"0.0-65.0"},{"result":158,"points":2,"place":1,"phase":0,"sequence":46,"prices":[175,186,158,211,180,187,177,166,209,153],"times":[577,463,1181],"next_num":3,"trial_type":"ticket-choose","trial_index":66,"time_elapsed":914351,"internal_node_id":"0.0-66.0"},{"result":158,"points":3,"place":0,"phase":0,"sequence":47,"prices":[210,184,226,193,215,158,199,175,176,208],"times":[671,907,804,503,543,1141],"next_num":6,"trial_type":"ticket-choose","trial_index":67,"time_elapsed":921947,"internal_node_id":"0.0-67.0"},{"result":156,"points":3,"place":0,"phase":0,"sequence":48,"prices":[174,186,178,217,181,188,167,168,208,156],"times":[620,562,861,513,557,465,1590,805,503,1001],"next_num":10,"trial_type":"ticket-choose","trial_index":68,"time_elapsed":933358,"internal_node_id":"0.0-68.0"},{"result":169,"points":1,"place":3,"phase":0,"sequence":49,"prices":[198,193,169,163,202,182,152,164,177,171],"times":[798,552,1256],"next_num":3,"trial_type":"ticket-choose","trial_index":69,"time_elapsed":938338,"internal_node_id":"0.0-69.0"},{"responses":[{"value":0,"offby":0,"category":"$106 - $134","category_index":0},{"value":0,"offby":-1,"category":"$135 - $150","category_index":1},{"value":5,"offby":2,"category":"$151 - $165","category_index":2},{"value":4,"offby":-2,"category":"$166 - $180","category_index":3},{"value":5,"offby":-1,"category":"$181 - $195","category_index":4},{"value":6,"offby":3,"category":"$196 - $210","category_index":5},{"value":0,"offby":-1,"category":"$211 - $225","category_index":6}],"phase":0,"number":1,"trial_type":"bar-choose","trial_index":70,"time_elapsed":972225,"internal_node_id":"0.0-70.0"},{"rt":10672,"url":"\/tickets\/utils\/start2.html","trial_type":"html","trial_index":71,"time_elapsed":984057,"internal_node_id":"0.0-71.0"},{"trial_type":"number-animation","trial_index":72,"time_elapsed":1000950,"internal_node_id":"0.0-72.0"},{"phase":1,"sequence":0,"avg":182,"response":189,"trial_type":"training_avg","trial_index":73,"time_elapsed":1008920,"internal_node_id":"0.0-73.0"},{"trial_type":"number-animation","trial_index":74,"time_elapsed":1030132,"internal_node_id":"0.0-74.0"},{"phase":1,"sequence":1,"avg":188,"response":188,"trial_type":"training_avg","trial_index":75,"time_elapsed":1037781,"internal_node_id":"0.0-75.0"},{"trial_type":"number-animation","trial_index":76,"time_elapsed":1046970,"internal_node_id":"0.0-76.0"},{"phase":1,"sequence":2,"avg":176,"response":179,"trial_type":"training_avg","trial_index":77,"time_elapsed":1053657,"internal_node_id":"0.0-77.0"},{"trial_type":"number-animation","trial_index":78,"time_elapsed":1061850,"internal_node_id":"0.0-78.0"},{"phase":1,"sequence":3,"avg":180,"response":170,"trial_type":"training_avg","trial_index":79,"time_elapsed":1067947,"internal_node_id":"0.0-79.0"},{"trial_type":"number-animation","trial_index":80,"time_elapsed":1079054,"internal_node_id":"0.0-80.0"},{"phase":1,"sequence":4,"avg":174,"response":175,"trial_type":"training_avg","trial_index":81,"time_elapsed":1084074,"internal_node_id":"0.0-81.0"},{"responses":[{"value":0,"offby":-1,"category":"$90 - $120","category_index":0},{"value":2,"offby":-1,"category":"$121 - $145","category_index":1},{"value":5,"offby":2,"category":"$146 - $170","category_index":2},{"value":5,"offby":-1,"category":"$171 - $195","category_index":3},{"value":5,"offby":1,"category":"$196 - $220","category_index":4},{"value":3,"offby":1,"category":"$221 - $245","category_index":5},{"value":0,"offby":-1,"category":"$246 - $270","category_index":6}],"phase":1,"number":0,"trial_type":"bar-choose","trial_index":82,"time_elapsed":1108891,"internal_node_id":"0.0-82.0"},{"rt":13247,"url":"\/tickets\/utils\/testing2.html","trial_type":"html","trial_index":83,"time_elapsed":1123303,"internal_node_id":"0.0-83.0"},{"phase":1,"order":[16,34,41,45,12,22,13,19,24,39,27,26,2,17,44,28,47,1,6,8,42,3,38,4,46,23,48,37,32,5,14,36,35,30,11,21,25,29,15,33,7,18,31,0,20,49,40,10,43,9],"trial_type":"store_order","trial_index":84,"time_elapsed":1124304,"internal_node_id":"0.0-84.0"},{"result":136,"points":2,"place":1,"phase":1,"sequence":0,"prices":[171,192,136,265,180,194,174,152,239,127],"times":[2477,642,1379],"next_num":3,"trial_type":"ticket-choose","trial_index":85,"time_elapsed":1131367,"internal_node_id":"0.0-85.0"},{"result":130,"points":2,"place":1,"phase":1,"sequence":1,"prices":[181,130,116,142,157,193,165,218,173,207],"times":[1177,1241],"next_num":2,"trial_type":"ticket-choose","trial_index":86,"time_elapsed":1135914,"internal_node_id":"0.0-86.0"},{"result":131,"points":2,"place":1,"phase":1,"sequence":2,"prices":[221,234,131,136,132,149,154,90,176,173],"times":[549,558,1103],"next_num":3,"trial_type":"ticket-choose","trial_index":87,"time_elapsed":1140510,"internal_node_id":"0.0-87.0"},{"result":154,"points":2,"place":1,"phase":1,"sequence":3,"prices":[244,203,196,189,154,206,197,149,171,159],"times":[625,515,588,514,1196],"next_num":5,"trial_type":"ticket-choose","trial_index":88,"time_elapsed":1146655,"internal_node_id":"0.0-88.0"},{"result":154,"points":2,"place":1,"phase":1,"sequence":4,"prices":[168,192,176,242,183,197,154,156,237,132],"times":[5540,489,629,479,578,527,1051],"next_num":7,"trial_type":"ticket-choose","trial_index":89,"time_elapsed":1159205,"internal_node_id":"0.0-89.0"},{"result":136,"points":2,"place":1,"phase":1,"sequence":5,"prices":[172,194,174,243,182,193,136,150,237,126],"times":[938,636,702,544,707,562,1172],"next_num":7,"trial_type":"ticket-choose","trial_index":90,"time_elapsed":1167677,"internal_node_id":"0.0-90.0"},{"result":154,"points":2,"place":1,"phase":1,"sequence":6,"prices":[170,190,176,251,183,192,154,157,236,131],"times":[1103,638,1159,759,1014,575,1155],"next_num":7,"trial_type":"ticket-choose","trial_index":91,"time_elapsed":1177277,"internal_node_id":"0.0-91.0"},{"result":136,"points":2,"place":1,"phase":1,"sequence":7,"prices":[172,190,136,270,179,192,174,152,237,129],"times":[1067,872,1587],"next_num":3,"trial_type":"ticket-choose","trial_index":92,"time_elapsed":1183397,"internal_node_id":"0.0-92.0"},{"result":142,"points":3,"place":0,"phase":1,"sequence":8,"prices":[142,207,171,182,190,269,180,218,256,188],"times":[2017],"next_num":1,"trial_type":"ticket-choose","trial_index":93,"time_elapsed":1187393,"internal_node_id":"0.0-93.0"},{"result":150,"points":3,"place":0,"phase":1,"sequence":9,"prices":[197,153,181,215,150,155,164,247,177,162],"times":[1216,1903,475,511,1191],"next_num":5,"trial_type":"ticket-choose","trial_index":94,"time_elapsed":1195877,"internal_node_id":"0.0-94.0"},{"result":192,"points":1,"place":4,"phase":1,"sequence":10,"prices":[157,205,161,175,197,254,165,210,214,192],"times":[1560,452,1231,774,502,1091,2963,699,624,784],"next_num":10,"trial_type":"ticket-choose","trial_index":95,"time_elapsed":1210372,"internal_node_id":"0.0-95.0"},{"result":124,"points":3,"place":0,"phase":1,"sequence":11,"prices":[124,220,136,165,185,234,143,225,228,179],"times":[1693],"next_num":1,"trial_type":"ticket-choose","trial_index":96,"time_elapsed":1213960,"internal_node_id":"0.0-96.0"},{"result":146,"points":2,"place":1,"phase":1,"sequence":12,"prices":[168,191,146,252,183,193,172,153,126,238],"times":[1288,514,1138],"next_num":3,"trial_type":"ticket-choose","trial_index":97,"time_elapsed":1219240,"internal_node_id":"0.0-97.0"},{"result":136,"points":2,"place":1,"phase":1,"sequence":13,"prices":[171,192,136,243,182,195,174,154,236,128],"times":[573,506,1103],"next_num":3,"trial_type":"ticket-choose","trial_index":98,"time_elapsed":1223788,"internal_node_id":"0.0-98.0"},{"result":138,"points":1,"place":2,"phase":1,"sequence":14,"prices":[181,138,118,170,190,101,146,169,175,233],"times":[649,1170],"next_num":2,"trial_type":"ticket-choose","trial_index":99,"time_elapsed":1227737,"internal_node_id":"0.0-99.0"},{"result":161,"points":1,"place":2,"phase":1,"sequence":15,"prices":[157,213,159,187,194,242,161,222,225,189],"times":[870,531,643,595,487,546,1598],"next_num":7,"trial_type":"ticket-choose","trial_index":100,"time_elapsed":1236196,"internal_node_id":"0.0-100.0"},{"result":124,"points":3,"place":0,"phase":1,"sequence":16,"prices":[219,183,227,124,176,161,140,129,171,201],"times":[1047,992,489,1165],"next_num":4,"trial_type":"ticket-choose","trial_index":101,"time_elapsed":1242482,"internal_node_id":"0.0-101.0"},{"result":146,"points":2,"place":1,"phase":1,"sequence":17,"prices":[169,193,146,237,180,196,172,150,129,236],"times":[3875,603,5054],"next_num":3,"trial_type":"ticket-choose","trial_index":102,"time_elapsed":1254387,"internal_node_id":"0.0-102.0"},{"result":146,"points":2,"place":1,"phase":1,"sequence":18,"prices":[168,191,172,240,183,193,146,151,125,238],"times":[11892,810,442,453,510,599,1525],"next_num":7,"trial_type":"ticket-choose","trial_index":103,"time_elapsed":1273983,"internal_node_id":"0.0-103.0"},{"result":154,"points":2,"place":1,"phase":1,"sequence":19,"prices":[168,192,154,237,182,196,176,156,235,133],"times":[9764,758,5666],"next_num":3,"trial_type":"ticket-choose","trial_index":104,"time_elapsed":1292714,"internal_node_id":"0.0-104.0"},{"result":105,"points":3,"place":0,"phase":1,"sequence":20,"prices":[263,165,224,214,105,230,215,185,177,193],"times":[1233,870,444,506,1209],"next_num":5,"trial_type":"ticket-choose","trial_index":105,"time_elapsed":1299961,"internal_node_id":"0.0-105.0"},{"result":146,"points":2,"place":1,"phase":1,"sequence":21,"prices":[170,193,146,268,178,195,172,149,126,241],"times":[1101,462,1247],"next_num":3,"trial_type":"ticket-choose","trial_index":106,"time_elapsed":1305134,"internal_node_id":"0.0-106.0"},{"result":146,"points":3,"place":0,"phase":1,"sequence":22,"prices":[156,218,212,216,191,210,275,146,174,152],"times":[836,526,535,742,694,503,444,1212],"next_num":8,"trial_type":"ticket-choose","trial_index":107,"time_elapsed":1314542,"internal_node_id":"0.0-107.0"},{"result":146,"points":2,"place":1,"phase":1,"sequence":23,"prices":[172,191,176,272,179,194,146,152,126,235],"times":[14721,591,647,727,770,559,1525],"next_num":7,"trial_type":"ticket-choose","trial_index":108,"time_elapsed":1338853,"internal_node_id":"0.0-108.0"},{"result":136,"points":3,"place":0,"phase":1,"sequence":24,"prices":[240,188,273,207,250,136,217,170,171,236],"times":[795,528,630,559,587,1137],"next_num":6,"trial_type":"ticket-choose","trial_index":109,"time_elapsed":1346041,"internal_node_id":"0.0-109.0"},{"result":136,"points":2,"place":1,"phase":1,"sequence":25,"prices":[173,191,174,270,180,193,136,153,239,129],"times":[858,471,513,500,591,522,1158],"next_num":7,"trial_type":"ticket-choose","trial_index":110,"time_elapsed":1354033,"internal_node_id":"0.0-110.0"},{"result":159,"points":2,"place":1,"phase":1,"sequence":26,"prices":[182,249,159,114,184,205,175,189,172,178],"times":[896,498,1130],"next_num":3,"trial_type":"ticket-choose","trial_index":111,"time_elapsed":1359012,"internal_node_id":"0.0-111.0"},{"result":158,"points":1,"place":3,"phase":1,"sequence":27,"prices":[216,206,158,145,224,185,124,149,175,162],"times":[788,461,1224],"next_num":3,"trial_type":"ticket-choose","trial_index":112,"time_elapsed":1363909,"internal_node_id":"0.0-112.0"},{"result":143,"points":3,"place":0,"phase":1,"sequence":28,"prices":[143,206,153,194,201,267,168,208,210,196],"times":[1634],"next_num":1,"trial_type":"ticket-choose","trial_index":113,"time_elapsed":1367450,"internal_node_id":"0.0-113.0"},{"result":146,"points":2,"place":1,"phase":1,"sequence":29,"prices":[171,195,172,242,179,196,146,150,128,235],"times":[1062,493,559,506,733,536,1045],"next_num":7,"trial_type":"ticket-choose","trial_index":114,"time_elapsed":1375633,"internal_node_id":"0.0-114.0"},{"result":154,"points":2,"place":1,"phase":1,"sequence":30,"prices":[169,192,176,244,178,194,154,159,237,125],"times":[1615,732,573,449,599,629,1205],"next_num":7,"trial_type":"ticket-choose","trial_index":115,"time_elapsed":1384993,"internal_node_id":"0.0-115.0"},{"result":149,"points":2,"place":1,"phase":1,"sequence":31,"prices":[196,221,149,164,216,167,175,128,176,181],"times":[1040,666,2386],"next_num":3,"trial_type":"ticket-choose","trial_index":116,"time_elapsed":1391580,"internal_node_id":"0.0-116.0"},{"result":155,"points":1,"place":2,"phase":1,"sequence":32,"prices":[155,129,164,189,210,108,187,241,174,275],"times":[1525],"next_num":1,"trial_type":"ticket-choose","trial_index":117,"time_elapsed":1394904,"internal_node_id":"0.0-117.0"},{"result":135,"points":3,"place":0,"phase":1,"sequence":33,"prices":[135,202,150,169,183,225,160,211,220,172],"times":[1019],"next_num":1,"trial_type":"ticket-choose","trial_index":118,"time_elapsed":1397737,"internal_node_id":"0.0-118.0"},{"result":154,"points":2,"place":1,"phase":1,"sequence":34,"prices":[169,194,154,271,178,201,176,158,236,127],"times":[5032,872,1310],"next_num":3,"trial_type":"ticket-choose","trial_index":119,"time_elapsed":1407384,"internal_node_id":"0.0-119.0"},{"result":136,"points":2,"place":1,"phase":1,"sequence":35,"prices":[170,192,174,242,181,196,136,153,236,128],"times":[689,473,560,486,1670,606,1160],"next_num":7,"trial_type":"ticket-choose","trial_index":120,"time_elapsed":1416360,"internal_node_id":"0.0-120.0"},{"result":132,"points":3,"place":0,"phase":1,"sequence":36,"prices":[132,222,144,153,190,248,151,224,228,179],"times":[1234],"next_num":1,"trial_type":"ticket-choose","trial_index":121,"time_elapsed":1419420,"internal_node_id":"0.0-121.0"},{"result":121,"points":3,"place":0,"phase":1,"sequence":37,"prices":[121,191,128,141,166,217,129,196,202,157],"times":[1207],"next_num":1,"trial_type":"ticket-choose","trial_index":122,"time_elapsed":1422407,"internal_node_id":"0.0-122.0"},{"result":154,"points":2,"place":1,"phase":1,"sequence":38,"prices":[170,193,176,245,178,194,154,159,236,126],"times":[477,455,429,481,575,639,1055],"next_num":7,"trial_type":"ticket-choose","trial_index":123,"time_elapsed":1429715,"internal_node_id":"0.0-123.0"},{"result":137,"points":3,"place":0,"phase":1,"sequence":39,"prices":[137,187,152,156,166,231,155,194,202,160],"times":[1237],"next_num":1,"trial_type":"ticket-choose","trial_index":124,"time_elapsed":1432883,"internal_node_id":"0.0-124.0"},{"result":146,"points":2,"place":1,"phase":1,"sequence":40,"prices":[171,191,172,268,179,194,146,150,127,239],"times":[692,452,494,510,558,539,1028],"next_num":7,"trial_type":"ticket-choose","trial_index":125,"time_elapsed":1440347,"internal_node_id":"0.0-125.0"},{"result":136,"points":2,"place":1,"phase":1,"sequence":41,"prices":[173,194,136,239,182,200,174,150,236,127],"times":[812,439,1031],"next_num":3,"trial_type":"ticket-choose","trial_index":126,"time_elapsed":1444954,"internal_node_id":"0.0-126.0"},{"result":117,"points":3,"place":0,"phase":1,"sequence":42,"prices":[117,161,120,147,153,259,144,191,195,149],"times":[1347],"next_num":1,"trial_type":"ticket-choose","trial_index":127,"time_elapsed":1448183,"internal_node_id":"0.0-127.0"},{"result":152,"points":1,"place":2,"phase":1,"sequence":43,"prices":[173,191,146,242,178,194,172,152,126,235],"times":[497,446,684,731,687,563,490,1228],"next_num":8,"trial_type":"ticket-choose","trial_index":128,"time_elapsed":1457134,"internal_node_id":"0.0-128.0"},{"result":136,"points":2,"place":1,"phase":1,"sequence":44,"prices":[169,192,174,246,180,195,136,152,238,126],"times":[781,505,475,508,680,578,1245],"next_num":7,"trial_type":"ticket-choose","trial_index":129,"time_elapsed":1465222,"internal_node_id":"0.0-129.0"},{"result":146,"points":1,"place":2,"phase":1,"sequence":45,"prices":[186,146,191,179,152,116,140,201,172,187],"times":[959,1140],"next_num":2,"trial_type":"ticket-choose","trial_index":130,"time_elapsed":1469495,"internal_node_id":"0.0-130.0"},{"result":119,"points":3,"place":0,"phase":1,"sequence":46,"prices":[198,119,169,141,195,233,136,208,177,217],"times":[898,1064],"next_num":2,"trial_type":"ticket-choose","trial_index":131,"time_elapsed":1473502,"internal_node_id":"0.0-131.0"},{"result":154,"points":2,"place":1,"phase":1,"sequence":47,"prices":[169,193,154,255,178,194,176,158,239,126],"times":[773,538,1248],"next_num":3,"trial_type":"ticket-choose","trial_index":132,"time_elapsed":1478469,"internal_node_id":"0.0-132.0"},{"result":135,"points":3,"place":0,"phase":1,"sequence":48,"prices":[221,193,135,188,217,179,196,190,175,159],"times":[701,626,1165],"next_num":3,"trial_type":"ticket-choose","trial_index":133,"time_elapsed":1483617,"internal_node_id":"0.0-133.0"},{"result":154,"points":2,"place":1,"phase":1,"sequence":49,"prices":[169,191,154,268,183,197,176,155,236,133],"times":[848,475,1201],"next_num":3,"trial_type":"ticket-choose","trial_index":134,"time_elapsed":1488598,"internal_node_id":"0.0-134.0"},{"responses":[{"value":2,"offby":1,"category":"$90 - $120","category_index":0},{"value":3,"offby":0,"category":"$121 - $145","category_index":1},{"value":4,"offby":1,"category":"$146 - $170","category_index":2},{"value":4,"offby":-2,"category":"$171 - $195","category_index":3},{"value":4,"offby":0,"category":"$196 - $220","category_index":4},{"value":2,"offby":0,"category":"$221 - $245","category_index":5},{"value":1,"offby":0,"category":"$246 - $270","category_index":6}],"phase":1,"number":1,"trial_type":"bar-choose","trial_index":135,"time_elapsed":1509708,"internal_node_id":"0.0-135.0"},{"special_comment":"notreally sometimes the cheapest was at the beginning and sometimes the end but that was all I noticed.","trial_type":"special_sequence","trial_index":136,"time_elapsed":1536921,"internal_node_id":"0.0-136.0"},{"during":"Nothing","bonus":284,"trial_type":"final","trial_index":137,"time_elapsed":1571654,"internal_node_id":"0.0-137.0"}],"bonus":284}