{"start_time":"2017-02-28 18:21:35","end_time":"2017-02-28 18:54:21","points_phase0":97,"points_phase1":109,"phase_order":1,"age":48,"gender":"f","tries":2,"during":"Nothing","worker_id":"A2VD133723IZR8","assignment_id":"3M1CVSFP61YDXODPB04Z21JN4DTAQ8","data":[{"rt":8030,"url":"\/tickets\/utils\/consent.html","trial_type":"html","trial_index":0,"time_elapsed":8891,"internal_node_id":"0.0-0.0"},{"age":48,"gender":"f","trial_type":"age","trial_index":1,"time_elapsed":14994,"internal_node_id":"0.0-1.0"},{"worker_id":"A2VD133723IZR8","trial_type":"workerid","trial_index":2,"time_elapsed":30761,"internal_node_id":"0.0-2.0"},{"tries":2,"trial_type":"instructions_check","trial_index":3,"time_elapsed":87910,"internal_node_id":"0.0-3.0"},{"rt":9259,"url":"\/tickets\/utils\/start.html","trial_type":"html","trial_index":4,"time_elapsed":99065,"internal_node_id":"0.0-4.0"},{"trial_type":"number-animation","trial_index":5,"time_elapsed":127776,"internal_node_id":"0.0-5.0"},{"phase":0,"sequence":0,"avg":188,"response":187,"trial_type":"training_avg","trial_index":6,"time_elapsed":156583,"internal_node_id":"0.0-6.0"},{"trial_type":"number-animation","trial_index":7,"time_elapsed":231880,"internal_node_id":"0.0-7.0"},{"phase":0,"sequence":1,"avg":202,"response":201,"trial_type":"training_avg","trial_index":8,"time_elapsed":254226,"internal_node_id":"0.0-8.0"},{"trial_type":"number-animation","trial_index":9,"time_elapsed":300735,"internal_node_id":"0.0-9.0"},{"phase":0,"sequence":2,"avg":200,"response":201,"trial_type":"training_avg","trial_index":10,"time_elapsed":321444,"internal_node_id":"0.0-10.0"},{"trial_type":"number-animation","trial_index":11,"time_elapsed":364201,"internal_node_id":"0.0-11.0"},{"phase":0,"sequence":3,"avg":209,"response":209,"trial_type":"training_avg","trial_index":12,"time_elapsed":378519,"internal_node_id":"0.0-12.0"},{"trial_type":"number-animation","trial_index":13,"time_elapsed":417930,"internal_node_id":"0.0-13.0"},{"phase":0,"sequence":4,"avg":195,"response":195,"trial_type":"training_avg","trial_index":14,"time_elapsed":432953,"internal_node_id":"0.0-14.0"},{"responses":[{"value":0,"offby":0,"category":"$145 - $160","category_index":0},{"value":4,"offby":3,"category":"$161 - $175","category_index":1},{"value":6,"offby":3,"category":"$176 - $190","category_index":2},{"value":7,"offby":0,"category":"$191 - $205","category_index":3},{"value":3,"offby":-3,"category":"$206 - $220","category_index":4},{"value":0,"offby":-3,"category":"$221 - $235","category_index":5},{"value":0,"offby":0,"category":"$226 - $260","category_index":6}],"phase":0,"number":0,"trial_type":"bar-choose","trial_index":15,"time_elapsed":530409,"internal_node_id":"0.0-15.0"},{"rt":34768,"url":"\/tickets\/\/utils\/testing.html","trial_type":"html","trial_index":16,"time_elapsed":567196,"internal_node_id":"0.0-16.0"},{"phase":0,"order":[7,24,17,2,12,20,6,4,49,30,47,37,42,34,8,14,48,36,28,39,19,44,33,35,29,0,21,11,9,40,16,3,23,27,25,15,38,32,41,45,26,31,5,22,10,46,18,43,13,1],"trial_type":"store_order","trial_index":17,"time_elapsed":568198,"internal_node_id":"0.0-17.0"},{"result":165,"points":2,"place":1,"phase":0,"sequence":-1,"prices":[184,180,224,165,181,199,185,193,218,126],"times":[5930,798,817,1427],"next_num":4,"trial_type":"ticket-choose","trial_index":18,"time_elapsed":581821,"internal_node_id":"0.0-18.0"},{"rt":13575,"url":"\/tickets\/utils\/testing_after.html","trial_type":"html","trial_index":19,"time_elapsed":597367,"internal_node_id":"0.0-19.0"},{"result":208,"points":1,"place":4,"phase":0,"sequence":0,"prices":[181,213,187,207,210,244,194,214,215,208],"times":[4115,675,665,754,772,762,755,861,747,1074],"next_num":11,"trial_type":"ticket-choose","trial_index":20,"time_elapsed":614842,"internal_node_id":"0.0-20.0"},{"result":187,"points":2,"place":1,"phase":0,"sequence":1,"prices":[195,207,187,245,199,207,198,189,228,173],"times":[1051,921,1170],"next_num":3,"trial_type":"ticket-choose","trial_index":21,"time_elapsed":621864,"internal_node_id":"0.0-21.0"},{"result":187,"points":2,"place":1,"phase":0,"sequence":2,"prices":[195,206,187,245,199,207,198,189,229,173],"times":[1264,1368,1282],"next_num":3,"trial_type":"ticket-choose","trial_index":22,"time_elapsed":628665,"internal_node_id":"0.0-22.0"},{"result":196,"points":1,"place":4,"phase":0,"sequence":3,"prices":[195,207,183,246,200,208,196,185,174,228],"times":[2612,716,1496,708,834,780,1368],"next_num":7,"trial_type":"ticket-choose","trial_index":23,"time_elapsed":640480,"internal_node_id":"0.0-23.0"},{"result":172,"points":3,"place":0,"phase":0,"sequence":4,"prices":[220,201,223,172,195,191,180,174,196,211],"times":[1987,778,791,1934],"next_num":4,"trial_type":"ticket-choose","trial_index":24,"time_elapsed":651252,"internal_node_id":"0.0-24.0"},{"result":188,"points":1,"place":2,"phase":0,"sequence":5,"prices":[188,174,192,205,215,164,204,231,197,247],"times":[3559],"next_num":1,"trial_type":"ticket-choose","trial_index":25,"time_elapsed":657204,"internal_node_id":"0.0-25.0"},{"result":205,"points":1,"place":4,"phase":0,"sequence":6,"prices":[189,216,190,204,207,231,191,221,222,205],"times":[1234,634,575,629,559,590,1041,798,765,853],"next_num":11,"trial_type":"ticket-choose","trial_index":26,"time_elapsed":669083,"internal_node_id":"0.0-26.0"},{"result":178,"points":2,"place":1,"phase":0,"sequence":7,"prices":[196,207,197,245,201,207,178,185,228,173],"times":[3136,636,611,666,603,703,862],"next_num":7,"trial_type":"ticket-choose","trial_index":27,"time_elapsed":679759,"internal_node_id":"0.0-27.0"},{"result":172,"points":3,"place":0,"phase":0,"sequence":8,"prices":[172,220,178,193,202,227,181,222,224,200],"times":[1487],"next_num":1,"trial_type":"ticket-choose","trial_index":28,"time_elapsed":683660,"internal_node_id":"0.0-28.0"},{"result":183,"points":1,"place":2,"phase":0,"sequence":9,"prices":[203,183,205,200,186,168,180,206,196,204],"times":[2323,1032],"next_num":2,"trial_type":"ticket-choose","trial_index":29,"time_elapsed":689261,"internal_node_id":"0.0-29.0"},{"result":183,"points":2,"place":1,"phase":0,"sequence":10,"prices":[195,206,196,244,199,207,183,185,173,230],"times":[1426,574,1103,595,1134,611,1621],"next_num":7,"trial_type":"ticket-choose","trial_index":30,"time_elapsed":699703,"internal_node_id":"0.0-30.0"},{"result":170,"points":3,"place":0,"phase":0,"sequence":11,"prices":[209,170,195,180,208,227,178,214,198,219],"times":[1291,1422],"next_num":2,"trial_type":"ticket-choose","trial_index":31,"time_elapsed":705281,"internal_node_id":"0.0-31.0"},{"result":179,"points":1,"place":2,"phase":0,"sequence":12,"prices":[200,179,169,195,205,161,183,194,198,227],"times":[2119,1138],"next_num":2,"trial_type":"ticket-choose","trial_index":32,"time_elapsed":710671,"internal_node_id":"0.0-32.0"},{"result":198,"points":1,"place":4,"phase":0,"sequence":13,"prices":[194,206,187,245,201,208,198,188,228,176],"times":[1036,1119,850,693,568,659,742],"next_num":7,"trial_type":"ticket-choose","trial_index":33,"time_elapsed":719472,"internal_node_id":"0.0-33.0"},{"result":176,"points":3,"place":0,"phase":0,"sequence":14,"prices":[176,221,182,186,205,234,185,222,224,199],"times":[2058],"next_num":1,"trial_type":"ticket-choose","trial_index":34,"time_elapsed":723755,"internal_node_id":"0.0-34.0"},{"result":179,"points":3,"place":0,"phase":0,"sequence":15,"prices":[179,203,186,188,193,225,187,207,211,190],"times":[1001],"next_num":1,"trial_type":"ticket-choose","trial_index":35,"time_elapsed":726603,"internal_node_id":"0.0-35.0"},{"result":195,"points":1,"place":3,"phase":0,"sequence":16,"prices":[195,206,183,244,199,207,196,185,173,230],"times":[700],"next_num":1,"trial_type":"ticket-choose","trial_index":36,"time_elapsed":729189,"internal_node_id":"0.0-36.0"},{"result":199,"points":0,"place":5,"phase":0,"sequence":17,"prices":[195,206,198,245,199,207,187,189,229,173],"times":[1289,939,829,645,837],"next_num":5,"trial_type":"ticket-choose","trial_index":37,"time_elapsed":736404,"internal_node_id":"0.0-37.0"},{"result":178,"points":2,"place":1,"phase":0,"sequence":18,"prices":[195,206,197,243,200,207,178,186,229,173],"times":[1567,832,1529,747,824,1085,881],"next_num":7,"trial_type":"ticket-choose","trial_index":38,"time_elapsed":747488,"internal_node_id":"0.0-38.0"},{"result":187,"points":2,"place":1,"phase":0,"sequence":19,"prices":[194,206,198,245,201,208,187,188,228,176],"times":[1833,697,718,621,611,655,985],"next_num":7,"trial_type":"ticket-choose","trial_index":39,"time_elapsed":757017,"internal_node_id":"0.0-39.0"},{"result":187,"points":2,"place":1,"phase":0,"sequence":20,"prices":[195,205,187,244,201,206,198,188,228,176],"times":[1212,813,1798],"next_num":3,"trial_type":"ticket-choose","trial_index":40,"time_elapsed":763127,"internal_node_id":"0.0-40.0"},{"result":184,"points":3,"place":0,"phase":0,"sequence":21,"prices":[232,212,208,204,187,213,209,184,196,190],"times":[593,604,620,647,1581,603,558,933],"next_num":8,"trial_type":"ticket-choose","trial_index":41,"time_elapsed":773836,"internal_node_id":"0.0-41.0"},{"result":178,"points":2,"place":1,"phase":0,"sequence":22,"prices":[196,205,178,245,200,206,197,186,229,174],"times":[965,599,1298],"next_num":3,"trial_type":"ticket-choose","trial_index":42,"time_elapsed":779137,"internal_node_id":"0.0-42.0"},{"result":187,"points":2,"place":1,"phase":0,"sequence":23,"prices":[195,207,198,245,199,207,187,189,228,173],"times":[955,741,844,646,944,603,912],"next_num":7,"trial_type":"ticket-choose","trial_index":43,"time_elapsed":787947,"internal_node_id":"0.0-43.0"},{"result":186,"points":1,"place":2,"phase":0,"sequence":24,"prices":[196,206,183,246,199,207,196,186,173,228],"times":[727,895,1254,567,817,692,809,1004],"next_num":8,"trial_type":"ticket-choose","trial_index":44,"time_elapsed":798159,"internal_node_id":"0.0-44.0"},{"result":188,"points":1,"place":2,"phase":0,"sequence":25,"prices":[188,219,216,218,205,215,247,183,197,186],"times":[1799],"next_num":1,"trial_type":"ticket-choose","trial_index":45,"time_elapsed":802003,"internal_node_id":"0.0-45.0"},{"result":178,"points":2,"place":1,"phase":0,"sequence":26,"prices":[195,206,178,243,200,207,197,186,229,173],"times":[802,611,910],"next_num":3,"trial_type":"ticket-choose","trial_index":46,"time_elapsed":806762,"internal_node_id":"0.0-46.0"},{"result":175,"points":2,"place":1,"phase":0,"sequence":27,"prices":[221,227,175,178,176,185,187,155,198,197],"times":[703,601,1097],"next_num":3,"trial_type":"ticket-choose","trial_index":47,"time_elapsed":811712,"internal_node_id":"0.0-47.0"},{"result":177,"points":3,"place":0,"phase":0,"sequence":28,"prices":[221,207,177,204,218,199,208,205,198,190],"times":[2110,726,1052],"next_num":3,"trial_type":"ticket-choose","trial_index":48,"time_elapsed":818059,"internal_node_id":"0.0-48.0"},{"result":168,"points":3,"place":0,"phase":0,"sequence":29,"prices":[168,191,170,183,187,240,182,206,207,185],"times":[1321],"next_num":1,"trial_type":"ticket-choose","trial_index":49,"time_elapsed":821415,"internal_node_id":"0.0-49.0"},{"result":177,"points":3,"place":0,"phase":0,"sequence":30,"prices":[177,211,185,195,202,223,190,215,220,196],"times":[1376],"next_num":1,"trial_type":"ticket-choose","trial_index":50,"time_elapsed":824679,"internal_node_id":"0.0-50.0"},{"result":175,"points":2,"place":1,"phase":0,"sequence":31,"prices":[201,175,168,181,188,207,192,219,196,214],"times":[914,879],"next_num":2,"trial_type":"ticket-choose","trial_index":51,"time_elapsed":828670,"internal_node_id":"0.0-51.0"},{"result":204,"points":1,"place":4,"phase":0,"sequence":32,"prices":[181,213,195,201,205,244,200,219,238,204],"times":[1196,673,852,751,597,614,658,616,647,879],"next_num":11,"trial_type":"ticket-choose","trial_index":52,"time_elapsed":840329,"internal_node_id":"0.0-52.0"},{"result":178,"points":2,"place":1,"phase":0,"sequence":33,"prices":[196,207,178,245,201,207,197,185,228,173],"times":[1078,590,990],"next_num":3,"trial_type":"ticket-choose","trial_index":53,"time_elapsed":845309,"internal_node_id":"0.0-53.0"},{"result":188,"points":1,"place":2,"phase":0,"sequence":34,"prices":[195,205,198,244,201,206,187,188,228,176],"times":[2449,820,898,878,685,640,556,773],"next_num":8,"trial_type":"ticket-choose","trial_index":54,"time_elapsed":856374,"internal_node_id":"0.0-54.0"},{"result":178,"points":3,"place":0,"phase":0,"sequence":35,"prices":[230,204,246,213,235,178,219,195,196,228],"times":[1220,748,591,602,687,1105],"next_num":6,"trial_type":"ticket-choose","trial_index":55,"time_elapsed":864442,"internal_node_id":"0.0-55.0"},{"result":178,"points":2,"place":1,"phase":0,"sequence":36,"prices":[196,205,197,245,200,206,178,186,229,174],"times":[4784,604,806,638,643,649,967],"next_num":7,"trial_type":"ticket-choose","trial_index":56,"time_elapsed":877029,"internal_node_id":"0.0-56.0"},{"result":178,"points":2,"place":1,"phase":0,"sequence":37,"prices":[195,206,197,243,201,208,178,187,228,174],"times":[885,523,764,653,636,728,1039],"next_num":7,"trial_type":"ticket-choose","trial_index":57,"time_elapsed":885415,"internal_node_id":"0.0-57.0"},{"result":183,"points":2,"place":1,"phase":0,"sequence":38,"prices":[218,213,189,183,222,202,172,184,197,191],"times":[716,531,537,1592],"next_num":4,"trial_type":"ticket-choose","trial_index":58,"time_elapsed":891413,"internal_node_id":"0.0-58.0"},{"result":183,"points":2,"place":1,"phase":0,"sequence":39,"prices":[196,206,196,246,199,207,183,186,173,228],"times":[2162,707,755,747,853,614,950],"next_num":7,"trial_type":"ticket-choose","trial_index":59,"time_elapsed":901571,"internal_node_id":"0.0-59.0"},{"result":163,"points":3,"place":0,"phase":0,"sequence":40,"prices":[242,193,222,217,163,225,218,203,198,206],"times":[1930,914,1107,910,1128],"next_num":5,"trial_type":"ticket-choose","trial_index":60,"time_elapsed":910583,"internal_node_id":"0.0-60.0"},{"result":183,"points":2,"place":1,"phase":0,"sequence":41,"prices":[194,206,183,245,201,207,196,186,173,229],"times":[1305,628,1461],"next_num":3,"trial_type":"ticket-choose","trial_index":61,"time_elapsed":916241,"internal_node_id":"0.0-61.0"},{"result":217,"points":0,"place":8,"phase":0,"sequence":42,"prices":[188,212,191,198,208,237,192,215,217,206],"times":[1056,1699,612,659,704,647,851,816,1285],"next_num":9,"trial_type":"ticket-choose","trial_index":62,"time_elapsed":928352,"internal_node_id":"0.0-62.0"},{"result":183,"points":2,"place":1,"phase":0,"sequence":43,"prices":[194,206,196,245,201,207,183,186,173,229],"times":[1103,584,602,719,640,593,927],"next_num":7,"trial_type":"ticket-choose","trial_index":63,"time_elapsed":936523,"internal_node_id":"0.0-63.0"},{"result":189,"points":2,"place":1,"phase":0,"sequence":44,"prices":[201,235,189,167,202,213,197,204,196,199],"times":[789,570,2387],"next_num":3,"trial_type":"ticket-choose","trial_index":64,"time_elapsed":942481,"internal_node_id":"0.0-64.0"},{"result":174,"points":3,"place":0,"phase":0,"sequence":45,"prices":[208,220,185,192,218,194,197,174,197,200],"times":[738,541,828,618,715,836,613,878],"next_num":8,"trial_type":"ticket-choose","trial_index":65,"time_elapsed":951999,"internal_node_id":"0.0-65.0"},{"result":183,"points":2,"place":1,"phase":0,"sequence":46,"prices":[195,207,196,246,200,208,183,185,174,228],"times":[1530,607,715,687,629,586,1201],"next_num":7,"trial_type":"ticket-choose","trial_index":66,"time_elapsed":961225,"internal_node_id":"0.0-66.0"},{"result":174,"points":2,"place":1,"phase":0,"sequence":47,"prices":[170,205,174,181,193,219,175,208,211,188],"times":[1210,531,1109],"next_num":3,"trial_type":"ticket-choose","trial_index":67,"time_elapsed":966517,"internal_node_id":"0.0-67.0"},{"result":178,"points":2,"place":1,"phase":0,"sequence":48,"prices":[195,206,178,243,201,208,197,187,228,174],"times":[1154,664,1094],"next_num":3,"trial_type":"ticket-choose","trial_index":68,"time_elapsed":971952,"internal_node_id":"0.0-68.0"},{"result":185,"points":3,"place":0,"phase":0,"sequence":49,"prices":[209,187,200,217,185,188,192,233,198,191],"times":[1200,1036,600,621,967],"next_num":5,"trial_type":"ticket-choose","trial_index":69,"time_elapsed":979430,"internal_node_id":"0.0-69.0"},{"responses":[{"value":2,"offby":2,"category":"$145 - $160","category_index":0},{"value":5,"offby":4,"category":"$161 - $175","category_index":1},{"value":8,"offby":5,"category":"$176 - $190","category_index":2},{"value":3,"offby":-4,"category":"$191 - $205","category_index":3},{"value":1,"offby":-5,"category":"$206 - $220","category_index":4},{"value":1,"offby":-2,"category":"$221 - $235","category_index":5},{"value":0,"offby":0,"category":"$226 - $260","category_index":6}],"phase":0,"number":1,"trial_type":"bar-choose","trial_index":70,"time_elapsed":1055439,"internal_node_id":"0.0-70.0"},{"rt":1763,"url":"\/tickets\/utils\/start2.html","trial_type":"html","trial_index":71,"time_elapsed":1059090,"internal_node_id":"0.0-71.0"},{"trial_type":"number-animation","trial_index":72,"time_elapsed":1102495,"internal_node_id":"0.0-72.0"},{"phase":1,"sequence":0,"avg":162,"response":145,"trial_type":"training_avg","trial_index":73,"time_elapsed":1122713,"internal_node_id":"0.0-73.0"},{"trial_type":"number-animation","trial_index":74,"time_elapsed":1163999,"internal_node_id":"0.0-74.0"},{"phase":1,"sequence":1,"avg":158,"response":157,"trial_type":"training_avg","trial_index":75,"time_elapsed":1175715,"internal_node_id":"0.0-75.0"},{"trial_type":"number-animation","trial_index":76,"time_elapsed":1232347,"internal_node_id":"0.0-76.0"},{"phase":1,"sequence":2,"avg":166,"response":165,"trial_type":"training_avg","trial_index":77,"time_elapsed":1244508,"internal_node_id":"0.0-77.0"},{"trial_type":"number-animation","trial_index":78,"time_elapsed":1277005,"internal_node_id":"0.0-78.0"},{"phase":1,"sequence":3,"avg":153,"response":155,"trial_type":"training_avg","trial_index":79,"time_elapsed":1296798,"internal_node_id":"0.0-79.0"},{"trial_type":"number-animation","trial_index":80,"time_elapsed":1308514,"internal_node_id":"0.0-80.0"},{"phase":1,"sequence":4,"avg":164,"response":145,"trial_type":"training_avg","trial_index":81,"time_elapsed":1317650,"internal_node_id":"0.0-81.0"},{"responses":[{"value":5,"offby":5,"category":"$105 - $120","category_index":0},{"value":5,"offby":4,"category":"$121 - $135","category_index":1},{"value":5,"offby":2,"category":"$136 - $150","category_index":2},{"value":2,"offby":-5,"category":"$151 - $165","category_index":3},{"value":1,"offby":-5,"category":"$166 - $180","category_index":4},{"value":1,"offby":-2,"category":"$181 - $195","category_index":5},{"value":1,"offby":1,"category":"$196 - $210","category_index":6}],"phase":1,"number":0,"trial_type":"bar-choose","trial_index":82,"time_elapsed":1345575,"internal_node_id":"0.0-82.0"},{"rt":2996,"url":"\/tickets\/utils\/testing2.html","trial_type":"html","trial_index":83,"time_elapsed":1350570,"internal_node_id":"0.0-83.0"},{"phase":1,"order":[32,11,10,1,47,35,28,22,26,49,7,40,44,8,25,33,3,14,20,12,9,45,19,15,0,38,16,41,43,31,30,34,24,18,13,46,23,21,37,4,42,2,27,6,48,36,5,29,17,39],"trial_type":"store_order","trial_index":84,"time_elapsed":1351572,"internal_node_id":"0.0-84.0"},{"result":155,"points":1,"place":3,"phase":1,"sequence":0,"prices":[155,166,156,204,159,167,143,145,133,190],"times":[6848],"next_num":1,"trial_type":"ticket-choose","trial_index":85,"time_elapsed":1360932,"internal_node_id":"0.0-85.0"},{"result":160,"points":1,"place":2,"phase":1,"sequence":1,"prices":[141,173,155,161,165,204,160,179,198,164],"times":[1689,619,576,646,569,685,940],"next_num":7,"trial_type":"ticket-choose","trial_index":86,"time_elapsed":1369812,"internal_node_id":"0.0-86.0"},{"result":138,"points":2,"place":1,"phase":1,"sequence":2,"prices":[155,166,138,203,161,168,157,147,188,134],"times":[635,548,928],"next_num":3,"trial_type":"ticket-choose","trial_index":87,"time_elapsed":1374309,"internal_node_id":"0.0-87.0"},{"result":143,"points":2,"place":1,"phase":1,"sequence":3,"prices":[154,166,143,205,161,167,156,146,133,189],"times":[603,465,1015],"next_num":3,"trial_type":"ticket-choose","trial_index":88,"time_elapsed":1378578,"internal_node_id":"0.0-88.0"},{"result":148,"points":1,"place":2,"phase":1,"sequence":4,"prices":[154,166,158,205,161,168,147,148,188,136],"times":[521,448,530,778,1048,649,656,1274],"next_num":8,"trial_type":"ticket-choose","trial_index":89,"time_elapsed":1387953,"internal_node_id":"0.0-89.0"},{"result":138,"points":2,"place":1,"phase":1,"sequence":5,"prices":[155,166,157,203,160,167,138,146,189,133],"times":[652,245,808,451,319,710,860],"next_num":7,"trial_type":"ticket-choose","trial_index":90,"time_elapsed":1395168,"internal_node_id":"0.0-90.0"},{"result":133,"points":3,"place":0,"phase":1,"sequence":6,"prices":[154,166,156,205,161,167,143,146,133,189],"times":[1070,639,482,593,747,715,593,553,904],"next_num":9,"trial_type":"ticket-choose","trial_index":91,"time_elapsed":1405332,"internal_node_id":"0.0-91.0"},{"result":143,"points":2,"place":1,"phase":1,"sequence":7,"prices":[156,166,156,206,159,167,143,146,133,188],"times":[765,510,657,735,575,689,979],"next_num":7,"trial_type":"ticket-choose","trial_index":92,"time_elapsed":1413490,"internal_node_id":"0.0-92.0"},{"result":143,"points":1,"place":2,"phase":1,"sequence":8,"prices":[163,143,165,160,146,128,140,166,156,164],"times":[686,1146],"next_num":2,"trial_type":"ticket-choose","trial_index":93,"time_elapsed":1417337,"internal_node_id":"0.0-93.0"},{"result":156,"points":1,"place":4,"phase":1,"sequence":9,"prices":[137,171,145,155,162,183,150,175,180,156],"times":[632,581,513,523,601,655,570,545,586,608],"next_num":11,"trial_type":"ticket-choose","trial_index":94,"time_elapsed":1427242,"internal_node_id":"0.0-94.0"},{"result":132,"points":3,"place":0,"phase":1,"sequence":10,"prices":[180,161,183,132,155,151,140,134,156,171],"times":[1138,615,621,894],"next_num":4,"trial_type":"ticket-choose","trial_index":95,"time_elapsed":1432973,"internal_node_id":"0.0-95.0"},{"result":143,"points":2,"place":1,"phase":1,"sequence":11,"prices":[178,173,149,143,182,162,132,144,157,151],"times":[994,567,601,947],"next_num":4,"trial_type":"ticket-choose","trial_index":96,"time_elapsed":1438536,"internal_node_id":"0.0-96.0"},{"result":123,"points":3,"place":0,"phase":1,"sequence":12,"prices":[202,153,182,177,123,185,178,163,158,166],"times":[909,981,775,804,884],"next_num":5,"trial_type":"ticket-choose","trial_index":97,"time_elapsed":1446015,"internal_node_id":"0.0-97.0"},{"result":128,"points":3,"place":0,"phase":1,"sequence":13,"prices":[161,135,128,141,148,167,152,179,156,174],"times":[834,640,1872],"next_num":3,"trial_type":"ticket-choose","trial_index":98,"time_elapsed":1451757,"internal_node_id":"0.0-98.0"},{"result":158,"points":1,"place":4,"phase":1,"sequence":14,"prices":[154,166,147,205,161,168,158,148,188,136],"times":[1142,647,909,726,664,1854,978],"next_num":7,"trial_type":"ticket-choose","trial_index":99,"time_elapsed":1461805,"internal_node_id":"0.0-99.0"},{"result":133,"points":3,"place":0,"phase":1,"sequence":15,"prices":[155,166,158,205,159,167,147,149,189,133],"times":[1131,474,499,744,720,670,921,650,629,868],"next_num":10,"trial_type":"ticket-choose","trial_index":100,"time_elapsed":1473159,"internal_node_id":"0.0-100.0"},{"result":127,"points":3,"place":0,"phase":1,"sequence":16,"prices":[161,195,149,127,162,173,157,164,156,159],"times":[1108,601,521,889],"next_num":4,"trial_type":"ticket-choose","trial_index":101,"time_elapsed":1478789,"internal_node_id":"0.0-101.0"},{"result":145,"points":2,"place":1,"phase":1,"sequence":17,"prices":[168,180,145,152,178,154,157,134,157,160],"times":[604,360,969],"next_num":3,"trial_type":"ticket-choose","trial_index":102,"time_elapsed":1482858,"internal_node_id":"0.0-102.0"},{"result":165,"points":1,"place":4,"phase":1,"sequence":18,"prices":[149,176,150,164,167,191,151,181,182,165],"times":[1049,575,1016,709,628,657,919,800,717,746],"next_num":11,"trial_type":"ticket-choose","trial_index":103,"time_elapsed":1494669,"internal_node_id":"0.0-103.0"},{"result":147,"points":2,"place":1,"phase":1,"sequence":19,"prices":[169,147,160,177,145,148,152,193,158,151],"times":[960,1031],"next_num":2,"trial_type":"ticket-choose","trial_index":104,"time_elapsed":1498778,"internal_node_id":"0.0-104.0"},{"result":138,"points":2,"place":1,"phase":1,"sequence":20,"prices":[156,165,138,205,160,166,157,146,189,134],"times":[1010,610,887],"next_num":3,"trial_type":"ticket-choose","trial_index":105,"time_elapsed":1503512,"internal_node_id":"0.0-105.0"},{"result":129,"points":2,"place":1,"phase":1,"sequence":21,"prices":[160,139,129,155,165,121,143,154,158,187],"times":[1045,488,769],"next_num":3,"trial_type":"ticket-choose","trial_index":106,"time_elapsed":1508036,"internal_node_id":"0.0-106.0"},{"result":150,"points":1,"place":4,"phase":1,"sequence":22,"prices":[139,163,146,148,153,185,147,167,171,150],"times":[743,539,829,721,854,702,786,823,801,709],"next_num":11,"trial_type":"ticket-choose","trial_index":107,"time_elapsed":1519531,"internal_node_id":"0.0-107.0"},{"result":124,"points":3,"place":0,"phase":1,"sequence":23,"prices":[148,134,152,165,175,124,164,191,157,207],"times":[1138,597,898,636,708,812],"next_num":6,"trial_type":"ticket-choose","trial_index":108,"time_elapsed":1527261,"internal_node_id":"0.0-108.0"},{"result":130,"points":3,"place":0,"phase":1,"sequence":24,"prices":[130,165,134,141,153,179,135,168,171,148],"times":[1342],"next_num":1,"trial_type":"ticket-choose","trial_index":109,"time_elapsed":1530384,"internal_node_id":"0.0-109.0"},{"result":167,"points":0,"place":7,"phase":1,"sequence":25,"prices":[156,166,143,206,159,167,156,146,133,188],"times":[870,620,648,723,642,984],"next_num":6,"trial_type":"ticket-choose","trial_index":110,"time_elapsed":1537642,"internal_node_id":"0.0-110.0"},{"result":134,"points":3,"place":0,"phase":1,"sequence":26,"prices":[155,166,157,203,161,168,138,147,188,134],"times":[1298,612,585,711,884,942,587,680,772,866],"next_num":10,"trial_type":"ticket-choose","trial_index":111,"time_elapsed":1549489,"internal_node_id":"0.0-111.0"},{"result":133,"points":3,"place":0,"phase":1,"sequence":27,"prices":[155,167,147,205,159,167,158,149,188,133],"times":[1642,575,564,657,663,813,605,1045,594,781],"next_num":10,"trial_type":"ticket-choose","trial_index":112,"time_elapsed":1561324,"internal_node_id":"0.0-112.0"},{"result":136,"points":3,"place":0,"phase":1,"sequence":28,"prices":[155,165,147,204,161,166,158,148,188,136],"times":[697,496,733,576,644,665,718,905,852,893],"next_num":10,"trial_type":"ticket-choose","trial_index":113,"time_elapsed":1572916,"internal_node_id":"0.0-113.0"},{"result":130,"points":3,"place":0,"phase":1,"sequence":29,"prices":[169,130,155,140,168,187,138,174,158,179],"times":[1920,2113],"next_num":2,"trial_type":"ticket-choose","trial_index":114,"time_elapsed":1579206,"internal_node_id":"0.0-114.0"},{"result":138,"points":2,"place":1,"phase":1,"sequence":30,"prices":[155,166,138,203,160,167,157,146,189,133],"times":[984,647,950],"next_num":3,"trial_type":"ticket-choose","trial_index":115,"time_elapsed":1584132,"internal_node_id":"0.0-115.0"},{"result":133,"points":3,"place":0,"phase":1,"sequence":31,"prices":[155,166,143,204,159,167,156,145,133,190],"times":[778,664,976,780,591,642,913,1619,909],"next_num":9,"trial_type":"ticket-choose","trial_index":116,"time_elapsed":1595718,"internal_node_id":"0.0-116.0"},{"result":138,"points":2,"place":1,"phase":1,"sequence":32,"prices":[156,165,157,205,160,166,138,146,189,134],"times":[1521,820,10191,817,10661,764,991],"next_num":7,"trial_type":"ticket-choose","trial_index":117,"time_elapsed":1626701,"internal_node_id":"0.0-117.0"},{"result":166,"points":1,"place":4,"phase":1,"sequence":33,"prices":[148,172,151,158,168,197,152,175,177,166],"times":[1847,1181,938,847,791,672,735,776,697,1007],"next_num":10,"trial_type":"ticket-choose","trial_index":118,"time_elapsed":1640457,"internal_node_id":"0.0-118.0"},{"result":136,"points":3,"place":0,"phase":1,"sequence":34,"prices":[136,181,142,146,165,194,145,182,184,159],"times":[5566],"next_num":1,"trial_type":"ticket-choose","trial_index":119,"time_elapsed":1648206,"internal_node_id":"0.0-119.0"},{"result":133,"points":3,"place":0,"phase":1,"sequence":35,"prices":[155,167,158,205,159,167,147,149,188,133],"times":[1202,902,3617,787,893,674,1039,837,812,803],"next_num":10,"trial_type":"ticket-choose","trial_index":120,"time_elapsed":1663952,"internal_node_id":"0.0-120.0"},{"result":143,"points":3,"place":0,"phase":1,"sequence":36,"prices":[148,179,176,178,165,175,207,143,157,146],"times":[885,1023,811,746,1463,1397,672,4843],"next_num":8,"trial_type":"ticket-choose","trial_index":121,"time_elapsed":1680783,"internal_node_id":"0.0-121.0"},{"result":168,"points":1,"place":4,"phase":1,"sequence":37,"prices":[141,173,147,167,170,204,154,174,175,168],"times":[1513,654,611,632,717,752,925,842,720,702],"next_num":11,"trial_type":"ticket-choose","trial_index":122,"time_elapsed":1692888,"internal_node_id":"0.0-122.0"},{"result":135,"points":2,"place":1,"phase":1,"sequence":38,"prices":[181,187,135,138,136,145,147,115,158,157],"times":[865,629,20467],"next_num":3,"trial_type":"ticket-choose","trial_index":123,"time_elapsed":1723354,"internal_node_id":"0.0-123.0"},{"result":144,"points":3,"place":0,"phase":1,"sequence":39,"prices":[192,172,168,164,147,173,169,144,156,150],"times":[1575,661,695,607,600,755,1344,1001],"next_num":8,"trial_type":"ticket-choose","trial_index":124,"time_elapsed":1734315,"internal_node_id":"0.0-124.0"},{"result":132,"points":3,"place":0,"phase":1,"sequence":40,"prices":[132,180,138,153,162,187,141,182,184,160],"times":[1848],"next_num":1,"trial_type":"ticket-choose","trial_index":125,"time_elapsed":1738057,"internal_node_id":"0.0-125.0"},{"result":128,"points":3,"place":0,"phase":1,"sequence":41,"prices":[128,151,130,143,147,200,142,166,167,145],"times":[956],"next_num":1,"trial_type":"ticket-choose","trial_index":126,"time_elapsed":1740921,"internal_node_id":"0.0-126.0"},{"result":134,"points":3,"place":0,"phase":1,"sequence":42,"prices":[155,167,156,206,160,168,143,145,134,188],"times":[1216,635,605,718,627,671,2348,643,654],"next_num":9,"trial_type":"ticket-choose","trial_index":127,"time_elapsed":1753668,"internal_node_id":"0.0-127.0"},{"result":138,"points":2,"place":1,"phase":1,"sequence":43,"prices":[156,167,157,205,161,167,138,145,188,133],"times":[1022,625,782,730,841,934,911],"next_num":7,"trial_type":"ticket-choose","trial_index":128,"time_elapsed":1762920,"internal_node_id":"0.0-128.0"},{"result":149,"points":1,"place":2,"phase":1,"sequence":44,"prices":[155,166,147,205,159,167,158,149,189,133],"times":[1003,578,602,628,666,708,1038,877],"next_num":8,"trial_type":"ticket-choose","trial_index":129,"time_elapsed":1772955,"internal_node_id":"0.0-129.0"},{"result":138,"points":3,"place":0,"phase":1,"sequence":45,"prices":[190,164,206,173,195,138,179,155,156,188],"times":[1040,668,669,896,732,917],"next_num":6,"trial_type":"ticket-choose","trial_index":130,"time_elapsed":1781046,"internal_node_id":"0.0-130.0"},{"result":138,"points":2,"place":1,"phase":1,"sequence":46,"prices":[156,167,138,205,161,167,157,145,188,133],"times":[894,691,766],"next_num":3,"trial_type":"ticket-choose","trial_index":131,"time_elapsed":1785703,"internal_node_id":"0.0-131.0"},{"result":137,"points":3,"place":0,"phase":1,"sequence":47,"prices":[181,167,137,164,178,159,168,165,158,150],"times":[599,627,1150],"next_num":3,"trial_type":"ticket-choose","trial_index":132,"time_elapsed":1790330,"internal_node_id":"0.0-132.0"},{"result":147,"points":2,"place":1,"phase":1,"sequence":48,"prices":[155,165,158,204,161,166,147,148,188,136],"times":[752,627,768,678,791,631,2308],"next_num":7,"trial_type":"ticket-choose","trial_index":133,"time_elapsed":1799961,"internal_node_id":"0.0-133.0"},{"result":143,"points":2,"place":1,"phase":1,"sequence":49,"prices":[155,167,143,206,160,168,156,145,134,188],"times":[858,612,957],"next_num":3,"trial_type":"ticket-choose","trial_index":134,"time_elapsed":1804702,"internal_node_id":"0.0-134.0"},{"responses":[{"value":0,"offby":0,"category":"$105 - $120","category_index":0},{"value":1,"offby":0,"category":"$121 - $135","category_index":1},{"value":5,"offby":2,"category":"$136 - $150","category_index":2},{"value":7,"offby":0,"category":"$151 - $165","category_index":3},{"value":5,"offby":-1,"category":"$166 - $180","category_index":4},{"value":1,"offby":-2,"category":"$181 - $195","category_index":5},{"value":1,"offby":1,"category":"$196 - $210","category_index":6}],"phase":1,"number":1,"trial_type":"bar-choose","trial_index":135,"time_elapsed":1843226,"internal_node_id":"0.0-135.0"},{"special_comment":"not really","trial_type":"special_sequence","trial_index":136,"time_elapsed":1854466,"internal_node_id":"0.0-136.0"},{"during":"Nothing","bonus":276,"trial_type":"final","trial_index":137,"time_elapsed":1957103,"internal_node_id":"0.0-137.0"}],"bonus":276}