{"start_time":"2017-02-21 10:51:58","end_time":"2017-02-21 11:26:04","points_phase0":109,"points_phase1":107,"phase_order":0,"age":37,"gender":"m","tries":1,"during":"Nothing","worker_id":"A2VRDE2FHCBMF8","assignment_id":"3IFS6Q0HJJC4GMB0FSLHEZM7YE0SI9","data":[{"rt":11140,"url":"\/tickets\/utils\/consent.html","trial_type":"html","trial_index":0,"time_elapsed":11407,"internal_node_id":"0.0-0.0"},{"age":37,"gender":"m","trial_type":"age","trial_index":1,"time_elapsed":18495,"internal_node_id":"0.0-1.0"},{"worker_id":"A2VRDE2FHCBMF8","trial_type":"workerid","trial_index":2,"time_elapsed":26779,"internal_node_id":"0.0-2.0"},{"tries":1,"trial_type":"instructions_check","trial_index":3,"time_elapsed":88981,"internal_node_id":"0.0-3.0"},{"rt":16686,"url":"\/tickets\/utils\/start.html","trial_type":"html","trial_index":4,"time_elapsed":106801,"internal_node_id":"0.0-4.0"},{"trial_type":"number-animation","trial_index":5,"time_elapsed":217932,"internal_node_id":"0.0-5.0"},{"phase":0,"sequence":0,"avg":181,"response":180,"trial_type":"training_avg","trial_index":6,"time_elapsed":256783,"internal_node_id":"0.0-6.0"},{"trial_type":"number-animation","trial_index":7,"time_elapsed":301960,"internal_node_id":"0.0-7.0"},{"phase":0,"sequence":1,"avg":188,"response":185,"trial_type":"training_avg","trial_index":8,"time_elapsed":331120,"internal_node_id":"0.0-8.0"},{"trial_type":"number-animation","trial_index":9,"time_elapsed":379947,"internal_node_id":"0.0-9.0"},{"phase":0,"sequence":2,"avg":188,"response":190,"trial_type":"training_avg","trial_index":10,"time_elapsed":400609,"internal_node_id":"0.0-10.0"},{"trial_type":"number-animation","trial_index":11,"time_elapsed":452961,"internal_node_id":"0.0-11.0"},{"phase":0,"sequence":3,"avg":177,"response":180,"trial_type":"training_avg","trial_index":12,"time_elapsed":469248,"internal_node_id":"0.0-12.0"},{"trial_type":"number-animation","trial_index":13,"time_elapsed":505991,"internal_node_id":"0.0-13.0"},{"phase":0,"sequence":4,"avg":182,"response":182,"trial_type":"training_avg","trial_index":14,"time_elapsed":526379,"internal_node_id":"0.0-14.0"},{"responses":[{"value":0,"offby":0,"category":"$106 - $134","category_index":0},{"value":1,"offby":0,"category":"$135 - $150","category_index":1},{"value":2,"offby":-1,"category":"$151 - $165","category_index":2},{"value":7,"offby":1,"category":"$166 - $180","category_index":3},{"value":6,"offby":0,"category":"$181 - $195","category_index":4},{"value":3,"offby":0,"category":"$196 - $210","category_index":5},{"value":1,"offby":0,"category":"$211 - $225","category_index":6}],"phase":0,"number":0,"trial_type":"bar-choose","trial_index":15,"time_elapsed":664860,"internal_node_id":"0.0-15.0"},{"rt":34556,"url":"\/tickets\/\/utils\/testing.html","trial_type":"html","trial_index":16,"time_elapsed":700560,"internal_node_id":"0.0-16.0"},{"phase":0,"order":[49,20,46,30,31,39,16,3,5,29,15,32,13,11,9,40,0,12,21,42,37,18,23,47,34,14,48,1,35,28,19,22,6,41,25,27,2,33,26,4,8,38,45,17,36,44,24,43,10,7],"trial_type":"store_order","trial_index":17,"time_elapsed":701576,"internal_node_id":"0.0-17.0"},{"result":126,"points":3,"place":0,"phase":0,"sequence":-1,"prices":[184,180,224,165,181,199,185,193,218,126],"times":[2897,1050,1126,2418,818,1026,918,821,771,1146],"next_num":10,"trial_type":"ticket-choose","trial_index":18,"time_elapsed":720131,"internal_node_id":"0.0-18.0"},{"rt":18043,"url":"\/tickets\/utils\/testing_after.html","trial_type":"html","trial_index":19,"time_elapsed":739305,"internal_node_id":"0.0-19.0"},{"result":148,"points":3,"place":0,"phase":0,"sequence":0,"prices":[183,163,185,180,166,148,160,186,176,184],"times":[3234,4763,1102,952,1119,1426],"next_num":6,"trial_type":"ticket-choose","trial_index":20,"time_elapsed":758007,"internal_node_id":"0.0-20.0"},{"result":158,"points":2,"place":1,"phase":0,"sequence":1,"prices":[175,186,177,221,180,187,158,166,209,153],"times":[5221,790,694,728,703,722,1486],"next_num":7,"trial_type":"ticket-choose","trial_index":21,"time_elapsed":773423,"internal_node_id":"0.0-21.0"},{"result":158,"points":3,"place":0,"phase":0,"sequence":2,"prices":[210,184,226,193,215,158,199,175,176,208],"times":[1595,767,841,739,752,1261],"next_num":6,"trial_type":"ticket-choose","trial_index":22,"time_elapsed":783689,"internal_node_id":"0.0-22.0"},{"result":176,"points":1,"place":4,"phase":0,"sequence":3,"prices":[157,191,165,175,182,203,170,195,200,176],"times":[3246,708,732,756,685,779,715,724,705,894],"next_num":10,"trial_type":"ticket-choose","trial_index":23,"time_elapsed":799185,"internal_node_id":"0.0-23.0"},{"result":148,"points":3,"place":0,"phase":0,"sequence":4,"prices":[148,171,150,163,167,220,162,186,187,165],"times":[1523],"next_num":1,"trial_type":"ticket-choose","trial_index":24,"time_elapsed":804480,"internal_node_id":"0.0-24.0"},{"result":165,"points":3,"place":0,"phase":0,"sequence":5,"prices":[189,167,180,197,165,168,172,213,178,171],"times":[1801,1129,669,747,1366],"next_num":5,"trial_type":"ticket-choose","trial_index":25,"time_elapsed":813818,"internal_node_id":"0.0-25.0"},{"result":158,"points":2,"place":1,"phase":0,"sequence":6,"prices":[175,186,158,211,180,187,177,166,209,153],"times":[3221,756,1386],"next_num":3,"trial_type":"ticket-choose","trial_index":26,"time_elapsed":822208,"internal_node_id":"0.0-26.0"},{"result":165,"points":1,"place":2,"phase":0,"sequence":7,"prices":[175,186,163,211,179,187,176,165,153,210],"times":[2227,623,1385,603,657,692,867,1404],"next_num":8,"trial_type":"ticket-choose","trial_index":27,"time_elapsed":835375,"internal_node_id":"0.0-27.0"},{"result":163,"points":2,"place":1,"phase":0,"sequence":8,"prices":[175,187,176,209,180,188,163,165,154,208],"times":[1456,667,741,715,651,706,1275],"next_num":7,"trial_type":"ticket-choose","trial_index":28,"time_elapsed":845128,"internal_node_id":"0.0-28.0"},{"result":150,"points":3,"place":0,"phase":0,"sequence":9,"prices":[150,185,154,161,173,199,155,188,191,168],"times":[1452],"next_num":1,"trial_type":"ticket-choose","trial_index":29,"time_elapsed":849426,"internal_node_id":"0.0-29.0"},{"result":167,"points":2,"place":1,"phase":0,"sequence":10,"prices":[175,187,178,209,179,187,167,169,208,153],"times":[4135,1250,677,664,683,734,1033],"next_num":7,"trial_type":"ticket-choose","trial_index":30,"time_elapsed":862056,"internal_node_id":"0.0-30.0"},{"result":161,"points":3,"place":0,"phase":0,"sequence":11,"prices":[161,193,167,187,190,224,174,194,195,188],"times":[1324],"next_num":1,"trial_type":"ticket-choose","trial_index":31,"time_elapsed":866018,"internal_node_id":"0.0-31.0"},{"result":167,"points":2,"place":1,"phase":0,"sequence":12,"prices":[175,185,178,215,181,186,167,168,208,156],"times":[1416,740,717,781,715,750,1121],"next_num":7,"trial_type":"ticket-choose","trial_index":32,"time_elapsed":875850,"internal_node_id":"0.0-32.0"},{"result":169,"points":1,"place":2,"phase":0,"sequence":13,"prices":[175,187,167,212,179,187,178,169,208,153],"times":[1195,677,938,694,713,700,1204,1039],"next_num":8,"trial_type":"ticket-choose","trial_index":33,"time_elapsed":887257,"internal_node_id":"0.0-33.0"},{"result":167,"points":2,"place":1,"phase":0,"sequence":14,"prices":[175,185,167,224,181,186,178,168,208,156],"times":[1044,631,1689],"next_num":3,"trial_type":"ticket-choose","trial_index":34,"time_elapsed":893333,"internal_node_id":"0.0-34.0"},{"result":150,"points":3,"place":0,"phase":0,"sequence":15,"prices":[189,150,175,160,188,207,158,194,178,199],"times":[1226,1138],"next_num":2,"trial_type":"ticket-choose","trial_index":35,"time_elapsed":898344,"internal_node_id":"0.0-35.0"},{"result":163,"points":2,"place":1,"phase":0,"sequence":16,"prices":[176,186,163,214,179,187,176,166,153,208],"times":[1016,625,1086],"next_num":3,"trial_type":"ticket-choose","trial_index":36,"time_elapsed":903656,"internal_node_id":"0.0-36.0"},{"result":167,"points":2,"place":1,"phase":0,"sequence":17,"prices":[174,186,178,217,181,188,167,168,208,156],"times":[924,647,585,619,676,643,1159],"next_num":7,"trial_type":"ticket-choose","trial_index":37,"time_elapsed":912432,"internal_node_id":"0.0-37.0"},{"result":158,"points":2,"place":1,"phase":0,"sequence":18,"prices":[175,186,177,209,181,188,158,167,208,154],"times":[1063,672,606,661,702,639,1175],"next_num":7,"trial_type":"ticket-choose","trial_index":38,"time_elapsed":921504,"internal_node_id":"0.0-38.0"},{"result":143,"points":3,"place":0,"phase":0,"sequence":19,"prices":[222,173,202,197,143,205,198,183,178,186],"times":[1157,607,656,622,1156],"next_num":5,"trial_type":"ticket-choose","trial_index":39,"time_elapsed":928880,"internal_node_id":"0.0-39.0"},{"result":163,"points":2,"place":1,"phase":0,"sequence":20,"prices":[198,193,169,163,202,182,152,164,177,171],"times":[1218,723,2239,1133],"next_num":4,"trial_type":"ticket-choose","trial_index":40,"time_elapsed":937251,"internal_node_id":"0.0-40.0"},{"result":153,"points":3,"place":0,"phase":0,"sequence":21,"prices":[176,187,158,210,181,187,177,165,208,153],"times":[1113,599,1198,634,674,772,692,1595,640,789],"next_num":10,"trial_type":"ticket-choose","trial_index":41,"time_elapsed":950210,"internal_node_id":"0.0-41.0"},{"result":158,"points":2,"place":1,"phase":0,"sequence":22,"prices":[176,185,177,218,180,186,158,166,209,154],"times":[1115,687,669,680,683,811,1053],"next_num":7,"trial_type":"ticket-choose","trial_index":42,"time_elapsed":959448,"internal_node_id":"0.0-42.0"},{"result":152,"points":3,"place":0,"phase":0,"sequence":23,"prices":[200,181,203,152,175,171,160,154,176,191],"times":[1021,696,668,1072],"next_num":4,"trial_type":"ticket-choose","trial_index":43,"time_elapsed":965897,"internal_node_id":"0.0-43.0"},{"result":155,"points":2,"place":1,"phase":0,"sequence":24,"prices":[181,155,148,161,168,187,172,199,176,194],"times":[2322,1164],"next_num":2,"trial_type":"ticket-choose","trial_index":44,"time_elapsed":972072,"internal_node_id":"0.0-44.0"},{"result":167,"points":2,"place":1,"phase":0,"sequence":25,"prices":[175,186,178,212,179,187,167,169,209,153],"times":[1098,712,723,668,641,723,1061],"next_num":7,"trial_type":"ticket-choose","trial_index":45,"time_elapsed":981103,"internal_node_id":"0.0-45.0"},{"result":147,"points":3,"place":0,"phase":0,"sequence":26,"prices":[181,215,169,147,182,193,177,184,176,179],"times":[1080,704,1492,1088],"next_num":4,"trial_type":"ticket-choose","trial_index":46,"time_elapsed":988415,"internal_node_id":"0.0-46.0"},{"result":163,"points":2,"place":1,"phase":0,"sequence":27,"prices":[175,187,163,209,180,188,176,165,154,208],"times":[2975,539,1040],"next_num":3,"trial_type":"ticket-choose","trial_index":47,"time_elapsed":995534,"internal_node_id":"0.0-47.0"},{"result":154,"points":2,"place":1,"phase":0,"sequence":28,"prices":[168,154,172,185,195,144,184,211,177,227],"times":[826,1472],"next_num":2,"trial_type":"ticket-choose","trial_index":48,"time_elapsed":1000216,"internal_node_id":"0.0-48.0"},{"result":185,"points":1,"place":4,"phase":0,"sequence":29,"prices":[169,196,170,184,187,211,171,201,202,185],"times":[929,621,576,670,621,670,632,723,668,1028],"next_num":10,"trial_type":"ticket-choose","trial_index":49,"time_elapsed":1011863,"internal_node_id":"0.0-49.0"},{"result":158,"points":2,"place":1,"phase":0,"sequence":30,"prices":[176,185,158,217,180,186,177,166,209,154],"times":[1095,662,1180],"next_num":3,"trial_type":"ticket-choose","trial_index":50,"time_elapsed":1017255,"internal_node_id":"0.0-50.0"},{"result":158,"points":2,"place":1,"phase":0,"sequence":31,"prices":[176,187,177,225,181,187,158,165,208,153],"times":[1502,630,628,658,658,676,1155],"next_num":7,"trial_type":"ticket-choose","trial_index":51,"time_elapsed":1026793,"internal_node_id":"0.0-51.0"},{"result":153,"points":3,"place":0,"phase":0,"sequence":32,"prices":[174,186,176,217,181,187,163,166,153,209],"times":[804,550,811,781,712,748,1107,1333,930],"next_num":9,"trial_type":"ticket-choose","trial_index":52,"time_elapsed":1038511,"internal_node_id":"0.0-52.0"},{"result":155,"points":2,"place":1,"phase":0,"sequence":33,"prices":[201,207,155,158,156,165,167,135,178,177],"times":[1064,536,1307],"next_num":3,"trial_type":"ticket-choose","trial_index":53,"time_elapsed":1044215,"internal_node_id":"0.0-53.0"},{"result":156,"points":3,"place":0,"phase":0,"sequence":34,"prices":[156,201,162,166,185,214,165,202,204,179],"times":[1470],"next_num":1,"trial_type":"ticket-choose","trial_index":54,"time_elapsed":1047897,"internal_node_id":"0.0-54.0"},{"result":186,"points":1,"place":4,"phase":0,"sequence":35,"prices":[168,192,171,178,188,217,172,195,197,186],"times":[1228,725,643,889,627,659,1787,685,660,776],"next_num":10,"trial_type":"ticket-choose","trial_index":55,"time_elapsed":1060585,"internal_node_id":"0.0-55.0"},{"result":163,"points":2,"place":1,"phase":0,"sequence":36,"prices":[174,186,163,212,181,187,176,166,153,209],"times":[1254,646,1065],"next_num":3,"trial_type":"ticket-choose","trial_index":56,"time_elapsed":1066009,"internal_node_id":"0.0-56.0"},{"result":159,"points":3,"place":0,"phase":0,"sequence":37,"prices":[159,183,166,168,173,205,167,187,191,170],"times":[1610],"next_num":1,"trial_type":"ticket-choose","trial_index":57,"time_elapsed":1069782,"internal_node_id":"0.0-57.0"},{"result":180,"points":1,"place":4,"phase":0,"sequence":38,"prices":[152,200,158,173,182,207,161,202,204,180],"times":[862,654,1527,638,683,615,1554,619,588,716],"next_num":10,"trial_type":"ticket-choose","trial_index":58,"time_elapsed":1082520,"internal_node_id":"0.0-58.0"},{"result":163,"points":2,"place":1,"phase":0,"sequence":39,"prices":[176,186,176,210,179,187,163,166,153,208],"times":[1751,933,1093,853,613,648,1511],"next_num":7,"trial_type":"ticket-choose","trial_index":59,"time_elapsed":1093590,"internal_node_id":"0.0-59.0"},{"result":167,"points":2,"place":1,"phase":0,"sequence":40,"prices":[174,186,167,211,181,188,178,168,208,156],"times":[908,541,1094],"next_num":3,"trial_type":"ticket-choose","trial_index":60,"time_elapsed":1098638,"internal_node_id":"0.0-60.0"},{"result":163,"points":3,"place":0,"phase":0,"sequence":41,"prices":[168,199,196,198,185,195,227,163,177,166],"times":[908,755,642,668,694,700,661,1012],"next_num":8,"trial_type":"ticket-choose","trial_index":61,"time_elapsed":1108295,"internal_node_id":"0.0-61.0"},{"result":167,"points":2,"place":1,"phase":0,"sequence":42,"prices":[212,192,188,184,167,193,189,164,176,170],"times":[747,536,536,613,1163],"next_num":5,"trial_type":"ticket-choose","trial_index":62,"time_elapsed":1114793,"internal_node_id":"0.0-62.0"},{"result":158,"points":2,"place":1,"phase":0,"sequence":43,"prices":[175,186,158,209,181,188,177,167,208,154],"times":[1004,778,1131],"next_num":3,"trial_type":"ticket-choose","trial_index":63,"time_elapsed":1120189,"internal_node_id":"0.0-63.0"},{"result":154,"points":3,"place":0,"phase":0,"sequence":44,"prices":[188,200,165,172,198,174,177,154,177,180],"times":[805,498,1029,637,603,661,618,1053],"next_num":8,"trial_type":"ticket-choose","trial_index":64,"time_elapsed":1129679,"internal_node_id":"0.0-64.0"},{"result":159,"points":1,"place":2,"phase":0,"sequence":45,"prices":[180,159,149,175,185,141,163,174,178,207],"times":[1551,1153],"next_num":2,"trial_type":"ticket-choose","trial_index":65,"time_elapsed":1134623,"internal_node_id":"0.0-65.0"},{"result":184,"points":1,"place":4,"phase":0,"sequence":46,"prices":[161,193,175,181,185,224,180,199,218,184],"times":[1813,1416,1075,605,596,843,638,668,602,757],"next_num":10,"trial_type":"ticket-choose","trial_index":66,"time_elapsed":1147800,"internal_node_id":"0.0-66.0"},{"result":157,"points":3,"place":0,"phase":0,"sequence":47,"prices":[201,187,157,184,198,179,188,185,178,170],"times":[943,611,1096],"next_num":3,"trial_type":"ticket-choose","trial_index":67,"time_elapsed":1153039,"internal_node_id":"0.0-67.0"},{"result":167,"points":2,"place":1,"phase":0,"sequence":48,"prices":[175,186,167,225,179,187,178,169,209,153],"times":[1050,895,1203],"next_num":3,"trial_type":"ticket-choose","trial_index":68,"time_elapsed":1159023,"internal_node_id":"0.0-68.0"},{"result":163,"points":2,"place":1,"phase":0,"sequence":49,"prices":[175,186,176,224,179,187,163,165,153,210],"times":[1111,667,629,658,653,701,1196],"next_num":7,"trial_type":"ticket-choose","trial_index":69,"time_elapsed":1168176,"internal_node_id":"0.0-69.0"},{"responses":[{"value":0,"offby":0,"category":"$106 - $134","category_index":0},{"value":1,"offby":0,"category":"$135 - $150","category_index":1},{"value":3,"offby":0,"category":"$151 - $165","category_index":2},{"value":6,"offby":0,"category":"$166 - $180","category_index":3},{"value":7,"offby":1,"category":"$181 - $195","category_index":4},{"value":2,"offby":-1,"category":"$196 - $210","category_index":5},{"value":1,"offby":0,"category":"$211 - $225","category_index":6}],"phase":0,"number":1,"trial_type":"bar-choose","trial_index":70,"time_elapsed":1207387,"internal_node_id":"0.0-70.0"},{"rt":9026,"url":"\/tickets\/utils\/start2.html","trial_type":"html","trial_index":71,"time_elapsed":1217551,"internal_node_id":"0.0-71.0"},{"trial_type":"number-animation","trial_index":72,"time_elapsed":1263374,"internal_node_id":"0.0-72.0"},{"phase":1,"sequence":0,"avg":182,"response":180,"trial_type":"training_avg","trial_index":73,"time_elapsed":1288794,"internal_node_id":"0.0-73.0"},{"trial_type":"number-animation","trial_index":74,"time_elapsed":1321519,"internal_node_id":"0.0-74.0"},{"phase":1,"sequence":1,"avg":188,"response":185,"trial_type":"training_avg","trial_index":75,"time_elapsed":1338047,"internal_node_id":"0.0-75.0"},{"trial_type":"number-animation","trial_index":76,"time_elapsed":1372689,"internal_node_id":"0.0-76.0"},{"phase":1,"sequence":2,"avg":176,"response":178,"trial_type":"training_avg","trial_index":77,"time_elapsed":1394878,"internal_node_id":"0.0-77.0"},{"trial_type":"number-animation","trial_index":78,"time_elapsed":1427334,"internal_node_id":"0.0-78.0"},{"phase":1,"sequence":3,"avg":180,"response":180,"trial_type":"training_avg","trial_index":79,"time_elapsed":1445175,"internal_node_id":"0.0-79.0"},{"trial_type":"number-animation","trial_index":80,"time_elapsed":1479218,"internal_node_id":"0.0-80.0"},{"phase":1,"sequence":4,"avg":174,"response":175,"trial_type":"training_avg","trial_index":81,"time_elapsed":1491695,"internal_node_id":"0.0-81.0"},{"responses":[{"value":0,"offby":-1,"category":"$90 - $120","category_index":0},{"value":3,"offby":0,"category":"$121 - $145","category_index":1},{"value":2,"offby":-1,"category":"$146 - $170","category_index":2},{"value":7,"offby":1,"category":"$171 - $195","category_index":3},{"value":6,"offby":2,"category":"$196 - $220","category_index":4},{"value":2,"offby":0,"category":"$221 - $245","category_index":5},{"value":0,"offby":-1,"category":"$246 - $270","category_index":6}],"phase":1,"number":0,"trial_type":"bar-choose","trial_index":82,"time_elapsed":1583778,"internal_node_id":"0.0-82.0"},{"rt":30949,"url":"\/tickets\/utils\/testing2.html","trial_type":"html","trial_index":83,"time_elapsed":1615875,"internal_node_id":"0.0-83.0"},{"phase":1,"order":[43,15,16,0,46,47,1,38,34,3,17,7,45,4,13,11,26,25,5,48,12,41,36,24,27,37,28,33,10,39,40,20,9,2,29,49,21,44,35,23,30,18,32,42,31,8,19,14,6,22],"trial_type":"store_order","trial_index":84,"time_elapsed":1616881,"internal_node_id":"0.0-84.0"},{"result":135,"points":3,"place":0,"phase":1,"sequence":0,"prices":[221,193,135,188,217,179,196,190,175,159],"times":[4218,768,1031],"next_num":3,"trial_type":"ticket-choose","trial_index":85,"time_elapsed":1625728,"internal_node_id":"0.0-85.0"},{"result":154,"points":2,"place":1,"phase":1,"sequence":1,"prices":[170,193,176,245,178,194,154,159,236,126],"times":[1705,622,715,625,679,627,1006],"next_num":7,"trial_type":"ticket-choose","trial_index":86,"time_elapsed":1635095,"internal_node_id":"0.0-86.0"},{"result":136,"points":2,"place":1,"phase":1,"sequence":2,"prices":[171,192,136,265,180,194,174,152,239,127],"times":[3645,587,1165],"next_num":3,"trial_type":"ticket-choose","trial_index":87,"time_elapsed":1642933,"internal_node_id":"0.0-87.0"},{"result":146,"points":2,"place":1,"phase":1,"sequence":3,"prices":[173,191,146,242,178,194,172,152,126,235],"times":[753,610,1357],"next_num":3,"trial_type":"ticket-choose","trial_index":88,"time_elapsed":1648193,"internal_node_id":"0.0-88.0"},{"result":136,"points":3,"place":0,"phase":1,"sequence":4,"prices":[240,188,273,207,250,136,217,170,171,236],"times":[623,779,618,673,687,990],"next_num":6,"trial_type":"ticket-choose","trial_index":89,"time_elapsed":1655510,"internal_node_id":"0.0-89.0"},{"result":124,"points":3,"place":0,"phase":1,"sequence":5,"prices":[219,183,227,124,176,161,140,129,171,201],"times":[585,835,595,1024],"next_num":4,"trial_type":"ticket-choose","trial_index":90,"time_elapsed":1661166,"internal_node_id":"0.0-90.0"},{"result":146,"points":2,"place":1,"phase":1,"sequence":6,"prices":[169,193,146,237,180,196,172,150,129,236],"times":[1058,596,1002],"next_num":3,"trial_type":"ticket-choose","trial_index":91,"time_elapsed":1666279,"internal_node_id":"0.0-91.0"},{"result":146,"points":3,"place":0,"phase":1,"sequence":7,"prices":[156,218,212,216,191,210,275,146,174,152],"times":[1286,577,602,626,570,596,634,991],"next_num":8,"trial_type":"ticket-choose","trial_index":92,"time_elapsed":1675608,"internal_node_id":"0.0-92.0"},{"result":130,"points":2,"place":1,"phase":1,"sequence":8,"prices":[181,130,116,142,157,193,165,218,173,207],"times":[1682,1183],"next_num":2,"trial_type":"ticket-choose","trial_index":93,"time_elapsed":1680552,"internal_node_id":"0.0-93.0"},{"result":146,"points":2,"place":1,"phase":1,"sequence":9,"prices":[170,193,146,268,178,195,172,149,126,241],"times":[819,590,1036],"next_num":3,"trial_type":"ticket-choose","trial_index":94,"time_elapsed":1685574,"internal_node_id":"0.0-94.0"},{"result":136,"points":2,"place":1,"phase":1,"sequence":10,"prices":[171,192,136,243,182,195,174,154,236,128],"times":[1061,629,982],"next_num":3,"trial_type":"ticket-choose","trial_index":95,"time_elapsed":1690535,"internal_node_id":"0.0-95.0"},{"result":146,"points":2,"place":1,"phase":1,"sequence":11,"prices":[171,191,172,268,179,194,146,150,127,239],"times":[795,578,616,788,610,727,956],"next_num":7,"trial_type":"ticket-choose","trial_index":96,"time_elapsed":1698814,"internal_node_id":"0.0-96.0"},{"result":154,"points":2,"place":1,"phase":1,"sequence":12,"prices":[244,203,196,189,154,206,197,149,171,159],"times":[967,565,683,685,1046],"next_num":5,"trial_type":"ticket-choose","trial_index":97,"time_elapsed":1705616,"internal_node_id":"0.0-97.0"},{"result":146,"points":2,"place":1,"phase":1,"sequence":13,"prices":[172,191,176,272,179,194,146,152,126,235],"times":[2141,605,761,625,686,665,1017],"next_num":7,"trial_type":"ticket-choose","trial_index":98,"time_elapsed":1715341,"internal_node_id":"0.0-98.0"},{"result":154,"points":2,"place":1,"phase":1,"sequence":14,"prices":[170,190,176,251,183,192,154,157,236,131],"times":[1160,402,464,641,637,625,985],"next_num":7,"trial_type":"ticket-choose","trial_index":99,"time_elapsed":1723494,"internal_node_id":"0.0-99.0"},{"result":127,"points":3,"place":0,"phase":1,"sequence":15,"prices":[169,194,154,271,178,201,176,158,236,127],"times":[987,471,488,566,540,851,636,1198,588,662],"next_num":10,"trial_type":"ticket-choose","trial_index":100,"time_elapsed":1734398,"internal_node_id":"0.0-100.0"},{"result":124,"points":3,"place":0,"phase":1,"sequence":16,"prices":[124,220,136,165,185,234,143,225,228,179],"times":[1277],"next_num":1,"trial_type":"ticket-choose","trial_index":101,"time_elapsed":1737885,"internal_node_id":"0.0-101.0"},{"result":132,"points":3,"place":0,"phase":1,"sequence":17,"prices":[132,222,144,153,190,248,151,224,228,179],"times":[1436],"next_num":1,"trial_type":"ticket-choose","trial_index":102,"time_elapsed":1741470,"internal_node_id":"0.0-102.0"},{"result":146,"points":2,"place":1,"phase":1,"sequence":18,"prices":[171,195,172,242,179,196,146,150,128,235],"times":[3431,586,861,564,565,682,1126],"next_num":7,"trial_type":"ticket-choose","trial_index":103,"time_elapsed":1752734,"internal_node_id":"0.0-103.0"},{"result":178,"points":1,"place":4,"phase":1,"sequence":19,"prices":[182,249,159,114,184,205,175,189,172,178],"times":[830,602,534,590,2249,626,627,712,892,699],"next_num":10,"trial_type":"ticket-choose","trial_index":104,"time_elapsed":1765279,"internal_node_id":"0.0-104.0"},{"result":154,"points":2,"place":1,"phase":1,"sequence":20,"prices":[168,192,176,242,183,197,154,156,237,132],"times":[692,588,579,617,651,637,995],"next_num":7,"trial_type":"ticket-choose","trial_index":105,"time_elapsed":1773502,"internal_node_id":"0.0-105.0"},{"result":131,"points":2,"place":1,"phase":1,"sequence":21,"prices":[221,234,131,136,132,149,154,90,176,173],"times":[3190,635,1000],"next_num":3,"trial_type":"ticket-choose","trial_index":106,"time_elapsed":1780697,"internal_node_id":"0.0-106.0"},{"result":149,"points":2,"place":1,"phase":1,"sequence":22,"prices":[196,221,149,164,216,167,175,128,176,181],"times":[1053,573,1306],"next_num":3,"trial_type":"ticket-choose","trial_index":107,"time_elapsed":1786014,"internal_node_id":"0.0-107.0"},{"result":188,"points":1,"place":4,"phase":1,"sequence":23,"prices":[142,207,171,182,190,269,180,218,256,188],"times":[456,699,605,605,605,652,733,601,546,557],"next_num":10,"trial_type":"ticket-choose","trial_index":108,"time_elapsed":1796529,"internal_node_id":"0.0-108.0"},{"result":165,"points":1,"place":2,"phase":1,"sequence":24,"prices":[157,205,161,175,197,254,165,210,214,192],"times":[1251,580,1862,626,636,636,1015],"next_num":7,"trial_type":"ticket-choose","trial_index":109,"time_elapsed":1807630,"internal_node_id":"0.0-109.0"},{"result":158,"points":1,"place":3,"phase":1,"sequence":25,"prices":[216,206,158,145,224,185,124,149,175,162],"times":[1115,782,1053],"next_num":3,"trial_type":"ticket-choose","trial_index":110,"time_elapsed":1813126,"internal_node_id":"0.0-110.0"},{"result":161,"points":1,"place":2,"phase":1,"sequence":26,"prices":[157,213,159,187,194,242,161,222,225,189],"times":[627,629,691,669,639,634,956],"next_num":7,"trial_type":"ticket-choose","trial_index":111,"time_elapsed":1821511,"internal_node_id":"0.0-111.0"},{"result":137,"points":3,"place":0,"phase":1,"sequence":27,"prices":[137,187,152,156,166,231,155,194,202,160],"times":[1170],"next_num":1,"trial_type":"ticket-choose","trial_index":112,"time_elapsed":1824542,"internal_node_id":"0.0-112.0"},{"result":154,"points":2,"place":1,"phase":1,"sequence":28,"prices":[169,193,154,255,178,194,176,158,239,126],"times":[1345,567,980],"next_num":3,"trial_type":"ticket-choose","trial_index":113,"time_elapsed":1829789,"internal_node_id":"0.0-113.0"},{"result":153,"points":2,"place":1,"phase":1,"sequence":29,"prices":[197,153,181,215,150,155,164,247,177,162],"times":[795,916],"next_num":2,"trial_type":"ticket-choose","trial_index":114,"time_elapsed":1833536,"internal_node_id":"0.0-114.0"},{"result":119,"points":3,"place":0,"phase":1,"sequence":30,"prices":[198,119,169,141,195,233,136,208,177,217],"times":[838,983],"next_num":2,"trial_type":"ticket-choose","trial_index":115,"time_elapsed":1837581,"internal_node_id":"0.0-115.0"},{"result":136,"points":2,"place":1,"phase":1,"sequence":31,"prices":[169,192,174,246,180,195,136,152,238,126],"times":[747,665,609,565,572,612,1037],"next_num":7,"trial_type":"ticket-choose","trial_index":116,"time_elapsed":1845581,"internal_node_id":"0.0-116.0"},{"result":133,"points":3,"place":0,"phase":1,"sequence":32,"prices":[169,191,154,268,183,197,176,155,236,133],"times":[811,560,1008,612,699,605,654,1500,621,642],"next_num":10,"trial_type":"ticket-choose","trial_index":117,"time_elapsed":1857176,"internal_node_id":"0.0-117.0"},{"result":146,"points":2,"place":1,"phase":1,"sequence":33,"prices":[168,191,146,252,183,193,172,153,126,238],"times":[870,608,1755],"next_num":3,"trial_type":"ticket-choose","trial_index":118,"time_elapsed":1862793,"internal_node_id":"0.0-118.0"},{"result":128,"points":2,"place":1,"phase":1,"sequence":34,"prices":[121,191,128,141,166,217,129,196,202,157],"times":[586,604,1063],"next_num":3,"trial_type":"ticket-choose","trial_index":119,"time_elapsed":1867431,"internal_node_id":"0.0-119.0"},{"result":146,"points":1,"place":2,"phase":1,"sequence":35,"prices":[186,146,191,179,152,116,140,201,172,187],"times":[1074,1028],"next_num":2,"trial_type":"ticket-choose","trial_index":120,"time_elapsed":1871646,"internal_node_id":"0.0-120.0"},{"result":136,"points":2,"place":1,"phase":1,"sequence":36,"prices":[170,192,174,242,181,196,136,153,236,128],"times":[730,670,570,656,688,644,969],"next_num":7,"trial_type":"ticket-choose","trial_index":121,"time_elapsed":1879727,"internal_node_id":"0.0-121.0"},{"result":138,"points":1,"place":2,"phase":1,"sequence":37,"prices":[181,138,118,170,190,101,146,169,175,233],"times":[1463,1005],"next_num":2,"trial_type":"ticket-choose","trial_index":122,"time_elapsed":1884129,"internal_node_id":"0.0-122.0"},{"result":108,"points":3,"place":0,"phase":1,"sequence":38,"prices":[155,129,164,189,210,108,187,241,174,275],"times":[823,509,644,638,707,1060],"next_num":6,"trial_type":"ticket-choose","trial_index":123,"time_elapsed":1891503,"internal_node_id":"0.0-123.0"},{"result":136,"points":2,"place":1,"phase":1,"sequence":39,"prices":[173,191,174,270,180,193,136,153,239,129],"times":[881,586,629,568,587,653,1049],"next_num":7,"trial_type":"ticket-choose","trial_index":124,"time_elapsed":1900102,"internal_node_id":"0.0-124.0"},{"result":135,"points":3,"place":0,"phase":1,"sequence":40,"prices":[135,202,150,169,183,225,160,211,220,172],"times":[1285],"next_num":1,"trial_type":"ticket-choose","trial_index":125,"time_elapsed":1903522,"internal_node_id":"0.0-125.0"},{"result":136,"points":2,"place":1,"phase":1,"sequence":41,"prices":[173,194,136,239,182,200,174,150,236,127],"times":[858,575,1069],"next_num":3,"trial_type":"ticket-choose","trial_index":126,"time_elapsed":1908318,"internal_node_id":"0.0-126.0"},{"result":143,"points":3,"place":0,"phase":1,"sequence":42,"prices":[143,206,153,194,201,267,168,208,210,196],"times":[1174],"next_num":1,"trial_type":"ticket-choose","trial_index":127,"time_elapsed":1911697,"internal_node_id":"0.0-127.0"},{"result":105,"points":3,"place":0,"phase":1,"sequence":43,"prices":[263,165,224,214,105,230,215,185,177,193],"times":[789,747,614,612,1741],"next_num":5,"trial_type":"ticket-choose","trial_index":128,"time_elapsed":1918984,"internal_node_id":"0.0-128.0"},{"result":120,"points":2,"place":1,"phase":1,"sequence":44,"prices":[117,161,120,147,153,259,144,191,195,149],"times":[1154,1276,1094],"next_num":3,"trial_type":"ticket-choose","trial_index":129,"time_elapsed":1924942,"internal_node_id":"0.0-129.0"},{"result":154,"points":2,"place":1,"phase":1,"sequence":45,"prices":[168,192,154,237,182,196,176,156,235,133],"times":[970,580,1084],"next_num":3,"trial_type":"ticket-choose","trial_index":130,"time_elapsed":1930023,"internal_node_id":"0.0-130.0"},{"result":136,"points":2,"place":1,"phase":1,"sequence":46,"prices":[172,190,136,270,179,192,174,152,237,129],"times":[829,670,932],"next_num":3,"trial_type":"ticket-choose","trial_index":131,"time_elapsed":1934741,"internal_node_id":"0.0-131.0"},{"result":154,"points":2,"place":1,"phase":1,"sequence":47,"prices":[169,192,176,244,178,194,154,159,237,125],"times":[585,638,608,652,750,647,1045],"next_num":7,"trial_type":"ticket-choose","trial_index":132,"time_elapsed":1942910,"internal_node_id":"0.0-132.0"},{"result":146,"points":2,"place":1,"phase":1,"sequence":48,"prices":[168,191,172,240,183,193,146,151,125,238],"times":[680,629,636,690,699,651,1255],"next_num":7,"trial_type":"ticket-choose","trial_index":133,"time_elapsed":1951481,"internal_node_id":"0.0-133.0"},{"result":136,"points":2,"place":1,"phase":1,"sequence":49,"prices":[172,194,174,243,182,193,136,150,237,126],"times":[1410,595,586,837,659,645,1257],"next_num":7,"trial_type":"ticket-choose","trial_index":134,"time_elapsed":1961055,"internal_node_id":"0.0-134.0"},{"responses":[{"value":1,"offby":0,"category":"$90 - $120","category_index":0},{"value":3,"offby":0,"category":"$121 - $145","category_index":1},{"value":5,"offby":2,"category":"$146 - $170","category_index":2},{"value":5,"offby":-1,"category":"$171 - $195","category_index":3},{"value":3,"offby":-1,"category":"$196 - $220","category_index":4},{"value":2,"offby":0,"category":"$221 - $245","category_index":5},{"value":1,"offby":0,"category":"$246 - $270","category_index":6}],"phase":1,"number":1,"trial_type":"bar-choose","trial_index":135,"time_elapsed":1998162,"internal_node_id":"0.0-135.0"},{"special_comment":"nothingin particular","trial_type":"special_sequence","trial_index":136,"time_elapsed":2012586,"internal_node_id":"0.0-136.0"},{"during":"Nothing","bonus":288,"trial_type":"final","trial_index":137,"time_elapsed":2042222,"internal_node_id":"0.0-137.0"}],"bonus":288}