{"start_time":"2017-01-27 10:31:01","end_time":"2017-01-27 10:56:04","points_phase0":105,"points_phase1":106,"phase_order":0,"age":32,"gender":"m","tries":1,"during":"Nothing","worker_id":"A2WH3GIS2KF8LU","assignment_id":"3AAJC4I4FHLXC9HKS20PMTYAVCDZJQ","data":[{"rt":24339,"url":"\/tickets\/utils\/consent.html","trial_type":"html","trial_index":0,"time_elapsed":24917,"internal_node_id":"0.0-0.0"},{"age":32,"gender":"m","trial_type":"age","trial_index":1,"time_elapsed":31570,"internal_node_id":"0.0-1.0"},{"worker_id":"A2WH3GIS2KF8LU","trial_type":"workerid","trial_index":2,"time_elapsed":41217,"internal_node_id":"0.0-2.0"},{"tries":1,"trial_type":"instructions_check","trial_index":3,"time_elapsed":100471,"internal_node_id":"0.0-3.0"},{"rt":16025,"url":"\/tickets\/utils\/start.html","trial_type":"html","trial_index":4,"time_elapsed":117614,"internal_node_id":"0.0-4.0"},{"trial_type":"number-animation","trial_index":5,"time_elapsed":133042,"internal_node_id":"0.0-5.0"},{"phase":0,"sequence":0,"avg":181,"response":178,"trial_type":"training_avg","trial_index":6,"time_elapsed":151049,"internal_node_id":"0.0-6.0"},{"trial_type":"number-animation","trial_index":7,"time_elapsed":165919,"internal_node_id":"0.0-7.0"},{"phase":0,"sequence":1,"avg":188,"response":187,"trial_type":"training_avg","trial_index":8,"time_elapsed":175761,"internal_node_id":"0.0-8.0"},{"trial_type":"number-animation","trial_index":9,"time_elapsed":188870,"internal_node_id":"0.0-9.0"},{"phase":0,"sequence":2,"avg":188,"response":183,"trial_type":"training_avg","trial_index":10,"time_elapsed":197136,"internal_node_id":"0.0-10.0"},{"trial_type":"number-animation","trial_index":11,"time_elapsed":206982,"internal_node_id":"0.0-11.0"},{"phase":0,"sequence":3,"avg":177,"response":176,"trial_type":"training_avg","trial_index":12,"time_elapsed":217313,"internal_node_id":"0.0-12.0"},{"trial_type":"number-animation","trial_index":13,"time_elapsed":228447,"internal_node_id":"0.0-13.0"},{"phase":0,"sequence":4,"avg":182,"response":178,"trial_type":"training_avg","trial_index":14,"time_elapsed":236784,"internal_node_id":"0.0-14.0"},{"responses":[{"value":1,"offby":1,"category":"$106 - $134","category_index":0},{"value":2,"offby":1,"category":"$135 - $150","category_index":1},{"value":3,"offby":0,"category":"$151 - $165","category_index":2},{"value":6,"offby":0,"category":"$166 - $180","category_index":3},{"value":6,"offby":0,"category":"$181 - $195","category_index":4},{"value":1,"offby":-2,"category":"$196 - $210","category_index":5},{"value":1,"offby":0,"category":"$211 - $225","category_index":6}],"phase":0,"number":0,"trial_type":"bar-choose","trial_index":15,"time_elapsed":324664,"internal_node_id":"0.0-15.0"},{"rt":31156,"url":"\/tickets\/\/utils\/testing.html","trial_type":"html","trial_index":16,"time_elapsed":356927,"internal_node_id":"0.0-16.0"},{"phase":0,"order":[25,7,41,11,1,35,48,24,12,42,5,49,37,43,36,34,23,31,10,17,16,13,44,20,46,29,21,15,38,27,18,6,28,33,32,4,39,8,45,26,40,14,19,2,9,22,0,3,30,47],"trial_type":"store_order","trial_index":17,"time_elapsed":357929,"internal_node_id":"0.0-17.0"},{"result":165,"points":2,"place":1,"phase":0,"sequence":-1,"times":[4573,694,619,3748],"next_num":4,"trial_type":"ticket-choose","trial_index":18,"time_elapsed":371260,"internal_node_id":"0.0-18.0"},{"rt":29449,"url":"\/tickets\/utils\/testing_after.html","trial_type":"html","trial_index":19,"time_elapsed":401814,"internal_node_id":"0.0-19.0"},{"result":155,"points":1,"place":2,"phase":0,"sequence":0,"times":[1574,659,1130,495,518,485,3023],"next_num":7,"trial_type":"ticket-choose","trial_index":20,"time_elapsed":414231,"internal_node_id":"0.0-20.0"},{"result":172,"points":1,"place":2,"phase":0,"sequence":1,"times":[2292,489,1475,425,423,504,2204],"next_num":7,"trial_type":"ticket-choose","trial_index":21,"time_elapsed":426310,"internal_node_id":"0.0-21.0"},{"result":155,"points":2,"place":1,"phase":0,"sequence":2,"times":[2041,483,1832],"next_num":3,"trial_type":"ticket-choose","trial_index":22,"time_elapsed":434110,"internal_node_id":"0.0-22.0"},{"result":149,"points":3,"place":0,"phase":0,"sequence":3,"times":[1321,443,632,490,645,541,519,516,2182],"next_num":9,"trial_type":"ticket-choose","trial_index":23,"time_elapsed":445973,"internal_node_id":"0.0-23.0"},{"result":165,"points":1,"place":2,"phase":0,"sequence":4,"times":[2905,467,624,645,817,508,1989],"next_num":7,"trial_type":"ticket-choose","trial_index":24,"time_elapsed":458077,"internal_node_id":"0.0-24.0"},{"result":154,"points":2,"place":1,"phase":0,"sequence":5,"times":[1349,1850],"next_num":2,"trial_type":"ticket-choose","trial_index":25,"time_elapsed":463765,"internal_node_id":"0.0-25.0"},{"result":147,"points":3,"place":0,"phase":0,"sequence":6,"times":[863,514,648,2013],"next_num":4,"trial_type":"ticket-choose","trial_index":26,"time_elapsed":470718,"internal_node_id":"0.0-26.0"},{"result":185,"points":1,"place":4,"phase":0,"sequence":7,"times":[1358,708,737,582,646,624,1365,552,565,996],"next_num":11,"trial_type":"ticket-choose","trial_index":27,"time_elapsed":483246,"internal_node_id":"0.0-27.0"},{"result":170,"points":2,"place":1,"phase":0,"sequence":8,"times":[3118,453,816,516,553,582,2100],"next_num":7,"trial_type":"ticket-choose","trial_index":28,"time_elapsed":494918,"internal_node_id":"0.0-28.0"},{"result":143,"points":3,"place":0,"phase":0,"sequence":9,"times":[1955,864,588,485,1807],"next_num":5,"trial_type":"ticket-choose","trial_index":29,"time_elapsed":503557,"internal_node_id":"0.0-29.0"},{"result":150,"points":2,"place":1,"phase":0,"sequence":10,"times":[1194,556,2039],"next_num":3,"trial_type":"ticket-choose","trial_index":30,"time_elapsed":509973,"internal_node_id":"0.0-30.0"},{"result":148,"points":3,"place":0,"phase":0,"sequence":11,"times":[596,767,468,499,771,1749],"next_num":6,"trial_type":"ticket-choose","trial_index":31,"time_elapsed":517885,"internal_node_id":"0.0-31.0"},{"result":163,"points":2,"place":1,"phase":0,"sequence":12,"times":[2135,464,682,2844],"next_num":4,"trial_type":"ticket-choose","trial_index":32,"time_elapsed":526998,"internal_node_id":"0.0-32.0"},{"result":157,"points":3,"place":0,"phase":0,"sequence":13,"times":[1191,581,1995],"next_num":3,"trial_type":"ticket-choose","trial_index":33,"time_elapsed":533997,"internal_node_id":"0.0-33.0"},{"result":154,"points":3,"place":0,"phase":0,"sequence":14,"times":[569,548,705,496,576,599,514,1796],"next_num":8,"trial_type":"ticket-choose","trial_index":34,"time_elapsed":543622,"internal_node_id":"0.0-34.0"},{"result":155,"points":2,"place":1,"phase":0,"sequence":15,"times":[1867,1942],"next_num":2,"trial_type":"ticket-choose","trial_index":35,"time_elapsed":549790,"internal_node_id":"0.0-35.0"},{"result":186,"points":1,"place":4,"phase":0,"sequence":16,"times":[1719,493,809,441,512,534,469,644,613,770],"next_num":11,"trial_type":"ticket-choose","trial_index":36,"time_elapsed":561007,"internal_node_id":"0.0-36.0"},{"result":160,"points":2,"place":1,"phase":0,"sequence":17,"times":[2310,458,489,467,610,2021],"next_num":6,"trial_type":"ticket-choose","trial_index":37,"time_elapsed":570485,"internal_node_id":"0.0-37.0"},{"result":161,"points":1,"place":3,"phase":0,"sequence":18,"times":[533,414,1763],"next_num":3,"trial_type":"ticket-choose","trial_index":38,"time_elapsed":575653,"internal_node_id":"0.0-38.0"},{"result":150,"points":2,"place":1,"phase":0,"sequence":19,"times":[395,427,570,415,456,532,1706],"next_num":7,"trial_type":"ticket-choose","trial_index":39,"time_elapsed":583365,"internal_node_id":"0.0-39.0"},{"result":162,"points":2,"place":1,"phase":0,"sequence":20,"times":[969,505,648,466,544,506,1856],"next_num":7,"trial_type":"ticket-choose","trial_index":40,"time_elapsed":592213,"internal_node_id":"0.0-40.0"},{"result":154,"points":2,"place":1,"phase":0,"sequence":21,"times":[567,524,1051,486,654,495,1765],"next_num":7,"trial_type":"ticket-choose","trial_index":41,"time_elapsed":601117,"internal_node_id":"0.0-41.0"},{"result":159,"points":1,"place":2,"phase":0,"sequence":22,"times":[744,2344],"next_num":2,"trial_type":"ticket-choose","trial_index":42,"time_elapsed":606509,"internal_node_id":"0.0-42.0"},{"result":184,"points":1,"place":4,"phase":0,"sequence":23,"times":[368,550,499,475,502,541,469,543,767,1676],"next_num":10,"trial_type":"ticket-choose","trial_index":43,"time_elapsed":616694,"internal_node_id":"0.0-43.0"},{"result":158,"points":3,"place":0,"phase":0,"sequence":24,"times":[719,509,523,589,648,1904],"next_num":6,"trial_type":"ticket-choose","trial_index":44,"time_elapsed":624677,"internal_node_id":"0.0-44.0"},{"result":170,"points":1,"place":4,"phase":0,"sequence":25,"times":[1035,3940,652,480,517,626,724,486,593,1354],"next_num":10,"trial_type":"ticket-choose","trial_index":45,"time_elapsed":638989,"internal_node_id":"0.0-45.0"},{"result":179,"points":1,"place":4,"phase":0,"sequence":26,"times":[350,518,741,549,489,570,459,477,479,636],"next_num":11,"trial_type":"ticket-choose","trial_index":46,"time_elapsed":648358,"internal_node_id":"0.0-46.0"},{"result":178,"points":1,"place":4,"phase":0,"sequence":27,"times":[1004],"next_num":1,"trial_type":"ticket-choose","trial_index":47,"time_elapsed":651421,"internal_node_id":"0.0-47.0"},{"result":163,"points":3,"place":0,"phase":0,"sequence":28,"times":[869,497,446,619,493,530,587,1862],"next_num":8,"trial_type":"ticket-choose","trial_index":48,"time_elapsed":660813,"internal_node_id":"0.0-48.0"},{"result":148,"points":3,"place":0,"phase":0,"sequence":29,"times":[2229],"next_num":1,"trial_type":"ticket-choose","trial_index":49,"time_elapsed":665077,"internal_node_id":"0.0-49.0"},{"result":165,"points":2,"place":1,"phase":0,"sequence":30,"times":[1629,416,482,483,517,496,1741],"next_num":7,"trial_type":"ticket-choose","trial_index":50,"time_elapsed":673966,"internal_node_id":"0.0-50.0"},{"result":155,"points":3,"place":0,"phase":0,"sequence":31,"times":[547,456,1187,560,472,502,440,475,563,1311],"next_num":10,"trial_type":"ticket-choose","trial_index":51,"time_elapsed":684285,"internal_node_id":"0.0-51.0"},{"result":188,"points":1,"place":4,"phase":0,"sequence":32,"times":[1341,514,658,482,527,485,468,471,450,1245],"next_num":10,"trial_type":"ticket-choose","trial_index":52,"time_elapsed":694854,"internal_node_id":"0.0-52.0"},{"result":155,"points":3,"place":0,"phase":0,"sequence":33,"times":[553,1711],"next_num":2,"trial_type":"ticket-choose","trial_index":53,"time_elapsed":699326,"internal_node_id":"0.0-53.0"},{"result":146,"points":3,"place":0,"phase":0,"sequence":34,"times":[746,498,1824],"next_num":3,"trial_type":"ticket-choose","trial_index":54,"time_elapsed":704725,"internal_node_id":"0.0-54.0"},{"result":140,"points":3,"place":0,"phase":0,"sequence":35,"times":[541,433,970,468,600,492,831,545,498,1389],"next_num":10,"trial_type":"ticket-choose","trial_index":55,"time_elapsed":715245,"internal_node_id":"0.0-55.0"},{"result":165,"points":3,"place":0,"phase":0,"sequence":36,"times":[658,1276,428,511,1673],"next_num":5,"trial_type":"ticket-choose","trial_index":56,"time_elapsed":722677,"internal_node_id":"0.0-56.0"},{"result":147,"points":3,"place":0,"phase":0,"sequence":37,"times":[499,548,802,421,445,449,561,1020,483,1188],"next_num":10,"trial_type":"ticket-choose","trial_index":57,"time_elapsed":732813,"internal_node_id":"0.0-57.0"},{"result":167,"points":2,"place":1,"phase":0,"sequence":38,"times":[1381,469,399,474,1929],"next_num":5,"trial_type":"ticket-choose","trial_index":58,"time_elapsed":740310,"internal_node_id":"0.0-58.0"},{"result":176,"points":1,"place":4,"phase":0,"sequence":39,"times":[426,431,1331,413,510,511,439,525,476,1131],"next_num":10,"trial_type":"ticket-choose","trial_index":59,"time_elapsed":750320,"internal_node_id":"0.0-59.0"},{"result":150,"points":3,"place":0,"phase":0,"sequence":40,"times":[673,1739],"next_num":2,"trial_type":"ticket-choose","trial_index":60,"time_elapsed":754750,"internal_node_id":"0.0-60.0"},{"result":171,"points":2,"place":1,"phase":0,"sequence":41,"times":[478,465,492,585,509,538,2001],"next_num":7,"trial_type":"ticket-choose","trial_index":61,"time_elapsed":763005,"internal_node_id":"0.0-61.0"},{"result":175,"points":2,"place":1,"phase":0,"sequence":42,"times":[675,444,496,487,559,505,2022],"next_num":7,"trial_type":"ticket-choose","trial_index":62,"time_elapsed":771293,"internal_node_id":"0.0-62.0"},{"result":153,"points":3,"place":0,"phase":0,"sequence":43,"times":[472,439,546,459,514,524,473,613,534,1237],"next_num":10,"trial_type":"ticket-choose","trial_index":63,"time_elapsed":780749,"internal_node_id":"0.0-63.0"},{"result":167,"points":1,"place":2,"phase":0,"sequence":44,"times":[1343,453,795,401,512,467,1774],"next_num":7,"trial_type":"ticket-choose","trial_index":64,"time_elapsed":789669,"internal_node_id":"0.0-64.0"},{"result":158,"points":2,"place":1,"phase":0,"sequence":45,"times":[612,445,1781],"next_num":3,"trial_type":"ticket-choose","trial_index":65,"time_elapsed":794942,"internal_node_id":"0.0-65.0"},{"result":158,"points":2,"place":1,"phase":0,"sequence":46,"times":[521,511,1575],"next_num":3,"trial_type":"ticket-choose","trial_index":66,"time_elapsed":799824,"internal_node_id":"0.0-66.0"},{"result":154,"points":2,"place":1,"phase":0,"sequence":47,"times":[432,492,2259],"next_num":3,"trial_type":"ticket-choose","trial_index":67,"time_elapsed":805349,"internal_node_id":"0.0-67.0"},{"result":138,"points":3,"place":0,"phase":0,"sequence":48,"times":[822,1861,493,450,544,1736],"next_num":6,"trial_type":"ticket-choose","trial_index":68,"time_elapsed":814510,"internal_node_id":"0.0-68.0"},{"result":152,"points":3,"place":0,"phase":0,"sequence":49,"times":[2729,945,498,1729],"next_num":4,"trial_type":"ticket-choose","trial_index":69,"time_elapsed":823101,"internal_node_id":"0.0-69.0"},{"responses":[{"value":1,"offby":1,"category":"$106 - $134","category_index":0},{"value":1,"offby":0,"category":"$135 - $150","category_index":1},{"value":3,"offby":0,"category":"$151 - $165","category_index":2},{"value":6,"offby":0,"category":"$166 - $180","category_index":3},{"value":5,"offby":-1,"category":"$181 - $195","category_index":4},{"value":3,"offby":0,"category":"$196 - $210","category_index":5},{"value":1,"offby":0,"category":"$211 - $225","category_index":6}],"phase":0,"number":1,"trial_type":"bar-choose","trial_index":70,"time_elapsed":879534,"internal_node_id":"0.0-70.0"},{"rt":19418,"url":"\/tickets\/utils\/start2.html","trial_type":"html","trial_index":71,"time_elapsed":900078,"internal_node_id":"0.0-71.0"},{"trial_type":"number-animation","trial_index":72,"time_elapsed":912749,"internal_node_id":"0.0-72.0"},{"phase":1,"sequence":0,"avg":184,"response":175,"trial_type":"training_avg","trial_index":73,"time_elapsed":919303,"internal_node_id":"0.0-73.0"},{"trial_type":"number-animation","trial_index":74,"time_elapsed":929620,"internal_node_id":"0.0-74.0"},{"phase":1,"sequence":1,"avg":199,"response":198,"trial_type":"training_avg","trial_index":75,"time_elapsed":938983,"internal_node_id":"0.0-75.0"},{"trial_type":"number-animation","trial_index":76,"time_elapsed":952491,"internal_node_id":"0.0-76.0"},{"phase":1,"sequence":2,"avg":199,"response":202,"trial_type":"training_avg","trial_index":77,"time_elapsed":960856,"internal_node_id":"0.0-77.0"},{"trial_type":"number-animation","trial_index":78,"time_elapsed":971765,"internal_node_id":"0.0-78.0"},{"phase":1,"sequence":3,"avg":210,"response":205,"trial_type":"training_avg","trial_index":79,"time_elapsed":980096,"internal_node_id":"0.0-79.0"},{"trial_type":"number-animation","trial_index":80,"time_elapsed":989347,"internal_node_id":"0.0-80.0"},{"phase":1,"sequence":4,"avg":202,"response":198,"trial_type":"training_avg","trial_index":81,"time_elapsed":997239,"internal_node_id":"0.0-81.0"},{"responses":[{"value":0,"offby":-1,"category":"$105 - $130","category_index":0},{"value":1,"offby":-1,"category":"$131 - $155","category_index":1},{"value":4,"offby":2,"category":"$156 - $180","category_index":2},{"value":5,"offby":0,"category":"$181 - $205","category_index":3},{"value":5,"offby":0,"category":"$206 - $230","category_index":4},{"value":4,"offby":1,"category":"$231 - $255","category_index":5},{"value":1,"offby":-1,"category":"$256 - $280","category_index":6}],"phase":1,"number":0,"trial_type":"bar-choose","trial_index":82,"time_elapsed":1064166,"internal_node_id":"0.0-82.0"},{"rt":14075,"url":"\/tickets\/utils\/testing2.html","trial_type":"html","trial_index":83,"time_elapsed":1079358,"internal_node_id":"0.0-83.0"},{"phase":1,"order":[3,44,18,9,33,5,12,23,32,15,36,4,39,6,20,2,41,11,28,49,40,31,43,45,17,10,26,42,8,0,7,25,22,46,21,29,1,24,16,19,30,27,37,14,35,38,34,47,13,48],"trial_type":"store_order","trial_index":84,"time_elapsed":1080376,"internal_node_id":"0.0-84.0"},{"result":148,"points":2,"place":1,"phase":1,"sequence":0,"times":[2484,526,2168],"next_num":3,"trial_type":"ticket-choose","trial_index":85,"time_elapsed":1087997,"internal_node_id":"0.0-85.0"},{"result":138,"points":2,"place":1,"phase":1,"sequence":1,"times":[590,698,1425],"next_num":3,"trial_type":"ticket-choose","trial_index":86,"time_elapsed":1093237,"internal_node_id":"0.0-86.0"},{"result":170,"points":2,"place":1,"phase":1,"sequence":2,"times":[453,408,471,465,464,437,1039],"next_num":7,"trial_type":"ticket-choose","trial_index":87,"time_elapsed":1100061,"internal_node_id":"0.0-87.0"},{"result":175,"points":1,"place":2,"phase":1,"sequence":3,"times":[377,463,675,576,498,448,1205],"next_num":7,"trial_type":"ticket-choose","trial_index":88,"time_elapsed":1107589,"internal_node_id":"0.0-88.0"},{"result":151,"points":3,"place":0,"phase":1,"sequence":4,"times":[444,1116],"next_num":2,"trial_type":"ticket-choose","trial_index":89,"time_elapsed":1111301,"internal_node_id":"0.0-89.0"},{"result":140,"points":2,"place":1,"phase":1,"sequence":5,"times":[563,422,928],"next_num":3,"trial_type":"ticket-choose","trial_index":90,"time_elapsed":1115580,"internal_node_id":"0.0-90.0"},{"result":136,"points":3,"place":0,"phase":1,"sequence":6,"times":[425,418,616,456,433,454,621,641,1575],"next_num":9,"trial_type":"ticket-choose","trial_index":91,"time_elapsed":1125125,"internal_node_id":"0.0-91.0"},{"result":212,"points":1,"place":4,"phase":1,"sequence":7,"times":[459,476,533,532,549,469,529,546,574,1061],"next_num":10,"trial_type":"ticket-choose","trial_index":92,"time_elapsed":1134597,"internal_node_id":"0.0-92.0"},{"result":133,"points":3,"place":0,"phase":1,"sequence":8,"times":[664,541,1064],"next_num":3,"trial_type":"ticket-choose","trial_index":93,"time_elapsed":1139053,"internal_node_id":"0.0-93.0"},{"result":144,"points":3,"place":0,"phase":1,"sequence":9,"times":[609,556,540,490,600,582,833,755,995],"next_num":9,"trial_type":"ticket-choose","trial_index":94,"time_elapsed":1148581,"internal_node_id":"0.0-94.0"},{"result":171,"points":2,"place":1,"phase":1,"sequence":10,"times":[1077,491,1778],"next_num":3,"trial_type":"ticket-choose","trial_index":95,"time_elapsed":1154245,"internal_node_id":"0.0-95.0"},{"result":142,"points":3,"place":0,"phase":1,"sequence":11,"times":[521,491,701,531,487,560,581,541,495,878],"next_num":10,"trial_type":"ticket-choose","trial_index":96,"time_elapsed":1163733,"internal_node_id":"0.0-96.0"},{"result":171,"points":3,"place":0,"phase":1,"sequence":12,"times":[464,1278,413,438,975],"next_num":5,"trial_type":"ticket-choose","trial_index":97,"time_elapsed":1169916,"internal_node_id":"0.0-97.0"},{"result":170,"points":2,"place":1,"phase":1,"sequence":13,"times":[356,487,1227],"next_num":3,"trial_type":"ticket-choose","trial_index":98,"time_elapsed":1174285,"internal_node_id":"0.0-98.0"},{"result":208,"points":1,"place":4,"phase":1,"sequence":14,"times":[347,478,480,503,513,424,442,487,525,911],"next_num":11,"trial_type":"ticket-choose","trial_index":99,"time_elapsed":1183236,"internal_node_id":"0.0-99.0"},{"result":147,"points":3,"place":0,"phase":1,"sequence":15,"times":[668,649,660,458,481,479,489,482,559,871],"next_num":10,"trial_type":"ticket-choose","trial_index":100,"time_elapsed":1192677,"internal_node_id":"0.0-100.0"},{"result":151,"points":2,"place":1,"phase":1,"sequence":16,"times":[716,644,913],"next_num":3,"trial_type":"ticket-choose","trial_index":101,"time_elapsed":1197108,"internal_node_id":"0.0-101.0"},{"result":175,"points":2,"place":1,"phase":1,"sequence":17,"times":[468,488,576,443,598,452,925],"next_num":7,"trial_type":"ticket-choose","trial_index":102,"time_elapsed":1204085,"internal_node_id":"0.0-102.0"},{"result":217,"points":1,"place":4,"phase":1,"sequence":18,"times":[356,504,966,381,443,480,830,437,429,845],"next_num":11,"trial_type":"ticket-choose","trial_index":103,"time_elapsed":1213188,"internal_node_id":"0.0-103.0"},{"result":166,"points":1,"place":2,"phase":1,"sequence":19,"times":[571,916],"next_num":2,"trial_type":"ticket-choose","trial_index":104,"time_elapsed":1216677,"internal_node_id":"0.0-104.0"},{"result":140,"points":3,"place":0,"phase":1,"sequence":20,"times":[417,870],"next_num":2,"trial_type":"ticket-choose","trial_index":105,"time_elapsed":1220045,"internal_node_id":"0.0-105.0"},{"result":165,"points":1,"place":2,"phase":1,"sequence":21,"times":[1291],"next_num":1,"trial_type":"ticket-choose","trial_index":106,"time_elapsed":1223180,"internal_node_id":"0.0-106.0"},{"result":155,"points":3,"place":0,"phase":1,"sequence":22,"times":[524,476,930],"next_num":3,"trial_type":"ticket-choose","trial_index":107,"time_elapsed":1227365,"internal_node_id":"0.0-107.0"},{"result":175,"points":2,"place":1,"phase":1,"sequence":23,"times":[620,448,551,472,1719],"next_num":5,"trial_type":"ticket-choose","trial_index":108,"time_elapsed":1233764,"internal_node_id":"0.0-108.0"},{"result":177,"points":1,"place":3,"phase":1,"sequence":24,"times":[339,505,915],"next_num":3,"trial_type":"ticket-choose","trial_index":109,"time_elapsed":1237764,"internal_node_id":"0.0-109.0"},{"result":162,"points":1,"place":3,"phase":1,"sequence":25,"times":[327,434,891],"next_num":3,"trial_type":"ticket-choose","trial_index":110,"time_elapsed":1241653,"internal_node_id":"0.0-110.0"},{"result":193,"points":1,"place":4,"phase":1,"sequence":26,"times":[431,473,665,449,481,455,608,470,469,759],"next_num":11,"trial_type":"ticket-choose","trial_index":111,"time_elapsed":1250300,"internal_node_id":"0.0-111.0"},{"result":126,"points":3,"place":0,"phase":1,"sequence":27,"times":[898,725,609,493,1000],"next_num":5,"trial_type":"ticket-choose","trial_index":112,"time_elapsed":1256684,"internal_node_id":"0.0-112.0"},{"result":175,"points":2,"place":1,"phase":1,"sequence":28,"times":[357,448,1267],"next_num":3,"trial_type":"ticket-choose","trial_index":113,"time_elapsed":1260988,"internal_node_id":"0.0-113.0"},{"result":157,"points":2,"place":1,"phase":1,"sequence":29,"times":[442,464,1102],"next_num":3,"trial_type":"ticket-choose","trial_index":114,"time_elapsed":1265276,"internal_node_id":"0.0-114.0"},{"result":150,"points":3,"place":0,"phase":1,"sequence":30,"times":[474,548,565,419,452,424,738,685,455,789],"next_num":10,"trial_type":"ticket-choose","trial_index":115,"time_elapsed":1274493,"internal_node_id":"0.0-115.0"},{"result":141,"points":3,"place":0,"phase":1,"sequence":31,"times":[975],"next_num":1,"trial_type":"ticket-choose","trial_index":116,"time_elapsed":1277388,"internal_node_id":"0.0-116.0"},{"result":145,"points":3,"place":0,"phase":1,"sequence":32,"times":[897],"next_num":1,"trial_type":"ticket-choose","trial_index":117,"time_elapsed":1280284,"internal_node_id":"0.0-117.0"},{"result":156,"points":3,"place":0,"phase":1,"sequence":33,"times":[495,408,458,436,457,1276],"next_num":6,"trial_type":"ticket-choose","trial_index":118,"time_elapsed":1286716,"internal_node_id":"0.0-118.0"},{"result":153,"points":3,"place":0,"phase":1,"sequence":34,"times":[1169],"next_num":1,"trial_type":"ticket-choose","trial_index":119,"time_elapsed":1289764,"internal_node_id":"0.0-119.0"},{"result":158,"points":3,"place":0,"phase":1,"sequence":35,"times":[868],"next_num":1,"trial_type":"ticket-choose","trial_index":120,"time_elapsed":1292484,"internal_node_id":"0.0-120.0"},{"result":165,"points":2,"place":1,"phase":1,"sequence":36,"times":[817,478,832],"next_num":3,"trial_type":"ticket-choose","trial_index":121,"time_elapsed":1296908,"internal_node_id":"0.0-121.0"},{"result":210,"points":1,"place":4,"phase":1,"sequence":37,"times":[532,491,512,478,494,448,728,490,406,649],"next_num":11,"trial_type":"ticket-choose","trial_index":122,"time_elapsed":1305569,"internal_node_id":"0.0-122.0"},{"result":174,"points":1,"place":3,"phase":1,"sequence":38,"times":[643,457,933],"next_num":3,"trial_type":"ticket-choose","trial_index":123,"time_elapsed":1310036,"internal_node_id":"0.0-123.0"},{"result":275,"points":0,"place":8,"phase":1,"sequence":39,"times":[310,434,426,467,456,416,744,416,422,538],"next_num":11,"trial_type":"ticket-choose","trial_index":124,"time_elapsed":1318658,"internal_node_id":"0.0-124.0"},{"result":116,"points":3,"place":0,"phase":1,"sequence":40,"times":[409,281,669,249,519,1059],"next_num":6,"trial_type":"ticket-choose","trial_index":125,"time_elapsed":1324630,"internal_node_id":"0.0-125.0"},{"result":140,"points":2,"place":1,"phase":1,"sequence":41,"times":[318,553,1043],"next_num":3,"trial_type":"ticket-choose","trial_index":126,"time_elapsed":1328812,"internal_node_id":"0.0-126.0"},{"result":167,"points":2,"place":1,"phase":1,"sequence":42,"times":[674,534,888,1461],"next_num":4,"trial_type":"ticket-choose","trial_index":127,"time_elapsed":1334820,"internal_node_id":"0.0-127.0"},{"result":182,"points":2,"place":1,"phase":1,"sequence":43,"times":[452,462,419,418,512,474,1631],"next_num":7,"trial_type":"ticket-choose","trial_index":128,"time_elapsed":1342253,"internal_node_id":"0.0-128.0"},{"result":129,"points":3,"place":0,"phase":1,"sequence":44,"times":[439,423,571,528,559,990],"next_num":6,"trial_type":"ticket-choose","trial_index":129,"time_elapsed":1348724,"internal_node_id":"0.0-129.0"},{"result":167,"points":3,"place":0,"phase":1,"sequence":45,"times":[864,592,458,433,523,466,451,972],"next_num":8,"trial_type":"ticket-choose","trial_index":130,"time_elapsed":1356780,"internal_node_id":"0.0-130.0"},{"result":150,"points":2,"place":1,"phase":1,"sequence":46,"times":[548,972],"next_num":2,"trial_type":"ticket-choose","trial_index":131,"time_elapsed":1360428,"internal_node_id":"0.0-131.0"},{"result":144,"points":3,"place":0,"phase":1,"sequence":47,"times":[1544,903,436,1120],"next_num":4,"trial_type":"ticket-choose","trial_index":132,"time_elapsed":1367036,"internal_node_id":"0.0-132.0"},{"result":167,"points":1,"place":3,"phase":1,"sequence":48,"times":[671,2795,1184],"next_num":3,"trial_type":"ticket-choose","trial_index":133,"time_elapsed":1374188,"internal_node_id":"0.0-133.0"},{"result":159,"points":2,"place":1,"phase":1,"sequence":49,"times":[852,401,689,412,620,563,583,461,1220],"next_num":9,"trial_type":"ticket-choose","trial_index":134,"time_elapsed":1383532,"internal_node_id":"0.0-134.0"},{"responses":[{"value":1,"offby":0,"category":"$105 - $130","category_index":0},{"value":1,"offby":-1,"category":"$131 - $155","category_index":1},{"value":6,"offby":4,"category":"$156 - $180","category_index":2},{"value":4,"offby":-1,"category":"$181 - $205","category_index":3},{"value":4,"offby":-1,"category":"$206 - $230","category_index":4},{"value":3,"offby":0,"category":"$231 - $255","category_index":5},{"value":1,"offby":-1,"category":"$256 - $280","category_index":6}],"phase":1,"number":1,"trial_type":"bar-choose","trial_index":135,"time_elapsed":1447038,"internal_node_id":"0.0-135.0"},{"during":"Nothing","bonus":280,"trial_type":"final","trial_index":136,"time_elapsed":1499998,"internal_node_id":"0.0-136.0"}],"bonus":280}