{"start_time":"2017-02-16 16:37:36","end_time":"2017-02-16 17:20:43","points_phase0":96,"points_phase1":103,"phase_order":0,"age":51,"gender":"f","tries":1,"during":"Nothing","worker_id":"A2WX9BYW5TI8OA","assignment_id":"3ZDAD0O1T262LHDA3EQ8RE58NT6TXO","data":[{"rt":44572,"url":"\/tickets\/utils\/consent.html","trial_type":"html","trial_index":0,"time_elapsed":44664,"internal_node_id":"0.0-0.0"},{"age":51,"gender":"f","trial_type":"age","trial_index":1,"time_elapsed":52833,"internal_node_id":"0.0-1.0"},{"worker_id":"A2WX9BYW5TI8OA","trial_type":"workerid","trial_index":2,"time_elapsed":292831,"internal_node_id":"0.0-2.0"},{"tries":1,"trial_type":"instructions_check","trial_index":3,"time_elapsed":512550,"internal_node_id":"0.0-3.0"},{"rt":112094,"url":"\/tickets\/utils\/start.html","trial_type":"html","trial_index":4,"time_elapsed":625777,"internal_node_id":"0.0-4.0"},{"trial_type":"number-animation","trial_index":5,"time_elapsed":657711,"internal_node_id":"0.0-5.0"},{"phase":0,"sequence":0,"avg":181,"response":172,"trial_type":"training_avg","trial_index":6,"time_elapsed":678039,"internal_node_id":"0.0-6.0"},{"trial_type":"number-animation","trial_index":7,"time_elapsed":699439,"internal_node_id":"0.0-7.0"},{"phase":0,"sequence":1,"avg":188,"response":184,"trial_type":"training_avg","trial_index":8,"time_elapsed":708478,"internal_node_id":"0.0-8.0"},{"trial_type":"number-animation","trial_index":9,"time_elapsed":731511,"internal_node_id":"0.0-9.0"},{"phase":0,"sequence":2,"avg":188,"response":176,"trial_type":"training_avg","trial_index":10,"time_elapsed":740095,"internal_node_id":"0.0-10.0"},{"trial_type":"number-animation","trial_index":11,"time_elapsed":767287,"internal_node_id":"0.0-11.0"},{"phase":0,"sequence":3,"avg":177,"response":180,"trial_type":"training_avg","trial_index":12,"time_elapsed":775327,"internal_node_id":"0.0-12.0"},{"trial_type":"number-animation","trial_index":13,"time_elapsed":796894,"internal_node_id":"0.0-13.0"},{"phase":0,"sequence":4,"avg":182,"response":179,"trial_type":"training_avg","trial_index":14,"time_elapsed":805639,"internal_node_id":"0.0-14.0"},{"responses":[{"value":1,"offby":1,"category":"$106 - $134","category_index":0},{"value":2,"offby":1,"category":"$135 - $150","category_index":1},{"value":3,"offby":0,"category":"$151 - $165","category_index":2},{"value":4,"offby":-2,"category":"$166 - $180","category_index":3},{"value":5,"offby":-1,"category":"$181 - $195","category_index":4},{"value":3,"offby":0,"category":"$196 - $210","category_index":5},{"value":2,"offby":1,"category":"$211 - $225","category_index":6}],"phase":0,"number":0,"trial_type":"bar-choose","trial_index":15,"time_elapsed":929539,"internal_node_id":"0.0-15.0"},{"rt":38069,"url":"\/tickets\/\/utils\/testing.html","trial_type":"html","trial_index":16,"time_elapsed":968752,"internal_node_id":"0.0-16.0"},{"phase":0,"order":[6,9,17,23,48,43,26,45,31,33,21,16,41,30,24,2,37,34,18,36,8,29,32,25,22,4,11,5,39,12,49,14,27,42,35,13,40,44,3,1,0,47,46,38,7,28,10,19,15,20],"trial_type":"store_order","trial_index":17,"time_elapsed":969752,"internal_node_id":"0.0-17.0"},{"result":126,"points":3,"place":0,"phase":0,"sequence":-1,"times":[2635,1535,1032,11135,1206,1334,1368,1149,1679,3592],"next_num":10,"trial_type":"ticket-choose","trial_index":18,"time_elapsed":1001705,"internal_node_id":"0.0-18.0"},{"rt":20976,"url":"\/tickets\/utils\/testing_after.html","trial_type":"html","trial_index":19,"time_elapsed":1023809,"internal_node_id":"0.0-19.0"},{"result":153,"points":3,"place":0,"phase":0,"sequence":0,"times":[4077,1175,1292,1095,935,1662,2255,1823,1430],"next_num":9,"trial_type":"ticket-choose","trial_index":20,"time_elapsed":1045016,"internal_node_id":"0.0-20.0"},{"result":168,"points":1,"place":2,"phase":0,"sequence":1,"times":[1990,1899,3137,1200,1766,1317,1831,5179],"next_num":8,"trial_type":"ticket-choose","trial_index":21,"time_elapsed":1069080,"internal_node_id":"0.0-21.0"},{"result":154,"points":3,"place":0,"phase":0,"sequence":2,"times":[1202,1136,7390,999,1054,1079,1015,1839,1263,1920],"next_num":10,"trial_type":"ticket-choose","trial_index":22,"time_elapsed":1093544,"internal_node_id":"0.0-22.0"},{"result":158,"points":2,"place":1,"phase":0,"sequence":3,"times":[1635,967,768,718,1268,943,1830],"next_num":7,"trial_type":"ticket-choose","trial_index":23,"time_elapsed":1105818,"internal_node_id":"0.0-23.0"},{"result":147,"points":3,"place":0,"phase":0,"sequence":4,"times":[1251,1678,1638,2536],"next_num":4,"trial_type":"ticket-choose","trial_index":24,"time_elapsed":1116776,"internal_node_id":"0.0-24.0"},{"result":170,"points":2,"place":1,"phase":0,"sequence":5,"times":[1204,1526,3119,1375,1335,1335,1679,1167,1184,3473],"next_num":10,"trial_type":"ticket-choose","trial_index":25,"time_elapsed":1139136,"internal_node_id":"0.0-25.0"},{"result":180,"points":1,"place":4,"phase":0,"sequence":6,"times":[2265,855,968,912,1047,1335,2672,1055,1062,1494],"next_num":10,"trial_type":"ticket-choose","trial_index":26,"time_elapsed":1157080,"internal_node_id":"0.0-26.0"},{"result":167,"points":2,"place":1,"phase":0,"sequence":7,"times":[1001,759,1510,1648,4912],"next_num":5,"trial_type":"ticket-choose","trial_index":27,"time_elapsed":1170183,"internal_node_id":"0.0-27.0"},{"result":148,"points":3,"place":0,"phase":0,"sequence":8,"times":[2300],"next_num":1,"trial_type":"ticket-choose","trial_index":28,"time_elapsed":1175208,"internal_node_id":"0.0-28.0"},{"result":170,"points":1,"place":4,"phase":0,"sequence":9,"times":[4787,1544,1371,1864,1119,1591,1679,1287,1391,1463],"next_num":10,"trial_type":"ticket-choose","trial_index":29,"time_elapsed":1197640,"internal_node_id":"0.0-29.0"},{"result":158,"points":2,"place":1,"phase":0,"sequence":10,"times":[1546,2415,1169,1196,743,790,1355],"next_num":7,"trial_type":"ticket-choose","trial_index":30,"time_elapsed":1210424,"internal_node_id":"0.0-30.0"},{"result":158,"points":2,"place":1,"phase":0,"sequence":11,"times":[1690,1175,1560],"next_num":3,"trial_type":"ticket-choose","trial_index":31,"time_elapsed":1217560,"internal_node_id":"0.0-31.0"},{"result":155,"points":2,"place":1,"phase":0,"sequence":12,"times":[1258,768,1568],"next_num":3,"trial_type":"ticket-choose","trial_index":32,"time_elapsed":1224643,"internal_node_id":"0.0-32.0"},{"result":176,"points":1,"place":4,"phase":0,"sequence":13,"times":[2310,2687,1582,944,856,872,879,952,1326,1383],"next_num":10,"trial_type":"ticket-choose","trial_index":33,"time_elapsed":1243169,"internal_node_id":"0.0-33.0"},{"result":184,"points":1,"place":4,"phase":0,"sequence":14,"times":[9154,982,896,972,805,1160,1158,1134,791,958],"next_num":10,"trial_type":"ticket-choose","trial_index":34,"time_elapsed":1265640,"internal_node_id":"0.0-34.0"},{"result":163,"points":2,"place":1,"phase":0,"sequence":15,"times":[1668,1103,1366],"next_num":3,"trial_type":"ticket-choose","trial_index":35,"time_elapsed":1272519,"internal_node_id":"0.0-35.0"},{"result":163,"points":2,"place":1,"phase":0,"sequence":16,"times":[1612,1830,1887,1836],"next_num":4,"trial_type":"ticket-choose","trial_index":36,"time_elapsed":1282935,"internal_node_id":"0.0-36.0"},{"result":155,"points":2,"place":1,"phase":0,"sequence":17,"times":[1266,2004],"next_num":2,"trial_type":"ticket-choose","trial_index":37,"time_elapsed":1288867,"internal_node_id":"0.0-37.0"},{"result":158,"points":2,"place":1,"phase":0,"sequence":18,"times":[1345,1494,2657],"next_num":3,"trial_type":"ticket-choose","trial_index":38,"time_elapsed":1297169,"internal_node_id":"0.0-38.0"},{"result":154,"points":3,"place":0,"phase":0,"sequence":19,"times":[2171,1486,1886,1254,782,2161,1390,1295],"next_num":8,"trial_type":"ticket-choose","trial_index":39,"time_elapsed":1313353,"internal_node_id":"0.0-39.0"},{"result":168,"points":1,"place":2,"phase":0,"sequence":20,"times":[1266,2647,1788,1087,1103,1623,1048,2144],"next_num":8,"trial_type":"ticket-choose","trial_index":40,"time_elapsed":1330288,"internal_node_id":"0.0-40.0"},{"result":155,"points":1,"place":2,"phase":0,"sequence":21,"times":[5783,1295,1886,1574,1480,1382,1407],"next_num":7,"trial_type":"ticket-choose","trial_index":41,"time_elapsed":1348993,"internal_node_id":"0.0-41.0"},{"result":188,"points":1,"place":4,"phase":0,"sequence":22,"times":[1878,1436,3868,886,863,806,1302,2112,1003,1363],"next_num":10,"trial_type":"ticket-choose","trial_index":42,"time_elapsed":1368689,"internal_node_id":"0.0-42.0"},{"result":179,"points":1,"place":4,"phase":0,"sequence":23,"times":[3562,1175,2319,1423,1709,1191,1468,1184,925,1038],"next_num":10,"trial_type":"ticket-choose","trial_index":43,"time_elapsed":1388825,"internal_node_id":"0.0-43.0"},{"result":158,"points":2,"place":1,"phase":0,"sequence":24,"times":[1768,2023,1072,1078,974,862,1215],"next_num":7,"trial_type":"ticket-choose","trial_index":44,"time_elapsed":1401538,"internal_node_id":"0.0-44.0"},{"result":153,"points":3,"place":0,"phase":0,"sequence":25,"times":[2305,2487,1982,1447,2000,1815,2062,2031,1248],"next_num":9,"trial_type":"ticket-choose","trial_index":45,"time_elapsed":1423017,"internal_node_id":"0.0-45.0"},{"result":169,"points":1,"place":2,"phase":0,"sequence":26,"times":[2306,1631,1742,1623,1495,1975,1528,1344],"next_num":8,"trial_type":"ticket-choose","trial_index":46,"time_elapsed":1440321,"internal_node_id":"0.0-46.0"},{"result":154,"points":3,"place":0,"phase":0,"sequence":27,"times":[1598,1892,1902,1519,839,830,2191,4822,1086],"next_num":9,"trial_type":"ticket-choose","trial_index":47,"time_elapsed":1461321,"internal_node_id":"0.0-47.0"},{"result":171,"points":1,"place":3,"phase":0,"sequence":28,"times":[3387,1263,951,1383,2014,1072,1145,1171,1238,1690],"next_num":10,"trial_type":"ticket-choose","trial_index":48,"time_elapsed":1481225,"internal_node_id":"0.0-48.0"},{"result":168,"points":1,"place":2,"phase":0,"sequence":29,"times":[1178,798,788,902,847,1413,3005,1232],"next_num":8,"trial_type":"ticket-choose","trial_index":49,"time_elapsed":1495184,"internal_node_id":"0.0-49.0"},{"result":148,"points":3,"place":0,"phase":0,"sequence":30,"times":[1300,2191,2144,1406,3359,1606],"next_num":6,"trial_type":"ticket-choose","trial_index":50,"time_elapsed":1510784,"internal_node_id":"0.0-50.0"},{"result":167,"points":2,"place":1,"phase":0,"sequence":31,"times":[3429,1518,1120,1031,1806,1149,2935],"next_num":7,"trial_type":"ticket-choose","trial_index":51,"time_elapsed":1527322,"internal_node_id":"0.0-51.0"},{"result":186,"points":1,"place":4,"phase":0,"sequence":32,"times":[2399,1533,1871,1175,1321,1318,1727,1407,975,991],"next_num":10,"trial_type":"ticket-choose","trial_index":52,"time_elapsed":1546057,"internal_node_id":"0.0-52.0"},{"result":143,"points":3,"place":0,"phase":0,"sequence":33,"times":[1914,939,1315,1265,1287],"next_num":5,"trial_type":"ticket-choose","trial_index":53,"time_elapsed":1555761,"internal_node_id":"0.0-53.0"},{"result":154,"points":2,"place":1,"phase":0,"sequence":34,"times":[3341,2702],"next_num":2,"trial_type":"ticket-choose","trial_index":54,"time_elapsed":1564137,"internal_node_id":"0.0-54.0"},{"result":167,"points":2,"place":1,"phase":0,"sequence":35,"times":[1137,767,1111,807,766,759,1247],"next_num":7,"trial_type":"ticket-choose","trial_index":55,"time_elapsed":1574096,"internal_node_id":"0.0-55.0"},{"result":150,"points":3,"place":0,"phase":0,"sequence":36,"times":[1014,1670],"next_num":2,"trial_type":"ticket-choose","trial_index":56,"time_elapsed":1579313,"internal_node_id":"0.0-56.0"},{"result":159,"points":1,"place":2,"phase":0,"sequence":37,"times":[1691,1776],"next_num":2,"trial_type":"ticket-choose","trial_index":57,"time_elapsed":1585561,"internal_node_id":"0.0-57.0"},{"result":165,"points":1,"place":2,"phase":0,"sequence":38,"times":[899,1048,1512,838,726,727,852,1679],"next_num":8,"trial_type":"ticket-choose","trial_index":58,"time_elapsed":1597545,"internal_node_id":"0.0-58.0"},{"result":154,"points":3,"place":0,"phase":0,"sequence":39,"times":[906,752,1782,789,694,694,751,1197,1168],"next_num":9,"trial_type":"ticket-choose","trial_index":59,"time_elapsed":1610153,"internal_node_id":"0.0-59.0"},{"result":166,"points":1,"place":2,"phase":0,"sequence":40,"times":[3392,915,1510,759,750,734,1149,1336],"next_num":8,"trial_type":"ticket-choose","trial_index":60,"time_elapsed":1624259,"internal_node_id":"0.0-60.0"},{"result":152,"points":3,"place":0,"phase":0,"sequence":41,"times":[830,1486,799,1302],"next_num":4,"trial_type":"ticket-choose","trial_index":61,"time_elapsed":1631409,"internal_node_id":"0.0-61.0"},{"result":158,"points":3,"place":0,"phase":0,"sequence":42,"times":[1202,743,4175,2281,1823,1527],"next_num":6,"trial_type":"ticket-choose","trial_index":62,"time_elapsed":1647075,"internal_node_id":"0.0-62.0"},{"result":163,"points":3,"place":0,"phase":0,"sequence":43,"times":[2362,1848,1192,1167,767,798,775,1199],"next_num":8,"trial_type":"ticket-choose","trial_index":63,"time_elapsed":1661259,"internal_node_id":"0.0-63.0"},{"result":163,"points":2,"place":1,"phase":0,"sequence":44,"times":[1626,2454,1543,767,1534,1183,1254],"next_num":7,"trial_type":"ticket-choose","trial_index":64,"time_elapsed":1675210,"internal_node_id":"0.0-64.0"},{"result":185,"points":1,"place":4,"phase":0,"sequence":45,"times":[2974,1327,1782,798,759,1436,1095,1157,1064,910],"next_num":10,"trial_type":"ticket-choose","trial_index":65,"time_elapsed":1692617,"internal_node_id":"0.0-65.0"},{"result":169,"points":1,"place":2,"phase":0,"sequence":46,"times":[3079,2129,1631,1232,1149,1390,1103,1567],"next_num":8,"trial_type":"ticket-choose","trial_index":66,"time_elapsed":1710133,"internal_node_id":"0.0-66.0"},{"result":158,"points":2,"place":1,"phase":0,"sequence":47,"times":[1476,1096,4126],"next_num":3,"trial_type":"ticket-choose","trial_index":67,"time_elapsed":1719562,"internal_node_id":"0.0-67.0"},{"result":167,"points":2,"place":1,"phase":0,"sequence":48,"times":[1771,926,799,818,1314,857,2320],"next_num":7,"trial_type":"ticket-choose","trial_index":68,"time_elapsed":1731930,"internal_node_id":"0.0-68.0"},{"result":158,"points":2,"place":1,"phase":0,"sequence":49,"times":[1639,1438,1503,1392,1354,1367,1487],"next_num":7,"trial_type":"ticket-choose","trial_index":69,"time_elapsed":1745802,"internal_node_id":"0.0-69.0"},{"responses":[{"value":0,"offby":0,"category":"$106 - $134","category_index":0},{"value":2,"offby":1,"category":"$135 - $150","category_index":1},{"value":3,"offby":0,"category":"$151 - $165","category_index":2},{"value":4,"offby":-2,"category":"$166 - $180","category_index":3},{"value":5,"offby":-1,"category":"$181 - $195","category_index":4},{"value":3,"offby":0,"category":"$196 - $210","category_index":5},{"value":3,"offby":2,"category":"$211 - $225","category_index":6}],"phase":0,"number":1,"trial_type":"bar-choose","trial_index":70,"time_elapsed":1817933,"internal_node_id":"0.0-70.0"},{"rt":12881,"url":"\/tickets\/utils\/start2.html","trial_type":"html","trial_index":71,"time_elapsed":1831955,"internal_node_id":"0.0-71.0"},{"trial_type":"number-animation","trial_index":72,"time_elapsed":1848059,"internal_node_id":"0.0-72.0"},{"phase":1,"sequence":0,"avg":182,"response":161,"trial_type":"training_avg","trial_index":73,"time_elapsed":1859636,"internal_node_id":"0.0-73.0"},{"trial_type":"number-animation","trial_index":74,"time_elapsed":1873555,"internal_node_id":"0.0-74.0"},{"phase":1,"sequence":1,"avg":188,"response":190,"trial_type":"training_avg","trial_index":75,"time_elapsed":1885021,"internal_node_id":"0.0-75.0"},{"trial_type":"number-animation","trial_index":76,"time_elapsed":1897662,"internal_node_id":"0.0-76.0"},{"phase":1,"sequence":2,"avg":176,"response":183,"trial_type":"training_avg","trial_index":77,"time_elapsed":1906155,"internal_node_id":"0.0-77.0"},{"trial_type":"number-animation","trial_index":78,"time_elapsed":1916730,"internal_node_id":"0.0-78.0"},{"phase":1,"sequence":3,"avg":180,"response":174,"trial_type":"training_avg","trial_index":79,"time_elapsed":1924460,"internal_node_id":"0.0-79.0"},{"trial_type":"number-animation","trial_index":80,"time_elapsed":1933825,"internal_node_id":"0.0-80.0"},{"phase":1,"sequence":4,"avg":174,"response":175,"trial_type":"training_avg","trial_index":81,"time_elapsed":1941556,"internal_node_id":"0.0-81.0"},{"responses":[{"value":0,"offby":-1,"category":"$90 - $120","category_index":0},{"value":4,"offby":1,"category":"$121 - $145","category_index":1},{"value":6,"offby":3,"category":"$146 - $170","category_index":2},{"value":7,"offby":1,"category":"$171 - $195","category_index":3},{"value":2,"offby":-2,"category":"$196 - $220","category_index":4},{"value":1,"offby":-1,"category":"$221 - $245","category_index":5},{"value":0,"offby":-1,"category":"$246 - $270","category_index":6}],"phase":1,"number":0,"trial_type":"bar-choose","trial_index":82,"time_elapsed":1984534,"internal_node_id":"0.0-82.0"},{"rt":22417,"url":"\/tickets\/utils\/testing2.html","trial_type":"html","trial_index":83,"time_elapsed":2008085,"internal_node_id":"0.0-83.0"},{"phase":1,"order":[4,3,26,45,40,16,24,27,32,6,12,19,0,9,1,11,47,49,21,42,38,39,46,17,25,20,2,41,31,33,43,35,28,13,34,18,44,22,48,10,23,15,29,14,8,36,7,37,30,5],"trial_type":"store_order","trial_index":84,"time_elapsed":2009087,"internal_node_id":"0.0-84.0"},{"result":146,"points":2,"place":1,"phase":1,"sequence":0,"times":[3195,1407,1316,878,837,870,1272],"next_num":7,"trial_type":"ticket-choose","trial_index":85,"time_elapsed":2022268,"internal_node_id":"0.0-85.0"},{"result":146,"points":2,"place":1,"phase":1,"sequence":1,"times":[1056,936,1630],"next_num":3,"trial_type":"ticket-choose","trial_index":86,"time_elapsed":2028412,"internal_node_id":"0.0-86.0"},{"result":124,"points":3,"place":0,"phase":1,"sequence":2,"times":[1315],"next_num":1,"trial_type":"ticket-choose","trial_index":87,"time_elapsed":2031780,"internal_node_id":"0.0-87.0"},{"result":149,"points":3,"place":0,"phase":1,"sequence":3,"times":[1109,734,855,743,3175,751,768,1096],"next_num":8,"trial_type":"ticket-choose","trial_index":88,"time_elapsed":2044469,"internal_node_id":"0.0-88.0"},{"result":119,"points":3,"place":0,"phase":1,"sequence":4,"times":[880,1152],"next_num":2,"trial_type":"ticket-choose","trial_index":89,"time_elapsed":2049116,"internal_node_id":"0.0-89.0"},{"result":136,"points":2,"place":1,"phase":1,"sequence":5,"times":[1031,615,1359],"next_num":3,"trial_type":"ticket-choose","trial_index":90,"time_elapsed":2054491,"internal_node_id":"0.0-90.0"},{"result":188,"points":1,"place":4,"phase":1,"sequence":6,"times":[1758,734,647,640,623,642,615,624,622,1200],"next_num":10,"trial_type":"ticket-choose","trial_index":91,"time_elapsed":2066410,"internal_node_id":"0.0-91.0"},{"result":165,"points":1,"place":2,"phase":1,"sequence":7,"times":[973,695,1151,663,606,639,1352],"next_num":7,"trial_type":"ticket-choose","trial_index":92,"time_elapsed":2075875,"internal_node_id":"0.0-92.0"},{"result":196,"points":1,"place":4,"phase":1,"sequence":8,"times":[3449,623,2199,731,634,603,1271,649,734,1055],"next_num":10,"trial_type":"ticket-choose","trial_index":93,"time_elapsed":2092123,"internal_node_id":"0.0-93.0"},{"result":146,"points":2,"place":1,"phase":1,"sequence":9,"times":[839,599,582,598,678,650,1171],"next_num":7,"trial_type":"ticket-choose","trial_index":94,"time_elapsed":2100492,"internal_node_id":"0.0-94.0"},{"result":154,"points":2,"place":1,"phase":1,"sequence":10,"times":[776,654,670,626,596,638,1134],"next_num":7,"trial_type":"ticket-choose","trial_index":95,"time_elapsed":2108828,"internal_node_id":"0.0-95.0"},{"result":136,"points":2,"place":1,"phase":1,"sequence":11,"times":[786,598,1463],"next_num":3,"trial_type":"ticket-choose","trial_index":96,"time_elapsed":2114147,"internal_node_id":"0.0-96.0"},{"result":146,"points":2,"place":1,"phase":1,"sequence":12,"times":[661,974,2152],"next_num":3,"trial_type":"ticket-choose","trial_index":97,"time_elapsed":2120301,"internal_node_id":"0.0-97.0"},{"result":155,"points":1,"place":2,"phase":1,"sequence":13,"times":[786,551,566,743,655,710,695,1407],"next_num":8,"trial_type":"ticket-choose","trial_index":98,"time_elapsed":2130045,"internal_node_id":"0.0-98.0"},{"result":146,"points":2,"place":1,"phase":1,"sequence":14,"times":[937,982,1624],"next_num":3,"trial_type":"ticket-choose","trial_index":99,"time_elapsed":2136166,"internal_node_id":"0.0-99.0"},{"result":158,"points":1,"place":2,"phase":1,"sequence":15,"times":[1232,642,1502,640,720,670,823,1078],"next_num":8,"trial_type":"ticket-choose","trial_index":100,"time_elapsed":2147053,"internal_node_id":"0.0-100.0"},{"result":124,"points":3,"place":0,"phase":1,"sequence":16,"times":[1303,683,680,1262],"next_num":4,"trial_type":"ticket-choose","trial_index":101,"time_elapsed":2153789,"internal_node_id":"0.0-101.0"},{"result":146,"points":1,"place":2,"phase":1,"sequence":17,"times":[4315,1299],"next_num":2,"trial_type":"ticket-choose","trial_index":102,"time_elapsed":2161843,"internal_node_id":"0.0-102.0"},{"result":136,"points":2,"place":1,"phase":1,"sequence":18,"times":[834,511,535,709,826,659,1117],"next_num":7,"trial_type":"ticket-choose","trial_index":103,"time_elapsed":2170323,"internal_node_id":"0.0-103.0"},{"result":105,"points":3,"place":0,"phase":1,"sequence":19,"times":[669,960,702,648,1511],"next_num":5,"trial_type":"ticket-choose","trial_index":104,"time_elapsed":2178060,"internal_node_id":"0.0-104.0"},{"result":146,"points":3,"place":0,"phase":1,"sequence":20,"times":[1089,648,646,672,767,646,623,1190],"next_num":8,"trial_type":"ticket-choose","trial_index":105,"time_elapsed":2188182,"internal_node_id":"0.0-105.0"},{"result":150,"points":3,"place":0,"phase":1,"sequence":21,"times":[1110,1735,606,567,1494],"next_num":5,"trial_type":"ticket-choose","trial_index":106,"time_elapsed":2197235,"internal_node_id":"0.0-106.0"},{"result":136,"points":3,"place":0,"phase":1,"sequence":22,"times":[1393,831,830,663,673,1212],"next_num":6,"trial_type":"ticket-choose","trial_index":107,"time_elapsed":2207332,"internal_node_id":"0.0-107.0"},{"result":154,"points":1,"place":2,"phase":1,"sequence":23,"times":[922,536,572,1523,677,718,679,5200],"next_num":8,"trial_type":"ticket-choose","trial_index":108,"time_elapsed":2222172,"internal_node_id":"0.0-108.0"},{"result":132,"points":3,"place":0,"phase":1,"sequence":24,"times":[4470],"next_num":1,"trial_type":"ticket-choose","trial_index":109,"time_elapsed":2229052,"internal_node_id":"0.0-109.0"},{"result":136,"points":2,"place":1,"phase":1,"sequence":25,"times":[945,657,647,622,722,668,1335],"next_num":7,"trial_type":"ticket-choose","trial_index":110,"time_elapsed":2238045,"internal_node_id":"0.0-110.0"},{"result":146,"points":2,"place":1,"phase":1,"sequence":26,"times":[2026,632,4546],"next_num":3,"trial_type":"ticket-choose","trial_index":111,"time_elapsed":2247830,"internal_node_id":"0.0-111.0"},{"result":131,"points":2,"place":1,"phase":1,"sequence":27,"times":[881,710,1480],"next_num":3,"trial_type":"ticket-choose","trial_index":112,"time_elapsed":2253422,"internal_node_id":"0.0-112.0"},{"result":117,"points":3,"place":0,"phase":1,"sequence":28,"times":[1394],"next_num":1,"trial_type":"ticket-choose","trial_index":113,"time_elapsed":2257165,"internal_node_id":"0.0-113.0"},{"result":160,"points":1,"place":4,"phase":1,"sequence":29,"times":[3433,678,742,677,692,647,959,791,984,928],"next_num":10,"trial_type":"ticket-choose","trial_index":114,"time_elapsed":2271696,"internal_node_id":"0.0-114.0"},{"result":135,"points":3,"place":0,"phase":1,"sequence":30,"times":[878,630,1383],"next_num":3,"trial_type":"ticket-choose","trial_index":115,"time_elapsed":2277093,"internal_node_id":"0.0-115.0"},{"result":129,"points":2,"place":1,"phase":1,"sequence":31,"times":[2336,1325],"next_num":2,"trial_type":"ticket-choose","trial_index":116,"time_elapsed":2283030,"internal_node_id":"0.0-116.0"},{"result":189,"points":1,"place":4,"phase":1,"sequence":32,"times":[954,709,1087,691,699,670,1606,679,1150,1266],"next_num":10,"trial_type":"ticket-choose","trial_index":117,"time_elapsed":2296414,"internal_node_id":"0.0-117.0"},{"result":154,"points":2,"place":1,"phase":1,"sequence":33,"times":[813,624,615,686,640,709,1104],"next_num":7,"trial_type":"ticket-choose","trial_index":118,"time_elapsed":2304831,"internal_node_id":"0.0-118.0"},{"result":130,"points":2,"place":1,"phase":1,"sequence":34,"times":[721,1150],"next_num":2,"trial_type":"ticket-choose","trial_index":119,"time_elapsed":2308931,"internal_node_id":"0.0-119.0"},{"result":136,"points":2,"place":1,"phase":1,"sequence":35,"times":[805,583,1062],"next_num":3,"trial_type":"ticket-choose","trial_index":120,"time_elapsed":2313642,"internal_node_id":"0.0-120.0"},{"result":138,"points":1,"place":2,"phase":1,"sequence":36,"times":[1317,1115],"next_num":2,"trial_type":"ticket-choose","trial_index":121,"time_elapsed":2318452,"internal_node_id":"0.0-121.0"},{"result":150,"points":1,"place":2,"phase":1,"sequence":37,"times":[845,535,808,633,588,758,630,3056],"next_num":8,"trial_type":"ticket-choose","trial_index":122,"time_elapsed":2329868,"internal_node_id":"0.0-122.0"},{"result":114,"points":3,"place":0,"phase":1,"sequence":38,"times":[1012,612,965,1088],"next_num":4,"trial_type":"ticket-choose","trial_index":123,"time_elapsed":2336173,"internal_node_id":"0.0-123.0"},{"result":158,"points":1,"place":2,"phase":1,"sequence":39,"times":[1293,642,1022,854,647,736,630,2377],"next_num":8,"trial_type":"ticket-choose","trial_index":124,"time_elapsed":2347829,"internal_node_id":"0.0-124.0"},{"result":136,"points":2,"place":1,"phase":1,"sequence":40,"times":[1105,695,542,591,614,685,1159],"next_num":7,"trial_type":"ticket-choose","trial_index":125,"time_elapsed":2356532,"internal_node_id":"0.0-125.0"},{"result":154,"points":2,"place":1,"phase":1,"sequence":41,"times":[1178,543,815,622,599,686,1111],"next_num":7,"trial_type":"ticket-choose","trial_index":126,"time_elapsed":2365293,"internal_node_id":"0.0-126.0"},{"result":121,"points":3,"place":0,"phase":1,"sequence":42,"times":[1559],"next_num":1,"trial_type":"ticket-choose","trial_index":127,"time_elapsed":2368884,"internal_node_id":"0.0-127.0"},{"result":154,"points":2,"place":1,"phase":1,"sequence":43,"times":[1151,631,584,616,768,648,2175],"next_num":7,"trial_type":"ticket-choose","trial_index":128,"time_elapsed":2378669,"internal_node_id":"0.0-128.0"},{"result":156,"points":1,"place":2,"phase":1,"sequence":44,"times":[1058,592,1242,631,670,647,655,1328],"next_num":8,"trial_type":"ticket-choose","trial_index":129,"time_elapsed":2388958,"internal_node_id":"0.0-129.0"},{"result":128,"points":3,"place":0,"phase":1,"sequence":45,"times":[1224,592,607,880,659,668,807,1046],"next_num":8,"trial_type":"ticket-choose","trial_index":130,"time_elapsed":2398981,"internal_node_id":"0.0-130.0"},{"result":146,"points":2,"place":1,"phase":1,"sequence":46,"times":[1210,833,643,670,695,884,1127],"next_num":7,"trial_type":"ticket-choose","trial_index":131,"time_elapsed":2408328,"internal_node_id":"0.0-131.0"},{"result":124,"points":3,"place":0,"phase":1,"sequence":47,"times":[1023,559,583,1272,655,663,1239],"next_num":7,"trial_type":"ticket-choose","trial_index":132,"time_elapsed":2417732,"internal_node_id":"0.0-132.0"},{"result":135,"points":3,"place":0,"phase":1,"sequence":48,"times":[1633],"next_num":1,"trial_type":"ticket-choose","trial_index":133,"time_elapsed":2421668,"internal_node_id":"0.0-133.0"},{"result":146,"points":2,"place":1,"phase":1,"sequence":49,"times":[1265,614,743,752,816,655,1255],"next_num":7,"trial_type":"ticket-choose","trial_index":134,"time_elapsed":2431093,"internal_node_id":"0.0-134.0"},{"responses":[{"value":0,"offby":-1,"category":"$90 - $120","category_index":0},{"value":2,"offby":-1,"category":"$121 - $145","category_index":1},{"value":4,"offby":1,"category":"$146 - $170","category_index":2},{"value":5,"offby":-1,"category":"$171 - $195","category_index":3},{"value":4,"offby":0,"category":"$196 - $220","category_index":4},{"value":4,"offby":2,"category":"$221 - $245","category_index":5},{"value":1,"offby":0,"category":"$246 - $270","category_index":6}],"phase":1,"number":1,"trial_type":"bar-choose","trial_index":135,"time_elapsed":2480977,"internal_node_id":"0.0-135.0"},{"special_comment":"Somewere higher ranges and lower ranges and when they were higher, there were less low rates to choose from.","trial_type":"special_sequence","trial_index":136,"time_elapsed":2529321,"internal_node_id":"0.0-136.0"},{"during":"Nothing","bonus":264,"trial_type":"final","trial_index":137,"time_elapsed":2585073,"internal_node_id":"0.0-137.0"}],"bonus":264}