{"start_time":"2017-02-21 11:54:08","end_time":"2017-02-21 12:34:26","points_phase0":110,"points_phase1":121,"phase_order":0,"age":25,"gender":"m","tries":1,"during":"Nothing","worker_id":"A2XWD4PZM6JU0M","assignment_id":"3RJSC4XJ11NS3PW9Z6J3FKCJY0C05L","data":[{"rt":8278,"url":"\/tickets\/utils\/consent.html","trial_type":"html","trial_index":0,"time_elapsed":8355,"internal_node_id":"0.0-0.0"},{"age":25,"gender":"m","trial_type":"age","trial_index":1,"time_elapsed":77236,"internal_node_id":"0.0-1.0"},{"worker_id":"A2XWD4PZM6JU0M","trial_type":"workerid","trial_index":2,"time_elapsed":465260,"internal_node_id":"0.0-2.0"},{"tries":1,"trial_type":"instructions_check","trial_index":3,"time_elapsed":593808,"internal_node_id":"0.0-3.0"},{"rt":37652,"url":"\/tickets\/utils\/start.html","trial_type":"html","trial_index":4,"time_elapsed":632543,"internal_node_id":"0.0-4.0"},{"trial_type":"number-animation","trial_index":5,"time_elapsed":644094,"internal_node_id":"0.0-5.0"},{"phase":0,"sequence":0,"avg":181,"response":178,"trial_type":"training_avg","trial_index":6,"time_elapsed":651518,"internal_node_id":"0.0-6.0"},{"trial_type":"number-animation","trial_index":7,"time_elapsed":667816,"internal_node_id":"0.0-7.0"},{"phase":0,"sequence":1,"avg":188,"response":191,"trial_type":"training_avg","trial_index":8,"time_elapsed":674356,"internal_node_id":"0.0-8.0"},{"trial_type":"number-animation","trial_index":9,"time_elapsed":684046,"internal_node_id":"0.0-9.0"},{"phase":0,"sequence":2,"avg":188,"response":181,"trial_type":"training_avg","trial_index":10,"time_elapsed":689633,"internal_node_id":"0.0-10.0"},{"trial_type":"number-animation","trial_index":11,"time_elapsed":704930,"internal_node_id":"0.0-11.0"},{"phase":0,"sequence":3,"avg":177,"response":160,"trial_type":"training_avg","trial_index":12,"time_elapsed":710885,"internal_node_id":"0.0-12.0"},{"trial_type":"number-animation","trial_index":13,"time_elapsed":717623,"internal_node_id":"0.0-13.0"},{"phase":0,"sequence":4,"avg":182,"response":170,"trial_type":"training_avg","trial_index":14,"time_elapsed":723017,"internal_node_id":"0.0-14.0"},{"responses":[{"value":0,"offby":0,"category":"$106 - $134","category_index":0},{"value":0,"offby":-1,"category":"$135 - $150","category_index":1},{"value":3,"offby":0,"category":"$151 - $165","category_index":2},{"value":8,"offby":2,"category":"$166 - $180","category_index":3},{"value":6,"offby":0,"category":"$181 - $195","category_index":4},{"value":3,"offby":0,"category":"$196 - $210","category_index":5},{"value":0,"offby":-1,"category":"$211 - $225","category_index":6}],"phase":0,"number":0,"trial_type":"bar-choose","trial_index":15,"time_elapsed":753369,"internal_node_id":"0.0-15.0"},{"rt":15964,"url":"\/tickets\/\/utils\/testing.html","trial_type":"html","trial_index":16,"time_elapsed":770417,"internal_node_id":"0.0-16.0"},{"phase":0,"order":[25,21,38,49,37,44,8,2,46,41,39,15,10,19,40,27,13,14,12,31,9,1,33,42,35,6,36,18,22,3,24,28,34,7,43,16,47,29,48,26,5,11,45,0,32,23,4,20,17,30],"trial_type":"store_order","trial_index":17,"time_elapsed":771417,"internal_node_id":"0.0-17.0"},{"result":165,"points":2,"place":1,"phase":0,"sequence":-1,"prices":[184,180,224,165,181,199,185,193,218,126],"times":[3726,1129,818,1174],"next_num":4,"trial_type":"ticket-choose","trial_index":18,"time_elapsed":781069,"internal_node_id":"0.0-18.0"},{"rt":9347,"url":"\/tickets\/utils\/testing_after.html","trial_type":"html","trial_index":19,"time_elapsed":791503,"internal_node_id":"0.0-19.0"},{"result":156,"points":3,"place":0,"phase":0,"sequence":0,"prices":[156,201,162,166,185,214,165,202,204,179],"times":[1659],"next_num":1,"trial_type":"ticket-choose","trial_index":20,"time_elapsed":1040613,"internal_node_id":"0.0-20.0"},{"result":158,"points":2,"place":1,"phase":0,"sequence":1,"prices":[175,186,177,209,181,188,158,167,208,154],"times":[3057,2910,617,675,1572,590,1281],"next_num":7,"trial_type":"ticket-choose","trial_index":21,"time_elapsed":1058796,"internal_node_id":"0.0-21.0"},{"result":163,"points":3,"place":0,"phase":0,"sequence":2,"prices":[168,199,196,198,185,195,227,163,177,166],"times":[6943,520,519,496,566,566,687,1257],"next_num":8,"trial_type":"ticket-choose","trial_index":22,"time_elapsed":1074234,"internal_node_id":"0.0-22.0"},{"result":163,"points":1,"place":2,"phase":0,"sequence":3,"prices":[183,163,185,180,166,148,160,186,176,184],"times":[1494,802],"next_num":2,"trial_type":"ticket-choose","trial_index":23,"time_elapsed":1079221,"internal_node_id":"0.0-23.0"},{"result":152,"points":3,"place":0,"phase":0,"sequence":4,"prices":[198,193,169,163,202,182,152,164,177,171],"times":[898,589,1181,1205,549,643,859],"next_num":7,"trial_type":"ticket-choose","trial_index":24,"time_elapsed":1088339,"internal_node_id":"0.0-24.0"},{"result":159,"points":1,"place":2,"phase":0,"sequence":5,"prices":[180,159,149,175,185,141,163,174,178,207],"times":[1212,849],"next_num":2,"trial_type":"ticket-choose","trial_index":25,"time_elapsed":1092604,"internal_node_id":"0.0-25.0"},{"result":156,"points":3,"place":0,"phase":0,"sequence":6,"prices":[174,186,167,211,181,188,178,168,208,156],"times":[696,537,544,541,619,613,621,820,805,929],"next_num":10,"trial_type":"ticket-choose","trial_index":26,"time_elapsed":1225830,"internal_node_id":"0.0-26.0"},{"result":153,"points":3,"place":0,"phase":0,"sequence":7,"prices":[174,186,163,212,181,187,176,166,153,209],"times":[1893,436,566,503,576,574,913,926,1211],"next_num":9,"trial_type":"ticket-choose","trial_index":27,"time_elapsed":1238428,"internal_node_id":"0.0-27.0"},{"result":158,"points":3,"place":0,"phase":0,"sequence":8,"prices":[210,184,226,193,215,158,199,175,176,208],"times":[2719,443,404,467,775,996],"next_num":6,"trial_type":"ticket-choose","trial_index":28,"time_elapsed":1303536,"internal_node_id":"0.0-28.0"},{"result":155,"points":2,"place":1,"phase":0,"sequence":9,"prices":[201,207,155,158,156,165,167,135,178,177],"times":[1374,443,1006],"next_num":3,"trial_type":"ticket-choose","trial_index":29,"time_elapsed":1309122,"internal_node_id":"0.0-29.0"},{"result":171,"points":1,"place":3,"phase":0,"sequence":10,"prices":[189,167,180,197,165,168,172,213,178,171],"times":[13458,1027,460,519,626,975,713,618,812,1435],"next_num":10,"trial_type":"ticket-choose","trial_index":30,"time_elapsed":1335147,"internal_node_id":"0.0-30.0"},{"result":167,"points":2,"place":1,"phase":0,"sequence":11,"prices":[175,187,178,209,179,187,167,169,208,153],"times":[1199,581,566,588,589,642,1211],"next_num":7,"trial_type":"ticket-choose","trial_index":31,"time_elapsed":1343682,"internal_node_id":"0.0-31.0"},{"result":153,"points":3,"place":0,"phase":0,"sequence":12,"prices":[175,186,167,225,179,187,178,169,209,153],"times":[907,634,782,588,620,649,705,1802,766,584],"next_num":10,"trial_type":"ticket-choose","trial_index":32,"time_elapsed":1356497,"internal_node_id":"0.0-32.0"},{"result":158,"points":2,"place":1,"phase":0,"sequence":13,"prices":[176,185,158,217,180,186,177,166,209,154],"times":[1104,444,864],"next_num":3,"trial_type":"ticket-choose","trial_index":33,"time_elapsed":1361337,"internal_node_id":"0.0-33.0"},{"result":150,"points":3,"place":0,"phase":0,"sequence":14,"prices":[189,150,175,160,188,207,158,194,178,199],"times":[5078,1225],"next_num":2,"trial_type":"ticket-choose","trial_index":34,"time_elapsed":1369920,"internal_node_id":"0.0-34.0"},{"result":186,"points":1,"place":4,"phase":0,"sequence":15,"prices":[168,192,171,178,188,217,172,195,197,186],"times":[658,537,558,583,558,580,621,737,759,557],"next_num":10,"trial_type":"ticket-choose","trial_index":35,"time_elapsed":1380234,"internal_node_id":"0.0-35.0"},{"result":167,"points":2,"place":1,"phase":0,"sequence":16,"prices":[175,185,178,215,181,186,167,168,208,156],"times":[1399,536,812,618,1051,529,1487],"next_num":7,"trial_type":"ticket-choose","trial_index":36,"time_elapsed":1389717,"internal_node_id":"0.0-36.0"},{"result":169,"points":1,"place":2,"phase":0,"sequence":17,"prices":[175,186,178,212,179,187,167,169,209,153],"times":[932,505,482,519,628,558,1359,1286],"next_num":8,"trial_type":"ticket-choose","trial_index":37,"time_elapsed":1399365,"internal_node_id":"0.0-37.0"},{"result":168,"points":1,"place":2,"phase":0,"sequence":18,"prices":[174,186,178,217,181,188,167,168,208,156],"times":[1242,545,520,536,605,520,1218,1726],"next_num":8,"trial_type":"ticket-choose","trial_index":38,"time_elapsed":1409629,"internal_node_id":"0.0-38.0"},{"result":148,"points":3,"place":0,"phase":0,"sequence":19,"prices":[148,171,150,163,167,220,162,186,187,165],"times":[1360],"next_num":1,"trial_type":"ticket-choose","trial_index":39,"time_elapsed":1413079,"internal_node_id":"0.0-39.0"},{"result":156,"points":3,"place":0,"phase":0,"sequence":20,"prices":[175,185,167,224,181,186,178,168,208,156],"times":[717,466,904,581,642,551,550,551,688,503],"next_num":10,"trial_type":"ticket-choose","trial_index":40,"time_elapsed":1423545,"internal_node_id":"0.0-40.0"},{"result":163,"points":2,"place":1,"phase":0,"sequence":21,"prices":[175,187,163,209,180,188,176,165,154,208],"times":[834,597,813],"next_num":3,"trial_type":"ticket-choose","trial_index":41,"time_elapsed":1428054,"internal_node_id":"0.0-41.0"},{"result":170,"points":1,"place":4,"phase":0,"sequence":22,"prices":[159,183,166,168,173,205,167,187,191,170],"times":[629,566,520,504,545,757,1073,659,819,688],"next_num":10,"trial_type":"ticket-choose","trial_index":42,"time_elapsed":1438639,"internal_node_id":"0.0-42.0"},{"result":143,"points":3,"place":0,"phase":0,"sequence":23,"prices":[222,173,202,197,143,205,198,183,178,186],"times":[1053,558,520,582,911],"next_num":5,"trial_type":"ticket-choose","trial_index":43,"time_elapsed":1445230,"internal_node_id":"0.0-43.0"},{"result":154,"points":2,"place":1,"phase":0,"sequence":24,"prices":[168,154,172,185,195,144,184,211,177,227],"times":[1112,782],"next_num":2,"trial_type":"ticket-choose","trial_index":44,"time_elapsed":1449077,"internal_node_id":"0.0-44.0"},{"result":163,"points":2,"place":1,"phase":0,"sequence":25,"prices":[174,186,176,217,181,187,163,166,153,209],"times":[966,649,912,558,727,644,1125],"next_num":7,"trial_type":"ticket-choose","trial_index":45,"time_elapsed":1458071,"internal_node_id":"0.0-45.0"},{"result":165,"points":2,"place":1,"phase":0,"sequence":26,"prices":[188,200,165,172,198,174,177,154,177,180],"times":[1236,611,2379],"next_num":3,"trial_type":"ticket-choose","trial_index":46,"time_elapsed":1464509,"internal_node_id":"0.0-46.0"},{"result":165,"points":1,"place":2,"phase":0,"sequence":27,"prices":[176,187,158,210,181,187,177,165,208,153],"times":[6918,565,482,467,588,527,568,2177],"next_num":8,"trial_type":"ticket-choose","trial_index":47,"time_elapsed":1480540,"internal_node_id":"0.0-47.0"},{"result":158,"points":2,"place":1,"phase":0,"sequence":28,"prices":[176,187,177,225,181,187,158,165,208,153],"times":[1654,498,542,774,721,596,875],"next_num":7,"trial_type":"ticket-choose","trial_index":48,"time_elapsed":1489644,"internal_node_id":"0.0-48.0"},{"result":165,"points":1,"place":2,"phase":0,"sequence":29,"prices":[175,186,163,211,179,187,176,165,153,210],"times":[2041,458,1335,534,520,495,561,741],"next_num":8,"trial_type":"ticket-choose","trial_index":49,"time_elapsed":1499538,"internal_node_id":"0.0-49.0"},{"result":184,"points":1,"place":4,"phase":0,"sequence":30,"prices":[161,193,175,181,185,224,180,199,218,184],"times":[1054,504,419,413,549,582,673,706,635,558],"next_num":10,"trial_type":"ticket-choose","trial_index":50,"time_elapsed":1509492,"internal_node_id":"0.0-50.0"},{"result":185,"points":1,"place":4,"phase":0,"sequence":31,"prices":[169,196,170,184,187,211,171,201,202,185],"times":[1740,534,693,657,626,811,980,874,728,480],"next_num":10,"trial_type":"ticket-choose","trial_index":51,"time_elapsed":1521274,"internal_node_id":"0.0-51.0"},{"result":155,"points":2,"place":1,"phase":0,"sequence":32,"prices":[181,155,148,161,168,187,172,199,176,194],"times":[805,866],"next_num":2,"trial_type":"ticket-choose","trial_index":52,"time_elapsed":1524833,"internal_node_id":"0.0-52.0"},{"result":163,"points":2,"place":1,"phase":0,"sequence":33,"prices":[175,186,176,224,179,187,163,165,153,210],"times":[744,557,589,598,602,534,1995],"next_num":7,"trial_type":"ticket-choose","trial_index":53,"time_elapsed":1533572,"internal_node_id":"0.0-53.0"},{"result":157,"points":3,"place":0,"phase":0,"sequence":34,"prices":[201,187,157,184,198,179,188,185,178,170],"times":[972,674,1340],"next_num":3,"trial_type":"ticket-choose","trial_index":54,"time_elapsed":1538719,"internal_node_id":"0.0-54.0"},{"result":158,"points":2,"place":1,"phase":0,"sequence":35,"prices":[175,186,158,211,180,187,177,166,209,153],"times":[1714,1026,1037],"next_num":3,"trial_type":"ticket-choose","trial_index":55,"time_elapsed":1544796,"internal_node_id":"0.0-55.0"},{"result":152,"points":3,"place":0,"phase":0,"sequence":36,"prices":[200,181,203,152,175,171,160,154,176,191],"times":[1097,444,520,813],"next_num":4,"trial_type":"ticket-choose","trial_index":56,"time_elapsed":1550035,"internal_node_id":"0.0-56.0"},{"result":154,"points":2,"place":1,"phase":0,"sequence":37,"prices":[150,185,154,161,173,199,155,188,191,168],"times":[459,1957,735],"next_num":3,"trial_type":"ticket-choose","trial_index":57,"time_elapsed":1555350,"internal_node_id":"0.0-57.0"},{"result":147,"points":3,"place":0,"phase":0,"sequence":38,"prices":[181,215,169,147,182,193,177,184,176,179],"times":[1652,546,525,874],"next_num":4,"trial_type":"ticket-choose","trial_index":58,"time_elapsed":1561574,"internal_node_id":"0.0-58.0"},{"result":152,"points":3,"place":0,"phase":0,"sequence":39,"prices":[152,200,158,173,182,207,161,202,204,180],"times":[1385],"next_num":1,"trial_type":"ticket-choose","trial_index":59,"time_elapsed":1564869,"internal_node_id":"0.0-59.0"},{"result":154,"points":3,"place":0,"phase":0,"sequence":40,"prices":[175,187,176,209,180,188,163,165,154,208],"times":[919,536,558,589,597,558,1401,851,935],"next_num":9,"trial_type":"ticket-choose","trial_index":60,"time_elapsed":1575276,"internal_node_id":"0.0-60.0"},{"result":153,"points":3,"place":0,"phase":0,"sequence":41,"prices":[175,187,167,212,179,187,178,169,208,153],"times":[1166,513,513,566,620,728,651,904,780,560],"next_num":10,"trial_type":"ticket-choose","trial_index":61,"time_elapsed":1585948,"internal_node_id":"0.0-61.0"},{"result":164,"points":3,"place":0,"phase":0,"sequence":42,"prices":[212,192,188,184,167,193,189,164,176,170],"times":[788,452,626,574,857,667,620,897],"next_num":8,"trial_type":"ticket-choose","trial_index":62,"time_elapsed":1594913,"internal_node_id":"0.0-62.0"},{"result":153,"points":3,"place":0,"phase":0,"sequence":43,"prices":[176,186,163,214,179,187,176,166,153,208],"times":[1113,496,2317,559,15738,911,566,1965,813],"next_num":9,"trial_type":"ticket-choose","trial_index":63,"time_elapsed":1623193,"internal_node_id":"0.0-63.0"},{"result":188,"points":1,"place":4,"phase":0,"sequence":44,"prices":[161,193,167,187,190,224,174,194,195,188],"times":[1868,496,444,458,520,550,644,642,727,582],"next_num":10,"trial_type":"ticket-choose","trial_index":64,"time_elapsed":1633816,"internal_node_id":"0.0-64.0"},{"result":158,"points":2,"place":1,"phase":0,"sequence":45,"prices":[176,185,177,218,180,186,158,166,209,154],"times":[903,558,598,619,606,597,951],"next_num":7,"trial_type":"ticket-choose","trial_index":65,"time_elapsed":1641735,"internal_node_id":"0.0-65.0"},{"result":163,"points":2,"place":1,"phase":0,"sequence":46,"prices":[176,186,176,210,179,187,163,166,153,208],"times":[806,735,612,628,680,1005,1964],"next_num":7,"trial_type":"ticket-choose","trial_index":66,"time_elapsed":1651253,"internal_node_id":"0.0-66.0"},{"result":153,"points":3,"place":0,"phase":0,"sequence":47,"prices":[175,186,177,221,180,187,158,166,209,153],"times":[966,574,558,591,650,636,2102,512,827,507],"next_num":10,"trial_type":"ticket-choose","trial_index":67,"time_elapsed":1662815,"internal_node_id":"0.0-67.0"},{"result":154,"points":3,"place":0,"phase":0,"sequence":48,"prices":[175,186,158,209,181,188,177,167,208,154],"times":[1038,566,1003,545,578,574,552,751,704,571],"next_num":10,"trial_type":"ticket-choose","trial_index":68,"time_elapsed":1673715,"internal_node_id":"0.0-68.0"},{"result":157,"points":3,"place":0,"phase":0,"sequence":49,"prices":[157,191,165,175,182,203,170,195,200,176],"times":[1236],"next_num":1,"trial_type":"ticket-choose","trial_index":69,"time_elapsed":1677695,"internal_node_id":"0.0-69.0"},{"responses":[{"value":0,"offby":0,"category":"$106 - $134","category_index":0},{"value":1,"offby":0,"category":"$135 - $150","category_index":1},{"value":3,"offby":0,"category":"$151 - $165","category_index":2},{"value":10,"offby":4,"category":"$166 - $180","category_index":3},{"value":3,"offby":-3,"category":"$181 - $195","category_index":4},{"value":2,"offby":-1,"category":"$196 - $210","category_index":5},{"value":1,"offby":0,"category":"$211 - $225","category_index":6}],"phase":0,"number":1,"trial_type":"bar-choose","trial_index":70,"time_elapsed":1703733,"internal_node_id":"0.0-70.0"},{"rt":5068,"url":"\/tickets\/utils\/start2.html","trial_type":"html","trial_index":71,"time_elapsed":1709884,"internal_node_id":"0.0-71.0"},{"trial_type":"number-animation","trial_index":72,"time_elapsed":1719102,"internal_node_id":"0.0-72.0"},{"phase":1,"sequence":0,"avg":182,"response":154,"trial_type":"training_avg","trial_index":73,"time_elapsed":1724417,"internal_node_id":"0.0-73.0"},{"trial_type":"number-animation","trial_index":74,"time_elapsed":1740903,"internal_node_id":"0.0-74.0"},{"phase":1,"sequence":1,"avg":188,"response":182,"trial_type":"training_avg","trial_index":75,"time_elapsed":1746880,"internal_node_id":"0.0-75.0"},{"trial_type":"number-animation","trial_index":76,"time_elapsed":1763005,"internal_node_id":"0.0-76.0"},{"phase":1,"sequence":2,"avg":176,"response":178,"trial_type":"training_avg","trial_index":77,"time_elapsed":1775595,"internal_node_id":"0.0-77.0"},{"trial_type":"number-animation","trial_index":78,"time_elapsed":1792015,"internal_node_id":"0.0-78.0"},{"phase":1,"sequence":3,"avg":180,"response":181,"trial_type":"training_avg","trial_index":79,"time_elapsed":1799322,"internal_node_id":"0.0-79.0"},{"trial_type":"number-animation","trial_index":80,"time_elapsed":1818074,"internal_node_id":"0.0-80.0"},{"phase":1,"sequence":4,"avg":174,"response":176,"trial_type":"training_avg","trial_index":81,"time_elapsed":1824672,"internal_node_id":"0.0-81.0"},{"responses":[{"value":0,"offby":-1,"category":"$90 - $120","category_index":0},{"value":1,"offby":-2,"category":"$121 - $145","category_index":1},{"value":8,"offby":5,"category":"$146 - $170","category_index":2},{"value":7,"offby":1,"category":"$171 - $195","category_index":3},{"value":3,"offby":-1,"category":"$196 - $220","category_index":4},{"value":1,"offby":-1,"category":"$221 - $245","category_index":5},{"value":0,"offby":-1,"category":"$246 - $270","category_index":6}],"phase":1,"number":0,"trial_type":"bar-choose","trial_index":82,"time_elapsed":1841571,"internal_node_id":"0.0-82.0"},{"rt":15616,"url":"\/tickets\/utils\/testing2.html","trial_type":"html","trial_index":83,"time_elapsed":1858279,"internal_node_id":"0.0-83.0"},{"phase":1,"order":[16,10,49,9,41,0,36,26,8,13,4,47,24,23,44,15,38,29,11,34,1,33,37,18,32,40,43,46,14,3,22,21,7,45,5,31,48,12,2,20,39,25,19,27,28,35,17,42,6,30],"trial_type":"store_order","trial_index":84,"time_elapsed":1859281,"internal_node_id":"0.0-84.0"},{"result":136,"points":2,"place":1,"phase":1,"sequence":0,"prices":[171,192,136,265,180,194,174,152,239,127],"times":[3216,611,1029],"next_num":3,"trial_type":"ticket-choose","trial_index":85,"time_elapsed":1866407,"internal_node_id":"0.0-85.0"},{"result":126,"points":3,"place":0,"phase":1,"sequence":1,"prices":[169,193,154,255,178,194,176,158,239,126],"times":[1069,545,664,606,605,575,585,1236,597,618],"next_num":10,"trial_type":"ticket-choose","trial_index":86,"time_elapsed":1877415,"internal_node_id":"0.0-86.0"},{"result":116,"points":3,"place":0,"phase":1,"sequence":2,"prices":[186,146,191,179,152,116,140,201,172,187],"times":[996,920,534,573,750,967],"next_num":6,"trial_type":"ticket-choose","trial_index":87,"time_elapsed":1885072,"internal_node_id":"0.0-87.0"},{"result":133,"points":3,"place":0,"phase":1,"sequence":3,"prices":[169,191,154,268,183,197,176,155,236,133],"times":[642,604,675,603,720,559,689,1103,612,537],"next_num":10,"trial_type":"ticket-choose","trial_index":88,"time_elapsed":1895542,"internal_node_id":"0.0-88.0"},{"result":131,"points":2,"place":1,"phase":1,"sequence":4,"prices":[221,234,131,136,132,149,154,90,176,173],"times":[2690,690,1087],"next_num":3,"trial_type":"ticket-choose","trial_index":89,"time_elapsed":1902526,"internal_node_id":"0.0-89.0"},{"result":126,"points":3,"place":0,"phase":1,"sequence":5,"prices":[173,191,146,242,178,194,172,152,126,235],"times":[883,499,527,568,551,603,720,1220,935],"next_num":9,"trial_type":"ticket-choose","trial_index":90,"time_elapsed":1912526,"internal_node_id":"0.0-90.0"},{"result":128,"points":3,"place":0,"phase":1,"sequence":6,"prices":[196,221,149,164,216,167,175,128,176,181],"times":[1419,683,819,567,619,597,629,1003],"next_num":8,"trial_type":"ticket-choose","trial_index":91,"time_elapsed":1922444,"internal_node_id":"0.0-91.0"},{"result":124,"points":3,"place":0,"phase":1,"sequence":7,"prices":[124,220,136,165,185,234,143,225,228,179],"times":[1103],"next_num":1,"trial_type":"ticket-choose","trial_index":92,"time_elapsed":1925348,"internal_node_id":"0.0-92.0"},{"result":133,"points":3,"place":0,"phase":1,"sequence":8,"prices":[168,192,154,237,182,196,176,156,235,133],"times":[1066,522,541,566,575,587,583,768,666,542],"next_num":10,"trial_type":"ticket-choose","trial_index":93,"time_elapsed":1935611,"internal_node_id":"0.0-93.0"},{"result":131,"points":3,"place":0,"phase":1,"sequence":9,"prices":[170,190,176,251,183,192,154,157,236,131],"times":[997,497,584,605,733,665,1029,750,558,497],"next_num":10,"trial_type":"ticket-choose","trial_index":94,"time_elapsed":1951774,"internal_node_id":"0.0-94.0"},{"result":126,"points":3,"place":0,"phase":1,"sequence":10,"prices":[172,191,176,272,179,194,146,152,126,235],"times":[9624,634,764,582,559,61233,1242,621,886],"next_num":9,"trial_type":"ticket-choose","trial_index":95,"time_elapsed":2031730,"internal_node_id":"0.0-95.0"},{"result":124,"points":3,"place":0,"phase":1,"sequence":11,"prices":[219,183,227,124,176,161,140,129,171,201],"times":[1600,6082,534,875],"next_num":4,"trial_type":"ticket-choose","trial_index":96,"time_elapsed":2043383,"internal_node_id":"0.0-96.0"},{"result":188,"points":1,"place":4,"phase":1,"sequence":12,"prices":[142,207,171,182,190,269,180,218,256,188],"times":[787,400,533,753,1375,2248,612,5718,672,653],"next_num":11,"trial_type":"ticket-choose","trial_index":97,"time_elapsed":2061610,"internal_node_id":"0.0-97.0"},{"result":136,"points":2,"place":1,"phase":1,"sequence":13,"prices":[173,191,174,270,180,193,136,153,239,129],"times":[823,428,437,519,497,574,1013],"next_num":7,"trial_type":"ticket-choose","trial_index":98,"time_elapsed":2069076,"internal_node_id":"0.0-98.0"},{"result":101,"points":3,"place":0,"phase":1,"sequence":14,"prices":[181,138,118,170,190,101,146,169,175,233],"times":[846,345,336,542,445,857],"next_num":6,"trial_type":"ticket-choose","trial_index":99,"time_elapsed":2075622,"internal_node_id":"0.0-99.0"},{"result":126,"points":3,"place":0,"phase":1,"sequence":15,"prices":[170,193,176,245,178,194,154,159,236,126],"times":[1077,521,531,595,558,580,684,674,651,451],"next_num":10,"trial_type":"ticket-choose","trial_index":100,"time_elapsed":2085811,"internal_node_id":"0.0-100.0"},{"result":152,"points":2,"place":1,"phase":1,"sequence":16,"prices":[156,218,212,216,191,210,275,146,174,152],"times":[902,555,540,858,826,605,562,845,635,924],"next_num":10,"trial_type":"ticket-choose","trial_index":101,"time_elapsed":2096932,"internal_node_id":"0.0-101.0"},{"result":121,"points":3,"place":0,"phase":1,"sequence":17,"prices":[121,191,128,141,166,217,129,196,202,157],"times":[1132],"next_num":1,"trial_type":"ticket-choose","trial_index":102,"time_elapsed":2099889,"internal_node_id":"0.0-102.0"},{"result":127,"points":3,"place":0,"phase":1,"sequence":18,"prices":[169,194,154,271,178,201,176,158,236,127],"times":[1158,372,466,495,538,519,535,560,595,884],"next_num":10,"trial_type":"ticket-choose","trial_index":103,"time_elapsed":2109682,"internal_node_id":"0.0-103.0"},{"result":130,"points":2,"place":1,"phase":1,"sequence":19,"prices":[181,130,116,142,157,193,165,218,173,207],"times":[887,912],"next_num":2,"trial_type":"ticket-choose","trial_index":104,"time_elapsed":2113468,"internal_node_id":"0.0-104.0"},{"result":129,"points":3,"place":0,"phase":1,"sequence":20,"prices":[169,193,146,237,180,196,172,150,129,236],"times":[859,468,457,645,589,543,613,651,1051],"next_num":9,"trial_type":"ticket-choose","trial_index":105,"time_elapsed":2123095,"internal_node_id":"0.0-105.0"},{"result":160,"points":1,"place":4,"phase":1,"sequence":21,"prices":[137,187,152,156,166,231,155,194,202,160],"times":[1774,420,697,648,614,590,659,550,591,835],"next_num":10,"trial_type":"ticket-choose","trial_index":106,"time_elapsed":2134111,"internal_node_id":"0.0-106.0"},{"result":124,"points":3,"place":0,"phase":1,"sequence":22,"prices":[216,206,158,145,224,185,124,149,175,162],"times":[917,591,1159,650,528,588,873],"next_num":7,"trial_type":"ticket-choose","trial_index":107,"time_elapsed":2142429,"internal_node_id":"0.0-107.0"},{"result":127,"points":3,"place":0,"phase":1,"sequence":23,"prices":[173,194,136,239,182,200,174,150,236,127],"times":[1316,491,949,505,489,650,630,673,558,1196],"next_num":10,"trial_type":"ticket-choose","trial_index":108,"time_elapsed":2153775,"internal_node_id":"0.0-108.0"},{"result":196,"points":1,"place":4,"phase":1,"sequence":24,"prices":[143,206,153,194,201,267,168,208,210,196],"times":[1089,467,904,597,552,496,589,536,612,994],"next_num":11,"trial_type":"ticket-choose","trial_index":109,"time_elapsed":2164331,"internal_node_id":"0.0-109.0"},{"result":217,"points":0,"place":8,"phase":1,"sequence":25,"prices":[198,119,169,141,195,233,136,208,177,217],"times":[944,504,458,650,583,580,797,605,620,571],"next_num":10,"trial_type":"ticket-choose","trial_index":110,"time_elapsed":2174333,"internal_node_id":"0.0-110.0"},{"result":159,"points":2,"place":1,"phase":1,"sequence":26,"prices":[221,193,135,188,217,179,196,190,175,159],"times":[1762,642,1089,514,563,575,582,821,765,844],"next_num":10,"trial_type":"ticket-choose","trial_index":111,"time_elapsed":2186532,"internal_node_id":"0.0-111.0"},{"result":136,"points":3,"place":0,"phase":1,"sequence":27,"prices":[240,188,273,207,250,136,217,170,171,236],"times":[875,695,604,603,712,1029],"next_num":6,"trial_type":"ticket-choose","trial_index":112,"time_elapsed":2194024,"internal_node_id":"0.0-112.0"},{"result":154,"points":2,"place":1,"phase":1,"sequence":28,"prices":[169,192,176,244,178,194,154,159,237,125],"times":[2547,712,604,629,620,588,2417],"next_num":7,"trial_type":"ticket-choose","trial_index":113,"time_elapsed":2205276,"internal_node_id":"0.0-113.0"},{"result":126,"points":3,"place":0,"phase":1,"sequence":29,"prices":[170,193,146,268,178,195,172,149,126,241],"times":[781,573,1240,519,544,602,605,797,1458],"next_num":9,"trial_type":"ticket-choose","trial_index":114,"time_elapsed":2216008,"internal_node_id":"0.0-114.0"},{"result":136,"points":2,"place":1,"phase":1,"sequence":30,"prices":[172,194,174,243,182,193,136,150,237,126],"times":[1150,417,491,681,598,626,1030],"next_num":7,"trial_type":"ticket-choose","trial_index":115,"time_elapsed":2223998,"internal_node_id":"0.0-115.0"},{"result":128,"points":3,"place":0,"phase":1,"sequence":31,"prices":[170,192,174,242,181,196,136,153,236,128],"times":[986,359,544,658,627,568,1274,605,634,651],"next_num":10,"trial_type":"ticket-choose","trial_index":116,"time_elapsed":2234452,"internal_node_id":"0.0-116.0"},{"result":146,"points":2,"place":1,"phase":1,"sequence":32,"prices":[171,191,172,268,179,194,146,150,127,239],"times":[1242,582,643,612,821,881,1065],"next_num":7,"trial_type":"ticket-choose","trial_index":117,"time_elapsed":2243387,"internal_node_id":"0.0-117.0"},{"result":149,"points":3,"place":0,"phase":1,"sequence":33,"prices":[244,203,196,189,154,206,197,149,171,159],"times":[2831,445,789,1005,1050,1027,650,1072],"next_num":8,"trial_type":"ticket-choose","trial_index":118,"time_elapsed":2255662,"internal_node_id":"0.0-118.0"},{"result":128,"points":3,"place":0,"phase":1,"sequence":34,"prices":[171,195,172,242,179,196,146,150,128,235],"times":[979,520,576,518,558,643,1888,542,912],"next_num":9,"trial_type":"ticket-choose","trial_index":119,"time_elapsed":2266433,"internal_node_id":"0.0-119.0"},{"result":117,"points":3,"place":0,"phase":1,"sequence":35,"prices":[117,161,120,147,153,259,144,191,195,149],"times":[1241],"next_num":1,"trial_type":"ticket-choose","trial_index":120,"time_elapsed":2269528,"internal_node_id":"0.0-120.0"},{"result":114,"points":3,"place":0,"phase":1,"sequence":36,"prices":[182,249,159,114,184,205,175,189,172,178],"times":[825,768,1126,973],"next_num":4,"trial_type":"ticket-choose","trial_index":121,"time_elapsed":2275712,"internal_node_id":"0.0-121.0"},{"result":154,"points":2,"place":1,"phase":1,"sequence":37,"prices":[168,192,176,242,183,197,154,156,237,132],"times":[1025,597,572,503,4577,581,2388],"next_num":7,"trial_type":"ticket-choose","trial_index":122,"time_elapsed":2289225,"internal_node_id":"0.0-122.0"},{"result":146,"points":2,"place":1,"phase":1,"sequence":38,"prices":[168,191,146,252,183,193,172,153,126,238],"times":[1254,528,1026],"next_num":3,"trial_type":"ticket-choose","trial_index":123,"time_elapsed":2294340,"internal_node_id":"0.0-123.0"},{"result":136,"points":2,"place":1,"phase":1,"sequence":39,"prices":[169,192,174,246,180,195,136,152,238,126],"times":[956,696,612,613,663,746,1225],"next_num":7,"trial_type":"ticket-choose","trial_index":124,"time_elapsed":2303106,"internal_node_id":"0.0-124.0"},{"result":153,"points":2,"place":1,"phase":1,"sequence":40,"prices":[197,153,181,215,150,155,164,247,177,162],"times":[994,844],"next_num":2,"trial_type":"ticket-choose","trial_index":125,"time_elapsed":2306883,"internal_node_id":"0.0-125.0"},{"result":132,"points":3,"place":0,"phase":1,"sequence":41,"prices":[132,222,144,153,190,248,151,224,228,179],"times":[1034],"next_num":1,"trial_type":"ticket-choose","trial_index":126,"time_elapsed":2309618,"internal_node_id":"0.0-126.0"},{"result":129,"points":3,"place":0,"phase":1,"sequence":42,"prices":[172,190,136,270,179,192,174,152,237,129],"times":[1173,495,1175,542,513,511,584,859,758,558],"next_num":10,"trial_type":"ticket-choose","trial_index":127,"time_elapsed":2320327,"internal_node_id":"0.0-127.0"},{"result":192,"points":1,"place":4,"phase":1,"sequence":43,"prices":[157,205,161,175,197,254,165,210,214,192],"times":[1139,558,680,775,599,673,1051,612,584,594],"next_num":10,"trial_type":"ticket-choose","trial_index":128,"time_elapsed":2331511,"internal_node_id":"0.0-128.0"},{"result":189,"points":1,"place":4,"phase":1,"sequence":44,"prices":[157,213,159,187,194,242,161,222,225,189],"times":[1234,619,651,544,613,519,872,614,573,620],"next_num":11,"trial_type":"ticket-choose","trial_index":129,"time_elapsed":2342819,"internal_node_id":"0.0-129.0"},{"result":129,"points":2,"place":1,"phase":1,"sequence":45,"prices":[155,129,164,189,210,108,187,241,174,275],"times":[933,980],"next_num":2,"trial_type":"ticket-choose","trial_index":130,"time_elapsed":2346729,"internal_node_id":"0.0-130.0"},{"result":136,"points":2,"place":1,"phase":1,"sequence":46,"prices":[171,192,136,243,182,195,174,154,236,128],"times":[1125,537,797],"next_num":3,"trial_type":"ticket-choose","trial_index":131,"time_elapsed":2351286,"internal_node_id":"0.0-131.0"},{"result":105,"points":3,"place":0,"phase":1,"sequence":47,"prices":[263,165,224,214,105,230,215,185,177,193],"times":[1353,553,513,560,969],"next_num":5,"trial_type":"ticket-choose","trial_index":132,"time_elapsed":2357976,"internal_node_id":"0.0-132.0"},{"result":146,"points":2,"place":1,"phase":1,"sequence":48,"prices":[168,191,172,240,183,193,146,151,125,238],"times":[858,506,773,582,621,559,1119],"next_num":7,"trial_type":"ticket-choose","trial_index":133,"time_elapsed":2366073,"internal_node_id":"0.0-133.0"},{"result":135,"points":3,"place":0,"phase":1,"sequence":49,"prices":[135,202,150,169,183,225,160,211,220,172],"times":[979],"next_num":1,"trial_type":"ticket-choose","trial_index":134,"time_elapsed":2369107,"internal_node_id":"0.0-134.0"},{"responses":[{"value":0,"offby":-1,"category":"$90 - $120","category_index":0},{"value":2,"offby":-1,"category":"$121 - $145","category_index":1},{"value":6,"offby":3,"category":"$146 - $170","category_index":2},{"value":5,"offby":-1,"category":"$171 - $195","category_index":3},{"value":6,"offby":2,"category":"$196 - $220","category_index":4},{"value":1,"offby":-1,"category":"$221 - $245","category_index":5},{"value":0,"offby":-1,"category":"$246 - $270","category_index":6}],"phase":1,"number":1,"trial_type":"bar-choose","trial_index":135,"time_elapsed":2387826,"internal_node_id":"0.0-135.0"},{"special_comment":"no","trial_type":"special_sequence","trial_index":136,"time_elapsed":2392506,"internal_node_id":"0.0-136.0"},{"during":"Nothing","bonus":308,"trial_type":"final","trial_index":137,"time_elapsed":2416776,"internal_node_id":"0.0-137.0"}],"bonus":308}