{"start_time":"2017-02-24 15:05:17","end_time":"2017-02-24 15:36:05","points_phase0":114,"points_phase1":110,"phase_order":0,"age":32,"gender":"m","tries":1,"during":"Nothing","worker_id":"A2YKW761AK4ZGY","assignment_id":"3FFJ6VRIL2H4FDRO6Q2X4TGO34S0I5","data":[{"rt":25805,"url":"\/tickets\/utils\/consent.html","trial_type":"html","trial_index":0,"time_elapsed":26675,"internal_node_id":"0.0-0.0"},{"age":32,"gender":"m","trial_type":"age","trial_index":1,"time_elapsed":34456,"internal_node_id":"0.0-1.0"},{"worker_id":"A2YKW761AK4ZGY","trial_type":"workerid","trial_index":2,"time_elapsed":55568,"internal_node_id":"0.0-2.0"},{"tries":1,"trial_type":"instructions_check","trial_index":3,"time_elapsed":88914,"internal_node_id":"0.0-3.0"},{"rt":10419,"url":"\/tickets\/utils\/start.html","trial_type":"html","trial_index":4,"time_elapsed":101129,"internal_node_id":"0.0-4.0"},{"trial_type":"number-animation","trial_index":5,"time_elapsed":121316,"internal_node_id":"0.0-5.0"},{"phase":0,"sequence":0,"avg":180,"response":174,"trial_type":"training_avg","trial_index":6,"time_elapsed":168803,"internal_node_id":"0.0-6.0"},{"trial_type":"number-animation","trial_index":7,"time_elapsed":184884,"internal_node_id":"0.0-7.0"},{"phase":0,"sequence":1,"avg":178,"response":178,"trial_type":"training_avg","trial_index":8,"time_elapsed":195232,"internal_node_id":"0.0-8.0"},{"trial_type":"number-animation","trial_index":9,"time_elapsed":215500,"internal_node_id":"0.0-9.0"},{"phase":0,"sequence":2,"avg":176,"response":175,"trial_type":"training_avg","trial_index":10,"time_elapsed":222408,"internal_node_id":"0.0-10.0"},{"trial_type":"number-animation","trial_index":11,"time_elapsed":239070,"internal_node_id":"0.0-11.0"},{"phase":0,"sequence":3,"avg":178,"response":179,"trial_type":"training_avg","trial_index":12,"time_elapsed":250009,"internal_node_id":"0.0-12.0"},{"trial_type":"number-animation","trial_index":13,"time_elapsed":265525,"internal_node_id":"0.0-13.0"},{"phase":0,"sequence":4,"avg":179,"response":180,"trial_type":"training_avg","trial_index":14,"time_elapsed":274789,"internal_node_id":"0.0-14.0"},{"responses":[{"value":0,"offby":0,"category":"$140 - $250","category_index":0},{"value":2,"offby":2,"category":"$151 - $160","category_index":1},{"value":5,"offby":1,"category":"$161 - $170","category_index":2},{"value":7,"offby":1,"category":"$171 - $180","category_index":3},{"value":5,"offby":-2,"category":"$181 - $190","category_index":4},{"value":1,"offby":-2,"category":"$191 - $200","category_index":5},{"value":0,"offby":0,"category":"$201 - $210","category_index":6}],"phase":0,"number":0,"trial_type":"bar-choose","trial_index":15,"time_elapsed":449878,"internal_node_id":"0.0-15.0"},{"rt":14611,"url":"\/tickets\/\/utils\/testing.html","trial_type":"html","trial_index":16,"time_elapsed":466189,"internal_node_id":"0.0-16.0"},{"phase":0,"order":[45,9,2,17,41,33,39,35,42,24,10,0,12,15,6,47,37,29,1,21,38,28,19,40,4,13,48,20,7,26,32,5,46,44,11,25,16,18,3,14,22,43,27,8,31,23,30,34,49,36],"trial_type":"store_order","trial_index":17,"time_elapsed":467193,"internal_node_id":"0.0-17.0"},{"result":165,"points":2,"place":1,"phase":0,"sequence":-1,"prices":[184,180,224,165,181,199,185,193,218,126],"times":[2788,1333,1078,1590],"next_num":4,"trial_type":"ticket-choose","trial_index":18,"time_elapsed":478564,"internal_node_id":"0.0-18.0"},{"rt":17884,"url":"\/tickets\/utils\/testing_after.html","trial_type":"html","trial_index":19,"time_elapsed":498130,"internal_node_id":"0.0-19.0"},{"result":162,"points":3,"place":0,"phase":0,"sequence":0,"prices":[179,174,172,162,202,184,165,197,185,169],"times":[2706,1241,3986,6404],"next_num":4,"trial_type":"ticket-choose","trial_index":20,"time_elapsed":531360,"internal_node_id":"0.0-20.0"},{"result":165,"points":3,"place":0,"phase":0,"sequence":1,"prices":[176,180,170,194,179,183,178,173,165,184],"times":[4881,667,621,743,655,729,932,971,1465],"next_num":9,"trial_type":"ticket-choose","trial_index":21,"time_elapsed":547795,"internal_node_id":"0.0-21.0"},{"result":169,"points":2,"place":1,"phase":0,"sequence":2,"prices":[174,179,169,194,178,183,177,173,165,184],"times":[8091,765,4791],"next_num":3,"trial_type":"ticket-choose","trial_index":22,"time_elapsed":564454,"internal_node_id":"0.0-22.0"},{"result":163,"points":3,"place":0,"phase":0,"sequence":3,"prices":[174,178,168,192,177,181,176,171,163,182],"times":[1491,591,1176,594,502,436,596,1055,1325],"next_num":9,"trial_type":"ticket-choose","trial_index":23,"time_elapsed":576582,"internal_node_id":"0.0-23.0"},{"result":165,"points":3,"place":0,"phase":0,"sequence":4,"prices":[180,165,177,193,186,196,187,169,171,182],"times":[1212,1480],"next_num":2,"trial_type":"ticket-choose","trial_index":24,"time_elapsed":581794,"internal_node_id":"0.0-24.0"},{"result":179,"points":1,"place":4,"phase":0,"sequence":5,"prices":[170,183,172,175,180,189,174,187,188,179],"times":[1107,709,783,703,695,673,877,794,751,1923],"next_num":10,"trial_type":"ticket-choose","trial_index":25,"time_elapsed":595588,"internal_node_id":"0.0-25.0"},{"result":171,"points":1,"place":2,"phase":0,"sequence":6,"prices":[195,177,197,179,171,173,175,156,163,204],"times":[1735,926,663,685,2537],"next_num":5,"trial_type":"ticket-choose","trial_index":26,"time_elapsed":605802,"internal_node_id":"0.0-26.0"},{"result":154,"points":3,"place":0,"phase":0,"sequence":7,"prices":[188,179,154,183,173,170,177,160,169,175],"times":[1355,621,1564],"next_num":3,"trial_type":"ticket-choose","trial_index":27,"time_elapsed":611976,"internal_node_id":"0.0-27.0"},{"result":160,"points":3,"place":0,"phase":0,"sequence":8,"prices":[175,193,175,160,180,170,175,205,177,167],"times":[5711,892,824,1381],"next_num":4,"trial_type":"ticket-choose","trial_index":28,"time_elapsed":623784,"internal_node_id":"0.0-28.0"},{"result":161,"points":3,"place":0,"phase":0,"sequence":9,"prices":[161,180,170,174,178,198,173,182,188,176],"times":[2000],"next_num":1,"trial_type":"ticket-choose","trial_index":29,"time_elapsed":628485,"internal_node_id":"0.0-29.0"},{"result":174,"points":1,"place":2,"phase":0,"sequence":10,"prices":[175,180,170,195,179,184,178,174,166,185],"times":[1354,731,1264,738,950,752,856,1829],"next_num":8,"trial_type":"ticket-choose","trial_index":30,"time_elapsed":640888,"internal_node_id":"0.0-30.0"},{"result":164,"points":3,"place":0,"phase":0,"sequence":11,"prices":[175,179,169,193,178,182,177,172,164,183],"times":[1249,730,2563,749,675,700,731,1251,1310],"next_num":9,"trial_type":"ticket-choose","trial_index":31,"time_elapsed":655026,"internal_node_id":"0.0-31.0"},{"result":170,"points":2,"place":1,"phase":0,"sequence":12,"prices":[176,180,178,194,179,183,170,173,165,184],"times":[3891,722,1212,700,656,721,1916],"next_num":7,"trial_type":"ticket-choose","trial_index":32,"time_elapsed":668611,"internal_node_id":"0.0-32.0"},{"result":166,"points":3,"place":0,"phase":0,"sequence":13,"prices":[175,180,178,195,179,184,170,174,166,185],"times":[1101,1091,800,831,717,788,772,885,1159],"next_num":9,"trial_type":"ticket-choose","trial_index":33,"time_elapsed":680632,"internal_node_id":"0.0-33.0"},{"result":169,"points":2,"place":1,"phase":0,"sequence":14,"prices":[174,179,177,194,178,183,169,173,165,184],"times":[961,1858,653,13544,649,785,1527],"next_num":7,"trial_type":"ticket-choose","trial_index":34,"time_elapsed":704480,"internal_node_id":"0.0-34.0"},{"result":181,"points":0,"place":5,"phase":0,"sequence":15,"prices":[180,175,173,177,191,190,184,196,174,181],"times":[7324,3805,1312,690,927,703,694,826,3119,806],"next_num":10,"trial_type":"ticket-choose","trial_index":35,"time_elapsed":729083,"internal_node_id":"0.0-35.0"},{"result":168,"points":2,"place":1,"phase":0,"sequence":16,"prices":[181,175,182,168,183,173,153,170,193,179],"times":[1606,738,660,2183],"next_num":4,"trial_type":"ticket-choose","trial_index":36,"time_elapsed":737212,"internal_node_id":"0.0-36.0"},{"result":174,"points":1,"place":4,"phase":0,"sequence":17,"prices":[166,190,170,173,178,203,172,192,198,174],"times":[2101,665,2349,857,722,984,1033,673,662,979],"next_num":10,"trial_type":"ticket-choose","trial_index":37,"time_elapsed":752666,"internal_node_id":"0.0-37.0"},{"result":164,"points":3,"place":0,"phase":0,"sequence":18,"prices":[175,179,169,193,178,182,177,172,164,183],"times":[1450,948,948,689,596,626,615,655,1208],"next_num":9,"trial_type":"ticket-choose","trial_index":38,"time_elapsed":764459,"internal_node_id":"0.0-38.0"},{"result":168,"points":2,"place":1,"phase":0,"sequence":19,"prices":[174,178,176,192,177,181,168,171,163,182],"times":[1222,677,440,619,653,624,1356],"next_num":7,"trial_type":"ticket-choose","trial_index":39,"time_elapsed":773606,"internal_node_id":"0.0-39.0"},{"result":177,"points":1,"place":2,"phase":0,"sequence":20,"prices":[181,179,199,188,170,172,178,187,191,177],"times":[780,407,575,615,807,845,749,750,731,773],"next_num":10,"trial_type":"ticket-choose","trial_index":40,"time_elapsed":784783,"internal_node_id":"0.0-40.0"},{"result":159,"points":3,"place":0,"phase":0,"sequence":21,"prices":[159,178,170,174,176,194,173,182,185,175],"times":[1552],"next_num":1,"trial_type":"ticket-choose","trial_index":41,"time_elapsed":788382,"internal_node_id":"0.0-41.0"},{"result":168,"points":2,"place":1,"phase":0,"sequence":22,"prices":[173,178,168,193,177,182,176,172,164,183],"times":[1684,1518,1289],"next_num":3,"trial_type":"ticket-choose","trial_index":42,"time_elapsed":795445,"internal_node_id":"0.0-42.0"},{"result":167,"points":3,"place":0,"phase":0,"sequence":23,"prices":[179,174,199,178,196,167,170,184,177,190],"times":[3765,1690,759,688,868,1593],"next_num":6,"trial_type":"ticket-choose","trial_index":43,"time_elapsed":808101,"internal_node_id":"0.0-43.0"},{"result":169,"points":2,"place":1,"phase":0,"sequence":24,"prices":[175,179,177,193,178,182,169,172,164,183],"times":[1100,754,983,712,695,683,1264],"next_num":7,"trial_type":"ticket-choose","trial_index":44,"time_elapsed":817912,"internal_node_id":"0.0-44.0"},{"result":170,"points":2,"place":1,"phase":0,"sequence":25,"prices":[176,180,178,194,179,183,170,173,165,184],"times":[1050,590,668,741,614,692,1335],"next_num":7,"trial_type":"ticket-choose","trial_index":45,"time_elapsed":827045,"internal_node_id":"0.0-45.0"},{"result":171,"points":3,"place":0,"phase":0,"sequence":26,"prices":[193,173,175,182,179,198,181,171,176,187],"times":[1097,948,895,685,716,662,658,1416],"next_num":8,"trial_type":"ticket-choose","trial_index":46,"time_elapsed":837835,"internal_node_id":"0.0-46.0"},{"result":168,"points":2,"place":1,"phase":0,"sequence":27,"prices":[174,178,176,192,177,181,168,171,163,182],"times":[2821,765,918,696,647,689,1341],"next_num":7,"trial_type":"ticket-choose","trial_index":47,"time_elapsed":849236,"internal_node_id":"0.0-47.0"},{"result":169,"points":2,"place":1,"phase":0,"sequence":28,"prices":[174,179,177,194,178,183,169,173,165,184],"times":[3677,1084,872,830,784,794,1468],"next_num":7,"trial_type":"ticket-choose","trial_index":48,"time_elapsed":862208,"internal_node_id":"0.0-48.0"},{"result":165,"points":3,"place":0,"phase":0,"sequence":29,"prices":[165,187,173,177,186,196,176,191,192,181],"times":[1278],"next_num":1,"trial_type":"ticket-choose","trial_index":49,"time_elapsed":865565,"internal_node_id":"0.0-49.0"},{"result":173,"points":1,"place":2,"phase":0,"sequence":30,"prices":[171,180,172,174,179,188,173,183,186,175],"times":[1470,656,716,598,768,761,1254],"next_num":7,"trial_type":"ticket-choose","trial_index":50,"time_elapsed":875373,"internal_node_id":"0.0-50.0"},{"result":169,"points":2,"place":1,"phase":0,"sequence":31,"prices":[175,179,177,193,178,182,169,172,164,183],"times":[2458,794,592,534,738,1027,1482],"next_num":7,"trial_type":"ticket-choose","trial_index":51,"time_elapsed":886499,"internal_node_id":"0.0-51.0"},{"result":166,"points":3,"place":0,"phase":0,"sequence":32,"prices":[179,186,197,201,166,187,188,193,190,177],"times":[1542,746,527,389,1461],"next_num":5,"trial_type":"ticket-choose","trial_index":52,"time_elapsed":894726,"internal_node_id":"0.0-52.0"},{"result":150,"points":3,"place":0,"phase":0,"sequence":33,"prices":[175,150,164,155,171,199,158,180,184,196],"times":[1120,2166],"next_num":2,"trial_type":"ticket-choose","trial_index":53,"time_elapsed":900538,"internal_node_id":"0.0-53.0"},{"result":166,"points":3,"place":0,"phase":0,"sequence":34,"prices":[175,180,170,195,179,184,178,174,166,185],"times":[1246,762,2330,750,623,687,656,951,1208],"next_num":9,"trial_type":"ticket-choose","trial_index":54,"time_elapsed":913673,"internal_node_id":"0.0-54.0"},{"result":163,"points":3,"place":0,"phase":0,"sequence":35,"prices":[163,185,165,174,181,198,173,186,187,180],"times":[1276],"next_num":1,"trial_type":"ticket-choose","trial_index":55,"time_elapsed":917930,"internal_node_id":"0.0-55.0"},{"result":168,"points":2,"place":1,"phase":0,"sequence":36,"prices":[174,178,168,192,177,181,176,171,163,182],"times":[1508,801,1741],"next_num":3,"trial_type":"ticket-choose","trial_index":56,"time_elapsed":924489,"internal_node_id":"0.0-56.0"},{"result":168,"points":2,"place":1,"phase":0,"sequence":37,"prices":[173,178,168,193,177,182,176,172,164,183],"times":[1000,677,2305],"next_num":3,"trial_type":"ticket-choose","trial_index":57,"time_elapsed":931010,"internal_node_id":"0.0-57.0"},{"result":165,"points":3,"place":0,"phase":0,"sequence":38,"prices":[174,179,169,194,178,183,177,173,165,184],"times":[1041,443,373,704,566,713,601,620,1298],"next_num":9,"trial_type":"ticket-choose","trial_index":58,"time_elapsed":941222,"internal_node_id":"0.0-58.0"},{"result":166,"points":3,"place":0,"phase":0,"sequence":39,"prices":[175,180,178,195,179,184,170,174,166,185],"times":[1411,600,665,613,656,844,1258,1172,1316],"next_num":9,"trial_type":"ticket-choose","trial_index":59,"time_elapsed":953651,"internal_node_id":"0.0-59.0"},{"result":168,"points":2,"place":1,"phase":0,"sequence":40,"prices":[173,178,176,193,177,182,168,172,164,183],"times":[1309,618,577,677,700,771,1641],"next_num":7,"trial_type":"ticket-choose","trial_index":60,"time_elapsed":963333,"internal_node_id":"0.0-60.0"},{"result":157,"points":2,"place":1,"phase":0,"sequence":41,"prices":[188,191,179,157,181,164,166,156,175,182],"times":[1219,714,938,1252],"next_num":4,"trial_type":"ticket-choose","trial_index":61,"time_elapsed":970238,"internal_node_id":"0.0-61.0"},{"result":183,"points":1,"place":4,"phase":0,"sequence":42,"prices":[168,188,171,181,184,196,180,194,195,183],"times":[1434,640,598,612,585,739,769,690,733,1026],"next_num":10,"trial_type":"ticket-choose","trial_index":62,"time_elapsed":982268,"internal_node_id":"0.0-62.0"},{"result":165,"points":3,"place":0,"phase":0,"sequence":43,"prices":[176,180,170,194,179,183,178,173,165,184],"times":[1173,779,1186,668,619,639,720,2190,1169],"next_num":9,"trial_type":"ticket-choose","trial_index":63,"time_elapsed":995259,"internal_node_id":"0.0-63.0"},{"result":157,"points":3,"place":0,"phase":0,"sequence":44,"prices":[157,184,163,174,181,190,168,187,189,177],"times":[3559],"next_num":1,"trial_type":"ticket-choose","trial_index":64,"time_elapsed":1000946,"internal_node_id":"0.0-64.0"},{"result":168,"points":2,"place":1,"phase":0,"sequence":45,"prices":[173,178,176,193,177,182,168,172,164,183],"times":[7640,634,555,660,619,738,1476],"next_num":7,"trial_type":"ticket-choose","trial_index":65,"time_elapsed":1016732,"internal_node_id":"0.0-65.0"},{"result":160,"points":3,"place":0,"phase":0,"sequence":46,"prices":[160,185,170,174,182,196,173,186,194,177],"times":[1506],"next_num":1,"trial_type":"ticket-choose","trial_index":66,"time_elapsed":1020566,"internal_node_id":"0.0-66.0"},{"result":165,"points":2,"place":1,"phase":0,"sequence":47,"prices":[181,180,191,186,165,197,159,167,194,185],"times":[1641,761,1008,1585,1389],"next_num":5,"trial_type":"ticket-choose","trial_index":67,"time_elapsed":1029951,"internal_node_id":"0.0-67.0"},{"result":165,"points":3,"place":0,"phase":0,"sequence":48,"prices":[175,189,193,170,179,165,180,186,177,184],"times":[1234,494,418,358,586,1209],"next_num":6,"trial_type":"ticket-choose","trial_index":68,"time_elapsed":1037361,"internal_node_id":"0.0-68.0"},{"result":169,"points":1,"place":2,"phase":0,"sequence":49,"prices":[189,185,169,168,167,171,180,173,174,188],"times":[1516,761,3444],"next_num":3,"trial_type":"ticket-choose","trial_index":69,"time_elapsed":1046886,"internal_node_id":"0.0-69.0"},{"responses":[{"value":0,"offby":0,"category":"$140 - $250","category_index":0},{"value":1,"offby":1,"category":"$151 - $160","category_index":1},{"value":3,"offby":-1,"category":"$161 - $170","category_index":2},{"value":7,"offby":1,"category":"$171 - $180","category_index":3},{"value":7,"offby":0,"category":"$181 - $190","category_index":4},{"value":2,"offby":-1,"category":"$191 - $200","category_index":5},{"value":0,"offby":0,"category":"$201 - $210","category_index":6}],"phase":0,"number":1,"trial_type":"bar-choose","trial_index":70,"time_elapsed":1093280,"internal_node_id":"0.0-70.0"},{"rt":10569,"url":"\/tickets\/utils\/start2.html","trial_type":"html","trial_index":71,"time_elapsed":1105639,"internal_node_id":"0.0-71.0"},{"trial_type":"number-animation","trial_index":72,"time_elapsed":1120824,"internal_node_id":"0.0-72.0"},{"phase":1,"sequence":0,"avg":166,"response":175,"trial_type":"training_avg","trial_index":73,"time_elapsed":1130751,"internal_node_id":"0.0-73.0"},{"trial_type":"number-animation","trial_index":74,"time_elapsed":1145625,"internal_node_id":"0.0-74.0"},{"phase":1,"sequence":1,"avg":198,"response":182,"trial_type":"training_avg","trial_index":75,"time_elapsed":1161808,"internal_node_id":"0.0-75.0"},{"trial_type":"number-animation","trial_index":76,"time_elapsed":1179493,"internal_node_id":"0.0-76.0"},{"phase":1,"sequence":2,"avg":177,"response":197,"trial_type":"training_avg","trial_index":77,"time_elapsed":1189010,"internal_node_id":"0.0-77.0"},{"trial_type":"number-animation","trial_index":78,"time_elapsed":1203007,"internal_node_id":"0.0-78.0"},{"phase":1,"sequence":3,"avg":190,"response":151,"trial_type":"training_avg","trial_index":79,"time_elapsed":1212822,"internal_node_id":"0.0-79.0"},{"trial_type":"number-animation","trial_index":80,"time_elapsed":1224905,"internal_node_id":"0.0-80.0"},{"phase":1,"sequence":4,"avg":201,"response":201,"trial_type":"training_avg","trial_index":81,"time_elapsed":1234220,"internal_node_id":"0.0-81.0"},{"responses":[{"value":1,"offby":0,"category":"$30 - $75","category_index":0},{"value":3,"offby":1,"category":"$76 - $120","category_index":1},{"value":4,"offby":0,"category":"$121 - $165","category_index":2},{"value":5,"offby":-1,"category":"$166 - $210","category_index":3},{"value":7,"offby":1,"category":"$211 - $255","category_index":4},{"value":0,"offby":-1,"category":"$256 - $300","category_index":5},{"value":0,"offby":0,"category":"$301 - $345","category_index":6}],"phase":1,"number":0,"trial_type":"bar-choose","trial_index":82,"time_elapsed":1277780,"internal_node_id":"0.0-82.0"},{"rt":22038,"url":"\/tickets\/utils\/testing2.html","trial_type":"html","trial_index":83,"time_elapsed":1301628,"internal_node_id":"0.0-83.0"},{"phase":1,"order":[42,46,22,25,2,24,26,1,7,14,15,13,38,34,39,32,35,44,18,48,16,31,4,30,5,47,36,41,10,20,45,43,21,27,19,8,40,17,12,0,3,6,29,11,9,49,33,28,37,23],"trial_type":"store_order","trial_index":84,"time_elapsed":1302632,"internal_node_id":"0.0-84.0"},{"result":155,"points":1,"place":3,"phase":1,"sequence":0,"prices":[155,245,155,81,180,130,156,306,166,115],"times":[1806],"next_num":1,"trial_type":"ticket-choose","trial_index":85,"time_elapsed":1307316,"internal_node_id":"0.0-85.0"},{"result":165,"points":2,"place":1,"phase":1,"sequence":1,"prices":[175,211,266,286,111,216,220,245,230,165],"times":[2401,783,604,411,398,757,590,828,649,858],"next_num":10,"trial_type":"ticket-choose","trial_index":86,"time_elapsed":1319635,"internal_node_id":"0.0-86.0"},{"result":145,"points":1,"place":3,"phase":1,"sequence":2,"prices":[145,171,161,245,165,191,120,140,100,196],"times":[1417],"next_num":1,"trial_type":"ticket-choose","trial_index":87,"time_elapsed":1323453,"internal_node_id":"0.0-87.0"},{"result":95,"points":3,"place":0,"phase":1,"sequence":3,"prices":[95,205,106,151,186,271,145,210,215,181],"times":[1187],"next_num":1,"trial_type":"ticket-choose","trial_index":88,"time_elapsed":1327263,"internal_node_id":"0.0-88.0"},{"result":151,"points":1,"place":3,"phase":1,"sequence":4,"prices":[151,176,126,251,170,196,165,145,105,201],"times":[1314],"next_num":1,"trial_type":"ticket-choose","trial_index":89,"time_elapsed":1330796,"internal_node_id":"0.0-89.0"},{"result":86,"points":3,"place":0,"phase":1,"sequence":5,"prices":[86,180,130,151,170,271,145,191,220,160],"times":[1186],"next_num":1,"trial_type":"ticket-choose","trial_index":90,"time_elapsed":1334141,"internal_node_id":"0.0-90.0"},{"result":185,"points":1,"place":4,"phase":1,"sequence":6,"prices":[105,216,146,165,210,260,161,235,241,185],"times":[1958,611,583,571,639,571,609,642,632,923],"next_num":10,"trial_type":"ticket-choose","trial_index":91,"time_elapsed":1345812,"internal_node_id":"0.0-91.0"},{"result":140,"points":1,"place":2,"phase":1,"sequence":7,"prices":[156,175,125,245,170,190,165,140,101,196],"times":[1525,583,732,652,648,670,960,1748],"next_num":8,"trial_type":"ticket-choose","trial_index":92,"time_elapsed":1357066,"internal_node_id":"0.0-92.0"},{"result":126,"points":2,"place":1,"phase":1,"sequence":8,"prices":[151,175,166,251,170,195,126,146,105,201],"times":[1932,626,660,693,631,632,1917],"next_num":7,"trial_type":"ticket-choose","trial_index":93,"time_elapsed":1367640,"internal_node_id":"0.0-93.0"},{"result":130,"points":2,"place":1,"phase":1,"sequence":9,"prices":[155,181,170,255,176,200,130,150,110,205],"times":[1355,561,514,373,544,647,1556],"next_num":7,"trial_type":"ticket-choose","trial_index":94,"time_elapsed":1376660,"internal_node_id":"0.0-94.0"},{"result":131,"points":2,"place":1,"phase":1,"sequence":10,"prices":[156,181,171,256,175,200,131,150,110,206],"times":[1248,387,266,593,526,611,1140],"next_num":7,"trial_type":"ticket-choose","trial_index":95,"time_elapsed":1386336,"internal_node_id":"0.0-95.0"},{"result":146,"points":1,"place":2,"phase":1,"sequence":11,"prices":[160,180,170,251,176,195,131,146,105,200],"times":[1262,461,373,380,449,507,328,1722],"next_num":8,"trial_type":"ticket-choose","trial_index":96,"time_elapsed":1395533,"internal_node_id":"0.0-96.0"},{"result":165,"points":1,"place":2,"phase":1,"sequence":12,"prices":[185,175,276,221,130,141,171,216,235,165],"times":[896,311,329,442,1514,569,627,602,726,809],"next_num":10,"trial_type":"ticket-choose","trial_index":97,"time_elapsed":1406327,"internal_node_id":"0.0-97.0"},{"result":106,"points":2,"place":1,"phase":1,"sequence":13,"prices":[185,180,235,210,106,266,76,115,250,205],"times":[1432,719,1261,698,1356],"next_num":5,"trial_type":"ticket-choose","trial_index":98,"time_elapsed":1415058,"internal_node_id":"0.0-98.0"},{"result":136,"points":1,"place":2,"phase":1,"sequence":14,"prices":[255,166,266,175,136,145,155,61,96,301],"times":[913,1471,654,669,1689],"next_num":5,"trial_type":"ticket-choose","trial_index":99,"time_elapsed":1423717,"internal_node_id":"0.0-99.0"},{"result":155,"points":1,"place":4,"phase":1,"sequence":15,"prices":[135,180,141,151,175,220,145,196,211,155],"times":[1202,650,546,442,567,627,630,635,701,1056],"next_num":10,"trial_type":"ticket-choose","trial_index":100,"time_elapsed":1435871,"internal_node_id":"0.0-100.0"},{"result":51,"points":3,"place":0,"phase":1,"sequence":16,"prices":[221,175,51,196,146,130,166,80,126,156],"times":[1368,634,1232],"next_num":3,"trial_type":"ticket-choose","trial_index":101,"time_elapsed":1441490,"internal_node_id":"0.0-101.0"},{"result":30,"points":3,"place":0,"phase":1,"sequence":17,"prices":[155,30,101,55,136,276,70,181,200,261],"times":[987,1241],"next_num":2,"trial_type":"ticket-choose","trial_index":102,"time_elapsed":1445899,"internal_node_id":"0.0-102.0"},{"result":100,"points":3,"place":0,"phase":1,"sequence":18,"prices":[146,171,120,245,165,191,160,140,100,196],"times":[1089,654,717,774,951,648,743,2043,1031],"next_num":9,"trial_type":"ticket-choose","trial_index":103,"time_elapsed":1458377,"internal_node_id":"0.0-103.0"},{"result":136,"points":3,"place":0,"phase":1,"sequence":19,"prices":[246,145,155,191,176,270,185,136,160,215],"times":[1089,809,551,715,621,674,640,1247],"next_num":8,"trial_type":"ticket-choose","trial_index":104,"time_elapsed":1468200,"internal_node_id":"0.0-104.0"},{"result":121,"points":2,"place":1,"phase":1,"sequence":20,"prices":[150,171,121,241,165,185,160,136,95,191],"times":[1375,653,1360],"next_num":3,"trial_type":"ticket-choose","trial_index":105,"time_elapsed":1474045,"internal_node_id":"0.0-105.0"},{"result":96,"points":2,"place":1,"phase":1,"sequence":21,"prices":[66,201,96,150,185,230,121,216,225,165],"times":[596,1935,1309],"next_num":3,"trial_type":"ticket-choose","trial_index":106,"time_elapsed":1480334,"internal_node_id":"0.0-106.0"},{"result":101,"points":3,"place":0,"phase":1,"sequence":22,"prices":[155,175,166,245,171,190,125,140,101,196],"times":[1323,668,582,581,588,611,604,1594,1147],"next_num":9,"trial_type":"ticket-choose","trial_index":107,"time_elapsed":1491891,"internal_node_id":"0.0-107.0"},{"result":81,"points":3,"place":0,"phase":1,"sequence":23,"prices":[81,205,130,151,191,261,145,210,250,165],"times":[1083],"next_num":1,"trial_type":"ticket-choose","trial_index":108,"time_elapsed":1495045,"internal_node_id":"0.0-108.0"},{"result":101,"points":3,"place":0,"phase":1,"sequence":24,"prices":[156,176,165,246,171,190,126,141,101,196],"times":[3818,1078,510,420,612,626,912,719,1239],"next_num":9,"trial_type":"ticket-choose","trial_index":109,"time_elapsed":1508653,"internal_node_id":"0.0-109.0"},{"result":185,"points":0,"place":5,"phase":1,"sequence":25,"prices":[181,156,145,165,236,231,201,260,150,185],"times":[886,773,887,636,705,659,747,669,1022,898],"next_num":10,"trial_type":"ticket-choose","trial_index":110,"time_elapsed":1520768,"internal_node_id":"0.0-110.0"},{"result":120,"points":2,"place":1,"phase":1,"sequence":26,"prices":[226,205,125,120,115,135,180,145,150,220],"times":[859,682,626,1274],"next_num":4,"trial_type":"ticket-choose","trial_index":111,"time_elapsed":1527410,"internal_node_id":"0.0-111.0"},{"result":106,"points":3,"place":0,"phase":1,"sequence":27,"prices":[180,106,166,245,211,261,215,125,135,190],"times":[976,2019],"next_num":2,"trial_type":"ticket-choose","trial_index":112,"time_elapsed":1532662,"internal_node_id":"0.0-112.0"},{"result":111,"points":3,"place":0,"phase":1,"sequence":28,"prices":[156,181,131,256,176,200,171,151,111,206],"times":[1073,697,1302,584,506,743,597,836,1304],"next_num":9,"trial_type":"ticket-choose","trial_index":113,"time_elapsed":1543965,"internal_node_id":"0.0-113.0"},{"result":121,"points":2,"place":1,"phase":1,"sequence":29,"prices":[150,170,160,240,166,185,121,136,95,191],"times":[1381,617,714,679,770,618,1415],"next_num":7,"trial_type":"ticket-choose","trial_index":114,"time_elapsed":1553474,"internal_node_id":"0.0-114.0"},{"result":91,"points":3,"place":0,"phase":1,"sequence":30,"prices":[176,150,141,91,290,201,106,266,206,126],"times":[979,808,1233,1177],"next_num":4,"trial_type":"ticket-choose","trial_index":115,"time_elapsed":1560386,"internal_node_id":"0.0-115.0"},{"result":65,"points":2,"place":1,"phase":1,"sequence":31,"prices":[220,236,176,65,185,101,110,61,156,191],"times":[1204,533,682,1281],"next_num":4,"trial_type":"ticket-choose","trial_index":116,"time_elapsed":1566925,"internal_node_id":"0.0-116.0"},{"result":120,"points":2,"place":1,"phase":1,"sequence":32,"prices":[150,170,160,241,166,186,120,136,96,191],"times":[945,608,735,711,624,701,1709],"next_num":7,"trial_type":"ticket-choose","trial_index":117,"time_elapsed":1576145,"internal_node_id":"0.0-117.0"},{"result":196,"points":1,"place":4,"phase":1,"sequence":33,"prices":[120,221,135,185,200,261,181,251,255,196],"times":[1433,589,671,637,721,588,719,645,607,899],"next_num":10,"trial_type":"ticket-choose","trial_index":118,"time_elapsed":1587766,"internal_node_id":"0.0-118.0"},{"result":100,"points":3,"place":0,"phase":1,"sequence":34,"prices":[146,170,121,245,166,190,161,141,100,195],"times":[1154,614,2015,568,819,588,614,655,1323],"next_num":9,"trial_type":"ticket-choose","trial_index":119,"time_elapsed":1599771,"internal_node_id":"0.0-119.0"},{"result":105,"points":3,"place":0,"phase":1,"sequence":35,"prices":[161,180,131,251,175,196,171,146,105,201],"times":[1253,620,1697,529,524,525,573,620,1218],"next_num":9,"trial_type":"ticket-choose","trial_index":120,"time_elapsed":1610990,"internal_node_id":"0.0-120.0"},{"result":116,"points":3,"place":0,"phase":1,"sequence":36,"prices":[176,150,276,171,261,116,130,201,166,231],"times":[577,667,649,674,659,1375],"next_num":6,"trial_type":"ticket-choose","trial_index":121,"time_elapsed":1618629,"internal_node_id":"0.0-121.0"},{"result":96,"points":3,"place":0,"phase":1,"sequence":37,"prices":[150,171,120,241,165,185,160,135,96,190],"times":[911,579,322,737,614,597,661,597,1180],"next_num":9,"trial_type":"ticket-choose","trial_index":122,"time_elapsed":1628749,"internal_node_id":"0.0-122.0"},{"result":131,"points":2,"place":1,"phase":1,"sequence":38,"prices":[161,180,171,250,176,195,131,146,105,201],"times":[1511,770,931,603,691,720,2533],"next_num":7,"trial_type":"ticket-choose","trial_index":123,"time_elapsed":1639844,"internal_node_id":"0.0-123.0"},{"result":100,"points":3,"place":0,"phase":1,"sequence":39,"prices":[156,175,126,246,170,190,165,140,100,196],"times":[810,539,375,533,338,605,568,654,1181],"next_num":9,"trial_type":"ticket-choose","trial_index":124,"time_elapsed":1649177,"internal_node_id":"0.0-124.0"},{"result":105,"points":3,"place":0,"phase":1,"sequence":40,"prices":[150,176,126,251,171,195,165,145,105,200],"times":[989,457,735,433,517,586,588,574,1139],"next_num":9,"trial_type":"ticket-choose","trial_index":125,"time_elapsed":1658863,"internal_node_id":"0.0-125.0"},{"result":105,"points":3,"place":0,"phase":1,"sequence":41,"prices":[150,175,166,251,170,196,126,145,105,201],"times":[903,556,563,697,701,706,2246,584,1065],"next_num":9,"trial_type":"ticket-choose","trial_index":126,"time_elapsed":1670621,"internal_node_id":"0.0-126.0"},{"result":150,"points":1,"place":4,"phase":1,"sequence":42,"prices":[111,231,131,146,171,295,141,241,271,150],"times":[1048,704,633,532,829,577,654,605,613,1405],"next_num":10,"trial_type":"ticket-choose","trial_index":127,"time_elapsed":1682273,"internal_node_id":"0.0-127.0"},{"result":111,"points":3,"place":0,"phase":1,"sequence":43,"prices":[156,181,130,255,175,200,170,150,111,205],"times":[1075,361,901,449,549,555,592,599,1305],"next_num":9,"trial_type":"ticket-choose","trial_index":128,"time_elapsed":1692361,"internal_node_id":"0.0-128.0"},{"result":105,"points":3,"place":0,"phase":1,"sequence":44,"prices":[160,180,130,251,176,195,170,146,105,200],"times":[1010,401,599,346,450,536,601,535,1546],"next_num":9,"trial_type":"ticket-choose","trial_index":129,"time_elapsed":1701904,"internal_node_id":"0.0-129.0"},{"result":106,"points":3,"place":0,"phase":1,"sequence":45,"prices":[155,225,245,130,176,106,180,211,165,200],"times":[1766,506,457,619,416,1830],"next_num":6,"trial_type":"ticket-choose","trial_index":130,"time_elapsed":1710665,"internal_node_id":"0.0-130.0"},{"result":175,"points":1,"place":4,"phase":1,"sequence":46,"prices":[130,195,141,155,181,226,150,216,221,175],"times":[894,503,816,596,645,628,712,694,899,730],"next_num":10,"trial_type":"ticket-choose","trial_index":131,"time_elapsed":1721917,"internal_node_id":"0.0-131.0"},{"result":75,"points":3,"place":0,"phase":1,"sequence":47,"prices":[75,171,131,151,161,250,145,190,206,156],"times":[1256],"next_num":1,"trial_type":"ticket-choose","trial_index":132,"time_elapsed":1725306,"internal_node_id":"0.0-132.0"},{"result":120,"points":2,"place":1,"phase":1,"sequence":48,"prices":[186,156,191,120,195,145,45,130,246,176],"times":[1364,885,662,1507],"next_num":4,"trial_type":"ticket-choose","trial_index":133,"time_elapsed":1732409,"internal_node_id":"0.0-133.0"},{"result":100,"points":3,"place":0,"phase":1,"sequence":49,"prices":[145,170,160,245,165,190,120,141,100,195],"times":[761,788,825,629,647,593,1867,694,1092],"next_num":9,"trial_type":"ticket-choose","trial_index":134,"time_elapsed":1744196,"internal_node_id":"0.0-134.0"},{"responses":[{"value":3,"offby":2,"category":"$30 - $75","category_index":0},{"value":3,"offby":1,"category":"$76 - $120","category_index":1},{"value":6,"offby":2,"category":"$121 - $165","category_index":2},{"value":6,"offby":0,"category":"$166 - $210","category_index":3},{"value":2,"offby":-4,"category":"$211 - $255","category_index":4},{"value":0,"offby":-1,"category":"$256 - $300","category_index":5},{"value":0,"offby":0,"category":"$301 - $345","category_index":6}],"phase":1,"number":1,"trial_type":"bar-choose","trial_index":135,"time_elapsed":1801184,"internal_node_id":"0.0-135.0"},{"special_comment":"no","trial_type":"special_sequence","trial_index":136,"time_elapsed":1809641,"internal_node_id":"0.0-136.0"},{"during":"Nothing","bonus":300,"trial_type":"final","trial_index":137,"time_elapsed":1842478,"internal_node_id":"0.0-137.0"}],"bonus":300}