{"start_time":"2017-02-27 11:33:12","end_time":"2017-02-27 12:00:52","points_phase0":110,"points_phase1":113,"phase_order":0,"age":39,"gender":"f","tries":1,"during":"Other","worker_id":"A2ZRF4I5RTKN7G","assignment_id":"37Z929RLGA1UP0RB94KLS6OG9LAST0","data":[{"rt":23933,"url":"\/tickets\/utils\/consent.html","trial_type":"html","trial_index":0,"time_elapsed":24366,"internal_node_id":"0.0-0.0"},{"age":39,"gender":"f","trial_type":"age","trial_index":1,"time_elapsed":37693,"internal_node_id":"0.0-1.0"},{"worker_id":"A2ZRF4I5RTKN7G","trial_type":"workerid","trial_index":2,"time_elapsed":47602,"internal_node_id":"0.0-2.0"},{"tries":1,"trial_type":"instructions_check","trial_index":3,"time_elapsed":110753,"internal_node_id":"0.0-3.0"},{"rt":6274,"url":"\/tickets\/utils\/start.html","trial_type":"html","trial_index":4,"time_elapsed":118211,"internal_node_id":"0.0-4.0"},{"trial_type":"number-animation","trial_index":5,"time_elapsed":211557,"internal_node_id":"0.0-5.0"},{"phase":0,"sequence":0,"avg":180,"response":180,"trial_type":"training_avg","trial_index":6,"time_elapsed":256699,"internal_node_id":"0.0-6.0"},{"trial_type":"number-animation","trial_index":7,"time_elapsed":337573,"internal_node_id":"0.0-7.0"},{"phase":0,"sequence":1,"avg":178,"response":178,"trial_type":"training_avg","trial_index":8,"time_elapsed":344298,"internal_node_id":"0.0-8.0"},{"trial_type":"number-animation","trial_index":9,"time_elapsed":384386,"internal_node_id":"0.0-9.0"},{"phase":0,"sequence":2,"avg":176,"response":176,"trial_type":"training_avg","trial_index":10,"time_elapsed":389770,"internal_node_id":"0.0-10.0"},{"trial_type":"number-animation","trial_index":11,"time_elapsed":447525,"internal_node_id":"0.0-11.0"},{"phase":0,"sequence":3,"avg":178,"response":178,"trial_type":"training_avg","trial_index":12,"time_elapsed":453160,"internal_node_id":"0.0-12.0"},{"trial_type":"number-animation","trial_index":13,"time_elapsed":493959,"internal_node_id":"0.0-13.0"},{"phase":0,"sequence":4,"avg":179,"response":179,"trial_type":"training_avg","trial_index":14,"time_elapsed":502899,"internal_node_id":"0.0-14.0"},{"responses":[{"value":0,"offby":0,"category":"$140 - $250","category_index":0},{"value":0,"offby":0,"category":"$151 - $160","category_index":1},{"value":5,"offby":1,"category":"$161 - $170","category_index":2},{"value":10,"offby":4,"category":"$171 - $180","category_index":3},{"value":5,"offby":-2,"category":"$181 - $190","category_index":4},{"value":0,"offby":-3,"category":"$191 - $200","category_index":5},{"value":0,"offby":0,"category":"$201 - $210","category_index":6}],"phase":0,"number":0,"trial_type":"bar-choose","trial_index":15,"time_elapsed":585971,"internal_node_id":"0.0-15.0"},{"rt":19087,"url":"\/tickets\/\/utils\/testing.html","trial_type":"html","trial_index":16,"time_elapsed":606253,"internal_node_id":"0.0-16.0"},{"phase":0,"order":[48,42,29,8,26,4,39,46,36,32,45,25,9,24,6,35,3,30,40,31,34,17,0,38,14,20,1,44,47,15,23,37,21,49,43,7,41,28,19,33,18,5,16,12,11,13,22,2,27,10],"trial_type":"store_order","trial_index":17,"time_elapsed":607309,"internal_node_id":"0.0-17.0"},{"result":165,"points":2,"place":1,"phase":0,"sequence":-1,"prices":[184,180,224,165,181,199,185,193,218,126],"times":[3408,1204,768,2448],"next_num":4,"trial_type":"ticket-choose","trial_index":18,"time_elapsed":618556,"internal_node_id":"0.0-18.0"},{"rt":14066,"url":"\/tickets\/utils\/testing_after.html","trial_type":"html","trial_index":19,"time_elapsed":633955,"internal_node_id":"0.0-19.0"},{"result":187,"points":0,"place":7,"phase":0,"sequence":0,"prices":[193,173,175,182,179,198,181,171,176,187],"times":[1068,659,861,654,675,868,678,1384,1109,1432],"next_num":11,"trial_type":"ticket-choose","trial_index":20,"time_elapsed":647864,"internal_node_id":"0.0-20.0"},{"result":160,"points":3,"place":0,"phase":0,"sequence":1,"prices":[175,193,175,160,180,170,175,205,177,167],"times":[964,784,984,2334],"next_num":4,"trial_type":"ticket-choose","trial_index":21,"time_elapsed":656527,"internal_node_id":"0.0-21.0"},{"result":166,"points":3,"place":0,"phase":0,"sequence":2,"prices":[166,190,170,173,178,203,172,192,198,174],"times":[3275],"next_num":1,"trial_type":"ticket-choose","trial_index":22,"time_elapsed":661946,"internal_node_id":"0.0-22.0"},{"result":170,"points":2,"place":1,"phase":0,"sequence":3,"prices":[176,180,170,194,179,183,178,173,165,184],"times":[1420,663,1501],"next_num":3,"trial_type":"ticket-choose","trial_index":23,"time_elapsed":668159,"internal_node_id":"0.0-23.0"},{"result":165,"points":3,"place":0,"phase":0,"sequence":4,"prices":[165,187,173,177,186,196,176,191,192,181],"times":[1875],"next_num":1,"trial_type":"ticket-choose","trial_index":24,"time_elapsed":671939,"internal_node_id":"0.0-24.0"},{"result":169,"points":2,"place":1,"phase":0,"sequence":5,"prices":[175,179,177,193,178,182,169,172,164,183],"times":[1277,510,489,699,481,588,1570],"next_num":7,"trial_type":"ticket-choose","trial_index":25,"time_elapsed":680630,"internal_node_id":"0.0-25.0"},{"result":171,"points":1,"place":2,"phase":0,"sequence":6,"prices":[195,177,197,179,171,173,175,156,163,204],"times":[855,940,544,740,1647],"next_num":5,"trial_type":"ticket-choose","trial_index":26,"time_elapsed":688174,"internal_node_id":"0.0-26.0"},{"result":166,"points":3,"place":0,"phase":0,"sequence":7,"prices":[179,186,197,201,166,187,188,193,190,177],"times":[749,541,806,580,1301],"next_num":5,"trial_type":"ticket-choose","trial_index":27,"time_elapsed":695391,"internal_node_id":"0.0-27.0"},{"result":169,"points":1,"place":2,"phase":0,"sequence":8,"prices":[189,185,169,168,167,171,180,173,174,188],"times":[524,556,1604],"next_num":3,"trial_type":"ticket-choose","trial_index":28,"time_elapsed":700403,"internal_node_id":"0.0-28.0"},{"result":173,"points":1,"place":2,"phase":0,"sequence":9,"prices":[171,180,172,174,179,188,173,183,186,175],"times":[592,617,712,571,452,476,1381],"next_num":7,"trial_type":"ticket-choose","trial_index":29,"time_elapsed":708258,"internal_node_id":"0.0-29.0"},{"result":162,"points":3,"place":0,"phase":0,"sequence":10,"prices":[179,174,172,162,202,184,165,197,185,169],"times":[805,852,491,1234],"next_num":4,"trial_type":"ticket-choose","trial_index":30,"time_elapsed":714150,"internal_node_id":"0.0-30.0"},{"result":163,"points":3,"place":0,"phase":0,"sequence":11,"prices":[163,185,165,174,181,198,173,186,187,180],"times":[1388],"next_num":1,"trial_type":"ticket-choose","trial_index":31,"time_elapsed":717233,"internal_node_id":"0.0-31.0"},{"result":170,"points":2,"place":1,"phase":0,"sequence":12,"prices":[176,180,170,194,179,183,178,173,165,184],"times":[2618,610,706],"next_num":3,"trial_type":"ticket-choose","trial_index":32,"time_elapsed":723326,"internal_node_id":"0.0-32.0"},{"result":161,"points":3,"place":0,"phase":0,"sequence":13,"prices":[161,180,170,174,178,198,173,182,188,176],"times":[1009],"next_num":1,"trial_type":"ticket-choose","trial_index":33,"time_elapsed":725990,"internal_node_id":"0.0-33.0"},{"result":174,"points":1,"place":3,"phase":0,"sequence":14,"prices":[174,179,177,194,178,183,169,173,165,184],"times":[779],"next_num":1,"trial_type":"ticket-choose","trial_index":34,"time_elapsed":728805,"internal_node_id":"0.0-34.0"},{"result":154,"points":3,"place":0,"phase":0,"sequence":15,"prices":[188,179,154,183,173,170,177,160,169,175],"times":[491,643,704],"next_num":3,"trial_type":"ticket-choose","trial_index":35,"time_elapsed":733027,"internal_node_id":"0.0-35.0"},{"result":169,"points":2,"place":1,"phase":0,"sequence":16,"prices":[174,179,169,194,178,183,177,173,165,184],"times":[1035,493,1000],"next_num":3,"trial_type":"ticket-choose","trial_index":36,"time_elapsed":737720,"internal_node_id":"0.0-36.0"},{"result":160,"points":3,"place":0,"phase":0,"sequence":17,"prices":[160,185,170,174,182,196,173,186,194,177],"times":[908],"next_num":1,"trial_type":"ticket-choose","trial_index":37,"time_elapsed":740432,"internal_node_id":"0.0-37.0"},{"result":167,"points":3,"place":0,"phase":0,"sequence":18,"prices":[179,174,199,178,196,167,170,184,177,190],"times":[1720,462,500,519,502,667],"next_num":6,"trial_type":"ticket-choose","trial_index":38,"time_elapsed":747472,"internal_node_id":"0.0-38.0"},{"result":157,"points":3,"place":0,"phase":0,"sequence":19,"prices":[157,184,163,174,181,190,168,187,189,177],"times":[881],"next_num":1,"trial_type":"ticket-choose","trial_index":39,"time_elapsed":750042,"internal_node_id":"0.0-39.0"},{"result":165,"points":2,"place":1,"phase":0,"sequence":20,"prices":[181,180,191,186,165,197,159,167,194,185],"times":[688,918,642,498,786],"next_num":5,"trial_type":"ticket-choose","trial_index":40,"time_elapsed":756416,"internal_node_id":"0.0-40.0"},{"result":168,"points":2,"place":1,"phase":0,"sequence":21,"prices":[174,178,168,192,177,181,176,171,163,182],"times":[753,603,919],"next_num":3,"trial_type":"ticket-choose","trial_index":41,"time_elapsed":761049,"internal_node_id":"0.0-41.0"},{"result":169,"points":2,"place":1,"phase":0,"sequence":22,"prices":[175,179,169,193,178,182,177,172,164,183],"times":[726,509,780],"next_num":3,"trial_type":"ticket-choose","trial_index":42,"time_elapsed":765213,"internal_node_id":"0.0-42.0"},{"result":177,"points":1,"place":2,"phase":0,"sequence":23,"prices":[181,179,199,188,170,172,178,187,191,177],"times":[668,409,582,410,499,1013,488,528,493,613],"next_num":10,"trial_type":"ticket-choose","trial_index":43,"time_elapsed":775115,"internal_node_id":"0.0-43.0"},{"result":170,"points":2,"place":1,"phase":0,"sequence":24,"prices":[175,180,178,195,179,184,170,174,166,185],"times":[1877,497,489,569,636,503,685],"next_num":7,"trial_type":"ticket-choose","trial_index":44,"time_elapsed":783359,"internal_node_id":"0.0-44.0"},{"result":168,"points":2,"place":1,"phase":0,"sequence":25,"prices":[174,178,176,192,177,181,168,171,163,182],"times":[696,465,434,563,955,638,799],"next_num":7,"trial_type":"ticket-choose","trial_index":45,"time_elapsed":790852,"internal_node_id":"0.0-45.0"},{"result":169,"points":2,"place":1,"phase":0,"sequence":26,"prices":[175,179,169,193,178,182,177,172,164,183],"times":[1162,532,730],"next_num":3,"trial_type":"ticket-choose","trial_index":46,"time_elapsed":795415,"internal_node_id":"0.0-46.0"},{"result":150,"points":3,"place":0,"phase":0,"sequence":27,"prices":[175,150,164,155,171,199,158,180,184,196],"times":[1053,743],"next_num":2,"trial_type":"ticket-choose","trial_index":47,"time_elapsed":799339,"internal_node_id":"0.0-47.0"},{"result":174,"points":2,"place":1,"phase":0,"sequence":28,"prices":[180,175,173,177,191,190,184,196,174,181],"times":[4713,690,1045,511,586,653,595,655,1702],"next_num":9,"trial_type":"ticket-choose","trial_index":48,"time_elapsed":814115,"internal_node_id":"0.0-48.0"},{"result":170,"points":2,"place":1,"phase":0,"sequence":29,"prices":[175,180,178,195,179,184,170,174,166,185],"times":[960,1227,648,938,523,648,880],"next_num":7,"trial_type":"ticket-choose","trial_index":49,"time_elapsed":823391,"internal_node_id":"0.0-49.0"},{"result":173,"points":1,"place":3,"phase":0,"sequence":30,"prices":[173,178,176,193,177,182,168,172,164,183],"times":[1040],"next_num":1,"trial_type":"ticket-choose","trial_index":50,"time_elapsed":826187,"internal_node_id":"0.0-50.0"},{"result":168,"points":2,"place":1,"phase":0,"sequence":31,"prices":[181,175,182,168,183,173,153,170,193,179],"times":[762,585,414,869],"next_num":4,"trial_type":"ticket-choose","trial_index":51,"time_elapsed":831277,"internal_node_id":"0.0-51.0"},{"result":168,"points":2,"place":1,"phase":0,"sequence":32,"prices":[174,178,176,192,177,181,168,171,163,182],"times":[539,421,482,495,508,570,779],"next_num":7,"trial_type":"ticket-choose","trial_index":52,"time_elapsed":838164,"internal_node_id":"0.0-52.0"},{"result":165,"points":3,"place":0,"phase":0,"sequence":33,"prices":[175,189,193,170,179,165,180,186,177,184],"times":[739,490,391,481,473,894],"next_num":6,"trial_type":"ticket-choose","trial_index":53,"time_elapsed":844991,"internal_node_id":"0.0-53.0"},{"result":157,"points":2,"place":1,"phase":0,"sequence":34,"prices":[188,191,179,157,181,164,166,156,175,182],"times":[753,428,574,839],"next_num":4,"trial_type":"ticket-choose","trial_index":54,"time_elapsed":850018,"internal_node_id":"0.0-54.0"},{"result":169,"points":2,"place":1,"phase":0,"sequence":35,"prices":[174,179,177,194,178,183,169,173,165,184],"times":[584,515,489,475,464,705,812],"next_num":7,"trial_type":"ticket-choose","trial_index":55,"time_elapsed":857126,"internal_node_id":"0.0-55.0"},{"result":165,"points":3,"place":0,"phase":0,"sequence":36,"prices":[180,165,177,193,186,196,187,169,171,182],"times":[603,850],"next_num":2,"trial_type":"ticket-choose","trial_index":56,"time_elapsed":860460,"internal_node_id":"0.0-56.0"},{"result":159,"points":3,"place":0,"phase":0,"sequence":37,"prices":[159,178,170,174,176,194,173,182,185,175],"times":[778],"next_num":1,"trial_type":"ticket-choose","trial_index":57,"time_elapsed":862877,"internal_node_id":"0.0-57.0"},{"result":168,"points":2,"place":1,"phase":0,"sequence":38,"prices":[173,178,168,193,177,182,176,172,164,183],"times":[1382,439,673],"next_num":3,"trial_type":"ticket-choose","trial_index":58,"time_elapsed":867377,"internal_node_id":"0.0-58.0"},{"result":179,"points":1,"place":4,"phase":0,"sequence":39,"prices":[170,183,172,175,180,189,174,187,188,179],"times":[508,391,453,421,495,585,503,467,771,748],"next_num":10,"trial_type":"ticket-choose","trial_index":59,"time_elapsed":876653,"internal_node_id":"0.0-59.0"},{"result":164,"points":3,"place":0,"phase":0,"sequence":40,"prices":[173,178,168,193,177,182,176,172,164,183],"times":[1271,514,490,526,444,475,669,445,648],"next_num":9,"trial_type":"ticket-choose","trial_index":60,"time_elapsed":885758,"internal_node_id":"0.0-60.0"},{"result":169,"points":2,"place":1,"phase":0,"sequence":41,"prices":[175,179,177,193,178,182,169,172,164,183],"times":[616,461,379,471,402,491,734],"next_num":7,"trial_type":"ticket-choose","trial_index":61,"time_elapsed":892497,"internal_node_id":"0.0-61.0"},{"result":168,"points":2,"place":1,"phase":0,"sequence":42,"prices":[174,178,168,192,177,181,176,171,163,182],"times":[511,444,644],"next_num":3,"trial_type":"ticket-choose","trial_index":62,"time_elapsed":896225,"internal_node_id":"0.0-62.0"},{"result":165,"points":3,"place":0,"phase":0,"sequence":43,"prices":[176,180,178,194,179,183,170,173,165,184],"times":[762,595,504,373,407,436,471,425,733],"next_num":9,"trial_type":"ticket-choose","trial_index":63,"time_elapsed":904553,"internal_node_id":"0.0-63.0"},{"result":174,"points":1,"place":2,"phase":0,"sequence":44,"prices":[175,180,170,195,179,184,178,174,166,185],"times":[738,474,456,498,475,484,507,1586],"next_num":8,"trial_type":"ticket-choose","trial_index":64,"time_elapsed":912944,"internal_node_id":"0.0-64.0"},{"result":170,"points":2,"place":1,"phase":0,"sequence":45,"prices":[176,180,178,194,179,183,170,173,165,184],"times":[1086,466,528,543,475,1254,685],"next_num":7,"trial_type":"ticket-choose","trial_index":65,"time_elapsed":921108,"internal_node_id":"0.0-65.0"},{"result":164,"points":3,"place":0,"phase":0,"sequence":46,"prices":[173,178,176,193,177,182,168,172,164,183],"times":[821,811,450,752,415,413,394,499,781],"next_num":9,"trial_type":"ticket-choose","trial_index":66,"time_elapsed":930006,"internal_node_id":"0.0-66.0"},{"result":169,"points":2,"place":1,"phase":0,"sequence":47,"prices":[174,179,169,194,178,183,177,173,165,184],"times":[743,598,1036],"next_num":3,"trial_type":"ticket-choose","trial_index":67,"time_elapsed":934542,"internal_node_id":"0.0-67.0"},{"result":168,"points":3,"place":0,"phase":0,"sequence":48,"prices":[168,188,171,181,184,196,180,194,195,183],"times":[967],"next_num":1,"trial_type":"ticket-choose","trial_index":68,"time_elapsed":937810,"internal_node_id":"0.0-68.0"},{"result":166,"points":3,"place":0,"phase":0,"sequence":49,"prices":[175,180,170,195,179,184,178,174,166,185],"times":[1606,467,529,442,500,515,480,435,935],"next_num":9,"trial_type":"ticket-choose","trial_index":69,"time_elapsed":947271,"internal_node_id":"0.0-69.0"},{"responses":[{"value":0,"offby":0,"category":"$140 - $250","category_index":0},{"value":6,"offby":6,"category":"$151 - $160","category_index":1},{"value":5,"offby":1,"category":"$161 - $170","category_index":2},{"value":5,"offby":-1,"category":"$171 - $180","category_index":3},{"value":3,"offby":-4,"category":"$181 - $190","category_index":4},{"value":1,"offby":-2,"category":"$191 - $200","category_index":5},{"value":0,"offby":0,"category":"$201 - $210","category_index":6}],"phase":0,"number":1,"trial_type":"bar-choose","trial_index":70,"time_elapsed":990770,"internal_node_id":"0.0-70.0"},{"rt":9705,"url":"\/tickets\/utils\/start2.html","trial_type":"html","trial_index":71,"time_elapsed":1001630,"internal_node_id":"0.0-71.0"},{"trial_type":"number-animation","trial_index":72,"time_elapsed":1043787,"internal_node_id":"0.0-72.0"},{"phase":1,"sequence":0,"avg":166,"response":166,"trial_type":"training_avg","trial_index":73,"time_elapsed":1054315,"internal_node_id":"0.0-73.0"},{"trial_type":"number-animation","trial_index":74,"time_elapsed":1092889,"internal_node_id":"0.0-74.0"},{"phase":1,"sequence":1,"avg":198,"response":198,"trial_type":"training_avg","trial_index":75,"time_elapsed":1101163,"internal_node_id":"0.0-75.0"},{"trial_type":"number-animation","trial_index":76,"time_elapsed":1140642,"internal_node_id":"0.0-76.0"},{"phase":1,"sequence":2,"avg":177,"response":177,"trial_type":"training_avg","trial_index":77,"time_elapsed":1150718,"internal_node_id":"0.0-77.0"},{"trial_type":"number-animation","trial_index":78,"time_elapsed":1186055,"internal_node_id":"0.0-78.0"},{"phase":1,"sequence":3,"avg":190,"response":190,"trial_type":"training_avg","trial_index":79,"time_elapsed":1197462,"internal_node_id":"0.0-79.0"},{"trial_type":"number-animation","trial_index":80,"time_elapsed":1234797,"internal_node_id":"0.0-80.0"},{"phase":1,"sequence":4,"avg":201,"response":201,"trial_type":"training_avg","trial_index":81,"time_elapsed":1243939,"internal_node_id":"0.0-81.0"},{"responses":[{"value":2,"offby":1,"category":"$30 - $75","category_index":0},{"value":3,"offby":1,"category":"$76 - $120","category_index":1},{"value":5,"offby":1,"category":"$121 - $165","category_index":2},{"value":5,"offby":-1,"category":"$166 - $210","category_index":3},{"value":2,"offby":-4,"category":"$211 - $255","category_index":4},{"value":2,"offby":1,"category":"$256 - $300","category_index":5},{"value":1,"offby":1,"category":"$301 - $345","category_index":6}],"phase":1,"number":0,"trial_type":"bar-choose","trial_index":82,"time_elapsed":1288064,"internal_node_id":"0.0-82.0"},{"rt":7028,"url":"\/tickets\/utils\/testing2.html","trial_type":"html","trial_index":83,"time_elapsed":1296239,"internal_node_id":"0.0-83.0"},{"phase":1,"order":[46,20,49,43,42,5,27,7,40,47,33,18,30,10,31,17,4,45,29,32,44,6,19,16,26,14,39,0,48,37,25,28,34,38,15,1,21,8,35,24,3,13,36,2,23,11,12,22,41,9],"trial_type":"store_order","trial_index":84,"time_elapsed":1297250,"internal_node_id":"0.0-84.0"},{"result":165,"points":2,"place":1,"phase":1,"sequence":0,"prices":[175,211,266,286,111,216,220,245,230,165],"times":[1208,591,438,405,373,1080,455,436,1555,537],"next_num":10,"trial_type":"ticket-choose","trial_index":85,"time_elapsed":1308224,"internal_node_id":"0.0-85.0"},{"result":121,"points":2,"place":1,"phase":1,"sequence":1,"prices":[150,170,160,240,166,185,121,136,95,191],"times":[557,428,409,552,983,440,1010],"next_num":7,"trial_type":"ticket-choose","trial_index":86,"time_elapsed":1315536,"internal_node_id":"0.0-86.0"},{"result":106,"points":3,"place":0,"phase":1,"sequence":2,"prices":[155,225,245,130,176,106,180,211,165,200],"times":[692,537,396,317,493,886],"next_num":6,"trial_type":"ticket-choose","trial_index":87,"time_elapsed":1321606,"internal_node_id":"0.0-87.0"},{"result":65,"points":2,"place":1,"phase":1,"sequence":3,"prices":[220,236,176,65,185,101,110,61,156,191],"times":[566,466,872,777],"next_num":4,"trial_type":"ticket-choose","trial_index":88,"time_elapsed":1326562,"internal_node_id":"0.0-88.0"},{"result":155,"points":1,"place":3,"phase":1,"sequence":4,"prices":[155,245,155,81,180,130,156,306,166,115],"times":[414,455,809],"next_num":3,"trial_type":"ticket-choose","trial_index":89,"time_elapsed":1330688,"internal_node_id":"0.0-89.0"},{"result":156,"points":1,"place":3,"phase":1,"sequence":5,"prices":[156,176,165,246,171,190,126,141,101,196],"times":[1004],"next_num":1,"trial_type":"ticket-choose","trial_index":90,"time_elapsed":1333372,"internal_node_id":"0.0-90.0"},{"result":120,"points":3,"place":0,"phase":1,"sequence":6,"prices":[120,221,135,185,200,261,181,251,255,196],"times":[747],"next_num":1,"trial_type":"ticket-choose","trial_index":91,"time_elapsed":1335775,"internal_node_id":"0.0-91.0"},{"result":105,"points":3,"place":0,"phase":1,"sequence":7,"prices":[151,175,166,251,170,195,126,146,105,201],"times":[796,429,528,606,556,431,608,555,901],"next_num":9,"trial_type":"ticket-choose","trial_index":92,"time_elapsed":1344718,"internal_node_id":"0.0-92.0"},{"result":150,"points":1,"place":2,"phase":1,"sequence":8,"prices":[176,150,276,171,261,116,130,201,166,231],"times":[841,749],"next_num":2,"trial_type":"ticket-choose","trial_index":93,"time_elapsed":1348516,"internal_node_id":"0.0-93.0"},{"result":145,"points":3,"place":0,"phase":1,"sequence":9,"prices":[181,156,145,165,236,231,201,260,150,185],"times":[668,414,823],"next_num":3,"trial_type":"ticket-choose","trial_index":94,"time_elapsed":1352559,"internal_node_id":"0.0-94.0"},{"result":130,"points":3,"place":0,"phase":1,"sequence":10,"prices":[130,195,141,155,181,226,150,216,221,175],"times":[930],"next_num":1,"trial_type":"ticket-choose","trial_index":95,"time_elapsed":1355185,"internal_node_id":"0.0-95.0"},{"result":100,"points":3,"place":0,"phase":1,"sequence":11,"prices":[146,171,120,245,165,191,160,140,100,196],"times":[751,1080,491,459,471,750,542,742,601],"next_num":9,"trial_type":"ticket-choose","trial_index":96,"time_elapsed":1364657,"internal_node_id":"0.0-96.0"},{"result":81,"points":3,"place":0,"phase":1,"sequence":12,"prices":[81,205,130,151,191,261,145,210,250,165],"times":[1197],"next_num":1,"trial_type":"ticket-choose","trial_index":97,"time_elapsed":1367770,"internal_node_id":"0.0-97.0"},{"result":156,"points":1,"place":3,"phase":1,"sequence":13,"prices":[156,181,131,256,176,200,171,151,111,206],"times":[850],"next_num":1,"trial_type":"ticket-choose","trial_index":98,"time_elapsed":1370273,"internal_node_id":"0.0-98.0"},{"result":66,"points":3,"place":0,"phase":1,"sequence":14,"prices":[66,201,96,150,185,230,121,216,225,165],"times":[657],"next_num":1,"trial_type":"ticket-choose","trial_index":99,"time_elapsed":1372583,"internal_node_id":"0.0-99.0"},{"result":120,"points":2,"place":1,"phase":1,"sequence":15,"prices":[150,171,120,241,165,185,160,135,96,190],"times":[969,572,855],"next_num":3,"trial_type":"ticket-choose","trial_index":100,"time_elapsed":1377067,"internal_node_id":"0.0-100.0"},{"result":125,"points":2,"place":1,"phase":1,"sequence":16,"prices":[155,175,166,245,171,190,125,140,101,196],"times":[750,455,430,438,509,595,858],"next_num":7,"trial_type":"ticket-choose","trial_index":101,"time_elapsed":1384079,"internal_node_id":"0.0-101.0"},{"result":150,"points":1,"place":4,"phase":1,"sequence":17,"prices":[176,150,141,91,290,201,106,266,206,126],"times":[677,803],"next_num":2,"trial_type":"ticket-choose","trial_index":102,"time_elapsed":1387384,"internal_node_id":"0.0-102.0"},{"result":111,"points":3,"place":0,"phase":1,"sequence":18,"prices":[111,231,131,146,171,295,141,241,271,150],"times":[927],"next_num":1,"trial_type":"ticket-choose","trial_index":103,"time_elapsed":1389927,"internal_node_id":"0.0-103.0"},{"result":155,"points":1,"place":4,"phase":1,"sequence":19,"prices":[135,180,141,151,175,220,145,196,211,155],"times":[574,513,445,499,476,537,575,582,484,619],"next_num":10,"trial_type":"ticket-choose","trial_index":104,"time_elapsed":1398900,"internal_node_id":"0.0-104.0"},{"result":30,"points":3,"place":0,"phase":1,"sequence":20,"prices":[155,30,101,55,136,276,70,181,200,261],"times":[683,1213],"next_num":2,"trial_type":"ticket-choose","trial_index":105,"time_elapsed":1402780,"internal_node_id":"0.0-105.0"},{"result":126,"points":2,"place":1,"phase":1,"sequence":21,"prices":[150,175,166,251,170,196,126,145,105,201],"times":[1012,561,497,485,470,467,974],"next_num":7,"trial_type":"ticket-choose","trial_index":106,"time_elapsed":1410376,"internal_node_id":"0.0-106.0"},{"result":121,"points":2,"place":1,"phase":1,"sequence":22,"prices":[146,170,121,245,166,190,161,141,100,195],"times":[960,582,720],"next_num":3,"trial_type":"ticket-choose","trial_index":107,"time_elapsed":1415042,"internal_node_id":"0.0-107.0"},{"result":95,"points":3,"place":0,"phase":1,"sequence":23,"prices":[150,171,121,241,165,185,160,136,95,191],"times":[806,432,405,435,416,483,582,414,628],"next_num":9,"trial_type":"ticket-choose","trial_index":108,"time_elapsed":1423119,"internal_node_id":"0.0-108.0"},{"result":105,"points":3,"place":0,"phase":1,"sequence":24,"prices":[105,216,146,165,210,260,161,235,241,185],"times":[812],"next_num":1,"trial_type":"ticket-choose","trial_index":109,"time_elapsed":1425636,"internal_node_id":"0.0-109.0"},{"result":110,"points":3,"place":0,"phase":1,"sequence":25,"prices":[155,181,170,255,176,200,130,150,110,205],"times":[561,519,403,455,443,553,441,454,684],"next_num":9,"trial_type":"ticket-choose","trial_index":110,"time_elapsed":1433494,"internal_node_id":"0.0-110.0"},{"result":61,"points":3,"place":0,"phase":1,"sequence":26,"prices":[255,166,266,175,136,145,155,61,96,301],"times":[539,406,384,902,364,377,479,632],"next_num":8,"trial_type":"ticket-choose","trial_index":111,"time_elapsed":1440889,"internal_node_id":"0.0-111.0"},{"result":126,"points":2,"place":1,"phase":1,"sequence":27,"prices":[156,175,126,246,170,190,165,140,100,196],"times":[677,393,811],"next_num":3,"trial_type":"ticket-choose","trial_index":112,"time_elapsed":1444812,"internal_node_id":"0.0-112.0"},{"result":136,"points":3,"place":0,"phase":1,"sequence":28,"prices":[246,145,155,191,176,270,185,136,160,215],"times":[462,387,368,438,500,364,464,646],"next_num":8,"trial_type":"ticket-choose","trial_index":113,"time_elapsed":1451564,"internal_node_id":"0.0-113.0"},{"result":45,"points":3,"place":0,"phase":1,"sequence":29,"prices":[186,156,191,120,195,145,45,130,246,176],"times":[546,500,463,388,731,427,766],"next_num":7,"trial_type":"ticket-choose","trial_index":114,"time_elapsed":1458384,"internal_node_id":"0.0-114.0"},{"result":95,"points":3,"place":0,"phase":1,"sequence":30,"prices":[95,205,106,151,186,271,145,210,215,181],"times":[1082],"next_num":1,"trial_type":"ticket-choose","trial_index":115,"time_elapsed":1461063,"internal_node_id":"0.0-115.0"},{"result":171,"points":0,"place":6,"phase":1,"sequence":31,"prices":[75,171,131,151,161,250,145,190,206,156],"times":[696,983],"next_num":2,"trial_type":"ticket-choose","trial_index":116,"time_elapsed":1465028,"internal_node_id":"0.0-116.0"},{"result":76,"points":3,"place":0,"phase":1,"sequence":32,"prices":[185,180,235,210,106,266,76,115,250,205],"times":[815,678,1264,674,677,406,890],"next_num":7,"trial_type":"ticket-choose","trial_index":117,"time_elapsed":1474404,"internal_node_id":"0.0-117.0"},{"result":130,"points":3,"place":0,"phase":1,"sequence":33,"prices":[185,175,276,221,130,141,171,216,235,165],"times":[787,910,675,747,934],"next_num":5,"trial_type":"ticket-choose","trial_index":118,"time_elapsed":1481178,"internal_node_id":"0.0-118.0"},{"result":131,"points":2,"place":1,"phase":1,"sequence":34,"prices":[156,181,171,256,175,200,131,150,110,206],"times":[4006,762,846,629,612,837,1032],"next_num":7,"trial_type":"ticket-choose","trial_index":119,"time_elapsed":1493162,"internal_node_id":"0.0-119.0"},{"result":125,"points":2,"place":1,"phase":1,"sequence":35,"prices":[156,175,125,245,170,190,165,140,101,196],"times":[1713,539,1500],"next_num":3,"trial_type":"ticket-choose","trial_index":120,"time_elapsed":1499073,"internal_node_id":"0.0-120.0"},{"result":120,"points":2,"place":1,"phase":1,"sequence":36,"prices":[150,170,160,241,166,186,120,136,96,191],"times":[1218,564,813,567,564,477,909],"next_num":7,"trial_type":"ticket-choose","trial_index":121,"time_elapsed":1507651,"internal_node_id":"0.0-121.0"},{"result":105,"points":3,"place":0,"phase":1,"sequence":37,"prices":[161,180,131,251,175,196,171,146,105,201],"times":[924,471,526,428,445,413,433,447,833],"next_num":9,"trial_type":"ticket-choose","trial_index":122,"time_elapsed":1516170,"internal_node_id":"0.0-122.0"},{"result":51,"points":3,"place":0,"phase":1,"sequence":38,"prices":[221,175,51,196,146,130,166,80,126,156],"times":[3527,463,732],"next_num":3,"trial_type":"ticket-choose","trial_index":123,"time_elapsed":1523210,"internal_node_id":"0.0-123.0"},{"result":86,"points":3,"place":0,"phase":1,"sequence":39,"prices":[86,180,130,151,170,271,145,191,220,160],"times":[839],"next_num":1,"trial_type":"ticket-choose","trial_index":124,"time_elapsed":1525754,"internal_node_id":"0.0-124.0"},{"result":105,"points":3,"place":0,"phase":1,"sequence":40,"prices":[150,176,126,251,171,195,165,145,105,200],"times":[704,433,471,528,436,473,455,1111,751],"next_num":9,"trial_type":"ticket-choose","trial_index":125,"time_elapsed":1535724,"internal_node_id":"0.0-125.0"},{"result":131,"points":2,"place":1,"phase":1,"sequence":41,"prices":[160,180,170,251,176,195,131,146,105,200],"times":[1301,422,412,473,391,446,885],"next_num":7,"trial_type":"ticket-choose","trial_index":126,"time_elapsed":1543068,"internal_node_id":"0.0-126.0"},{"result":125,"points":1,"place":2,"phase":1,"sequence":42,"prices":[226,205,125,120,115,135,180,145,150,220],"times":[522,387,754],"next_num":3,"trial_type":"ticket-choose","trial_index":127,"time_elapsed":1546807,"internal_node_id":"0.0-127.0"},{"result":105,"points":3,"place":0,"phase":1,"sequence":43,"prices":[151,176,126,251,170,196,165,145,105,201],"times":[470,471,409,477,550,414,431,657,926],"next_num":9,"trial_type":"ticket-choose","trial_index":128,"time_elapsed":1555179,"internal_node_id":"0.0-128.0"},{"result":120,"points":2,"place":1,"phase":1,"sequence":44,"prices":[145,170,160,245,165,190,120,141,100,195],"times":[542,435,486,475,590,506,856],"next_num":7,"trial_type":"ticket-choose","trial_index":129,"time_elapsed":1562082,"internal_node_id":"0.0-129.0"},{"result":130,"points":2,"place":1,"phase":1,"sequence":45,"prices":[156,181,130,255,175,200,170,150,111,205],"times":[467,428,816],"next_num":3,"trial_type":"ticket-choose","trial_index":130,"time_elapsed":1565825,"internal_node_id":"0.0-130.0"},{"result":131,"points":2,"place":1,"phase":1,"sequence":46,"prices":[161,180,171,250,176,195,131,146,105,201],"times":[692,381,466,464,647,649,745],"next_num":7,"trial_type":"ticket-choose","trial_index":131,"time_elapsed":1572790,"internal_node_id":"0.0-131.0"},{"result":120,"points":2,"place":1,"phase":1,"sequence":47,"prices":[145,171,161,245,165,191,120,140,100,196],"times":[628,587,448,382,594,418,792],"next_num":7,"trial_type":"ticket-choose","trial_index":132,"time_elapsed":1579566,"internal_node_id":"0.0-132.0"},{"result":190,"points":0,"place":5,"phase":1,"sequence":48,"prices":[180,106,166,245,211,261,215,125,135,190],"times":[490,327,401,414,438,392,390,421,672,850],"next_num":10,"trial_type":"ticket-choose","trial_index":133,"time_elapsed":1588047,"internal_node_id":"0.0-133.0"},{"result":130,"points":2,"place":1,"phase":1,"sequence":49,"prices":[160,180,130,251,176,195,170,146,105,200],"times":[740,401,859],"next_num":3,"trial_type":"ticket-choose","trial_index":134,"time_elapsed":1592062,"internal_node_id":"0.0-134.0"},{"responses":[{"value":3,"offby":2,"category":"$30 - $75","category_index":0},{"value":3,"offby":1,"category":"$76 - $120","category_index":1},{"value":4,"offby":0,"category":"$121 - $165","category_index":2},{"value":3,"offby":-3,"category":"$166 - $210","category_index":3},{"value":5,"offby":-1,"category":"$211 - $255","category_index":4},{"value":2,"offby":1,"category":"$256 - $300","category_index":5},{"value":0,"offby":0,"category":"$301 - $345","category_index":6}],"phase":1,"number":1,"trial_type":"bar-choose","trial_index":135,"time_elapsed":1622231,"internal_node_id":"0.0-135.0"},{"special_comment":"No","trial_type":"special_sequence","trial_index":136,"time_elapsed":1627262,"internal_node_id":"0.0-136.0"},{"during":"Other","bonus":296,"trial_type":"final","trial_index":137,"time_elapsed":1654741,"internal_node_id":"0.0-137.0"}],"bonus":296}