{"start_time":"2017-02-24 15:36:44","end_time":"2017-02-24 15:57:24","points_phase0":110,"points_phase1":112,"phase_order":0,"age":29,"gender":"m","tries":1,"during":"Nothing","worker_id":"A32QJF67JMJFKX","assignment_id":"3DHE4R9OCX4XFWO7VP6825WNLPKG2D","data":[{"rt":9347,"url":"\/tickets\/utils\/consent.html","trial_type":"html","trial_index":0,"time_elapsed":9417,"internal_node_id":"0.0-0.0"},{"age":29,"gender":"m","trial_type":"age","trial_index":1,"time_elapsed":13401,"internal_node_id":"0.0-1.0"},{"worker_id":"A32QJF67JMJFKX","trial_type":"workerid","trial_index":2,"time_elapsed":18760,"internal_node_id":"0.0-2.0"},{"tries":1,"trial_type":"instructions_check","trial_index":3,"time_elapsed":56022,"internal_node_id":"0.0-3.0"},{"rt":14200,"url":"\/tickets\/utils\/start.html","trial_type":"html","trial_index":4,"time_elapsed":71308,"internal_node_id":"0.0-4.0"},{"trial_type":"number-animation","trial_index":5,"time_elapsed":92620,"internal_node_id":"0.0-5.0"},{"phase":0,"sequence":0,"avg":180,"response":182,"trial_type":"training_avg","trial_index":6,"time_elapsed":103595,"internal_node_id":"0.0-6.0"},{"trial_type":"number-animation","trial_index":7,"time_elapsed":120563,"internal_node_id":"0.0-7.0"},{"phase":0,"sequence":1,"avg":178,"response":175,"trial_type":"training_avg","trial_index":8,"time_elapsed":130028,"internal_node_id":"0.0-8.0"},{"trial_type":"number-animation","trial_index":9,"time_elapsed":144579,"internal_node_id":"0.0-9.0"},{"phase":0,"sequence":2,"avg":176,"response":179,"trial_type":"training_avg","trial_index":10,"time_elapsed":154211,"internal_node_id":"0.0-10.0"},{"trial_type":"number-animation","trial_index":11,"time_elapsed":168435,"internal_node_id":"0.0-11.0"},{"phase":0,"sequence":3,"avg":178,"response":170,"trial_type":"training_avg","trial_index":12,"time_elapsed":174187,"internal_node_id":"0.0-12.0"},{"trial_type":"number-animation","trial_index":13,"time_elapsed":185675,"internal_node_id":"0.0-13.0"},{"phase":0,"sequence":4,"avg":179,"response":178,"trial_type":"training_avg","trial_index":14,"time_elapsed":196892,"internal_node_id":"0.0-14.0"},{"responses":[{"value":20,"offby":20,"category":"$140 - $250","category_index":0},{"value":0,"offby":0,"category":"$151 - $160","category_index":1},{"value":0,"offby":-4,"category":"$161 - $170","category_index":2},{"value":0,"offby":-6,"category":"$171 - $180","category_index":3},{"value":0,"offby":-7,"category":"$181 - $190","category_index":4},{"value":0,"offby":-3,"category":"$191 - $200","category_index":5},{"value":0,"offby":0,"category":"$201 - $210","category_index":6}],"phase":0,"number":0,"trial_type":"bar-choose","trial_index":15,"time_elapsed":283861,"internal_node_id":"0.0-15.0"},{"rt":26914,"url":"\/tickets\/\/utils\/testing.html","trial_type":"html","trial_index":16,"time_elapsed":311859,"internal_node_id":"0.0-16.0"},{"phase":0,"order":[4,35,45,31,48,26,9,17,20,0,10,21,36,44,6,40,42,1,33,22,46,43,12,23,11,5,15,2,3,39,28,19,25,34,27,41,32,49,7,14,24,13,38,30,8,16,29,37,18,47],"trial_type":"store_order","trial_index":17,"time_elapsed":312861,"internal_node_id":"0.0-17.0"},{"result":165,"points":2,"place":1,"phase":0,"sequence":-1,"prices":[184,180,224,165,181,199,185,193,218,126],"times":[1827,1540,1085,1704],"next_num":4,"trial_type":"ticket-choose","trial_index":18,"time_elapsed":322163,"internal_node_id":"0.0-18.0"},{"rt":16241,"url":"\/tickets\/utils\/testing_after.html","trial_type":"html","trial_index":19,"time_elapsed":339497,"internal_node_id":"0.0-19.0"},{"result":169,"points":2,"place":1,"phase":0,"sequence":0,"prices":[175,179,177,193,178,182,169,172,164,183],"times":[3103,1268,1100,892,1246,1014,1265],"next_num":7,"trial_type":"ticket-choose","trial_index":20,"time_elapsed":353150,"internal_node_id":"0.0-20.0"},{"result":154,"points":3,"place":0,"phase":0,"sequence":1,"prices":[188,179,154,183,173,170,177,160,169,175],"times":[1094,830,1230],"next_num":3,"trial_type":"ticket-choose","trial_index":21,"time_elapsed":359083,"internal_node_id":"0.0-21.0"},{"result":162,"points":3,"place":0,"phase":0,"sequence":2,"prices":[179,174,172,162,202,184,165,197,185,169],"times":[874,932,1615,1181],"next_num":4,"trial_type":"ticket-choose","trial_index":22,"time_elapsed":366563,"internal_node_id":"0.0-22.0"},{"result":157,"points":3,"place":0,"phase":0,"sequence":3,"prices":[157,184,163,174,181,190,168,187,189,177],"times":[1232],"next_num":1,"trial_type":"ticket-choose","trial_index":23,"time_elapsed":369926,"internal_node_id":"0.0-23.0"},{"result":187,"points":0,"place":7,"phase":0,"sequence":4,"prices":[193,173,175,182,179,198,181,171,176,187],"times":[1048,1005,748,827,854,856,875,1302,1069,1815],"next_num":10,"trial_type":"ticket-choose","trial_index":24,"time_elapsed":384323,"internal_node_id":"0.0-24.0"},{"result":165,"points":3,"place":0,"phase":0,"sequence":5,"prices":[165,187,173,177,186,196,176,191,192,181],"times":[1587],"next_num":1,"trial_type":"ticket-choose","trial_index":25,"time_elapsed":388331,"internal_node_id":"0.0-25.0"},{"result":165,"points":3,"place":0,"phase":0,"sequence":6,"prices":[176,180,170,194,179,183,178,173,165,184],"times":[1047,853,710,854,798,844,757,2412,1437],"next_num":9,"trial_type":"ticket-choose","trial_index":26,"time_elapsed":401784,"internal_node_id":"0.0-26.0"},{"result":168,"points":2,"place":1,"phase":0,"sequence":7,"prices":[174,178,168,192,177,181,176,171,163,182],"times":[1687,686,1430],"next_num":3,"trial_type":"ticket-choose","trial_index":27,"time_elapsed":408220,"internal_node_id":"0.0-27.0"},{"result":168,"points":2,"place":1,"phase":0,"sequence":8,"prices":[174,178,176,192,177,181,168,171,163,182],"times":[4205,728,659,758,671,717,992],"next_num":7,"trial_type":"ticket-choose","trial_index":28,"time_elapsed":420198,"internal_node_id":"0.0-28.0"},{"result":172,"points":1,"place":2,"phase":0,"sequence":9,"prices":[175,179,169,193,178,182,177,172,164,183],"times":[1560,735,999,982,647,679,686,1207],"next_num":8,"trial_type":"ticket-choose","trial_index":29,"time_elapsed":431093,"internal_node_id":"0.0-29.0"},{"result":170,"points":2,"place":1,"phase":0,"sequence":10,"prices":[175,180,170,195,179,184,178,174,166,185],"times":[736,691,990],"next_num":3,"trial_type":"ticket-choose","trial_index":30,"time_elapsed":435915,"internal_node_id":"0.0-30.0"},{"result":168,"points":2,"place":1,"phase":0,"sequence":11,"prices":[174,178,176,192,177,181,168,171,163,182],"times":[2138,719,694,698,615,678,1053],"next_num":7,"trial_type":"ticket-choose","trial_index":31,"time_elapsed":445839,"internal_node_id":"0.0-31.0"},{"result":169,"points":1,"place":2,"phase":0,"sequence":12,"prices":[189,185,169,168,167,171,180,173,174,188],"times":[1151,670,1480],"next_num":3,"trial_type":"ticket-choose","trial_index":32,"time_elapsed":451942,"internal_node_id":"0.0-32.0"},{"result":150,"points":3,"place":0,"phase":0,"sequence":13,"prices":[175,150,164,155,171,199,158,180,184,196],"times":[768,1038],"next_num":2,"trial_type":"ticket-choose","trial_index":33,"time_elapsed":455915,"internal_node_id":"0.0-33.0"},{"result":169,"points":2,"place":1,"phase":0,"sequence":14,"prices":[174,179,177,194,178,183,169,173,165,184],"times":[1074,773,667,734,739,745,1273],"next_num":7,"trial_type":"ticket-choose","trial_index":34,"time_elapsed":465112,"internal_node_id":"0.0-34.0"},{"result":167,"points":3,"place":0,"phase":0,"sequence":15,"prices":[179,174,199,178,196,167,170,184,177,190],"times":[2290,963,710,665,773,1026],"next_num":6,"trial_type":"ticket-choose","trial_index":35,"time_elapsed":474520,"internal_node_id":"0.0-35.0"},{"result":160,"points":3,"place":0,"phase":0,"sequence":16,"prices":[175,193,175,160,180,170,175,205,177,167],"times":[1449,563,611,1185],"next_num":4,"trial_type":"ticket-choose","trial_index":36,"time_elapsed":480795,"internal_node_id":"0.0-36.0"},{"result":169,"points":2,"place":1,"phase":0,"sequence":17,"prices":[175,179,169,193,178,182,177,172,164,183],"times":[947,612,1104],"next_num":3,"trial_type":"ticket-choose","trial_index":37,"time_elapsed":486244,"internal_node_id":"0.0-37.0"},{"result":170,"points":3,"place":0,"phase":0,"sequence":18,"prices":[170,183,172,175,180,189,174,187,188,179],"times":[1118],"next_num":1,"trial_type":"ticket-choose","trial_index":38,"time_elapsed":489386,"internal_node_id":"0.0-38.0"},{"result":168,"points":2,"place":1,"phase":0,"sequence":19,"prices":[173,178,176,193,177,182,168,172,164,183],"times":[1100,637,893,700,677,756,1036],"next_num":7,"trial_type":"ticket-choose","trial_index":39,"time_elapsed":498588,"internal_node_id":"0.0-39.0"},{"result":166,"points":3,"place":0,"phase":0,"sequence":20,"prices":[179,186,197,201,166,187,188,193,190,177],"times":[814,685,638,717,964],"next_num":5,"trial_type":"ticket-choose","trial_index":40,"time_elapsed":505157,"internal_node_id":"0.0-40.0"},{"result":157,"points":2,"place":1,"phase":0,"sequence":21,"prices":[188,191,179,157,181,164,166,156,175,182],"times":[670,629,1255,942],"next_num":4,"trial_type":"ticket-choose","trial_index":41,"time_elapsed":511323,"internal_node_id":"0.0-41.0"},{"result":170,"points":2,"place":1,"phase":0,"sequence":22,"prices":[176,180,178,194,179,183,170,173,165,184],"times":[967,839,991,964,777,795,1102],"next_num":7,"trial_type":"ticket-choose","trial_index":42,"time_elapsed":521015,"internal_node_id":"0.0-42.0"},{"result":168,"points":2,"place":1,"phase":0,"sequence":23,"prices":[173,178,176,193,177,182,168,172,164,183],"times":[1125,729,902,716,753,709,1195],"next_num":7,"trial_type":"ticket-choose","trial_index":43,"time_elapsed":530219,"internal_node_id":"0.0-43.0"},{"result":170,"points":2,"place":1,"phase":0,"sequence":24,"prices":[175,180,170,195,179,184,178,174,166,185],"times":[823,666,1051],"next_num":3,"trial_type":"ticket-choose","trial_index":44,"time_elapsed":535152,"internal_node_id":"0.0-44.0"},{"result":169,"points":2,"place":1,"phase":0,"sequence":25,"prices":[175,179,177,193,178,182,169,172,164,183],"times":[685,654,713,720,679,702,1104],"next_num":7,"trial_type":"ticket-choose","trial_index":45,"time_elapsed":543826,"internal_node_id":"0.0-45.0"},{"result":170,"points":2,"place":1,"phase":0,"sequence":26,"prices":[175,180,178,195,179,184,170,174,166,185],"times":[1074,652,707,803,724,705,1096],"next_num":7,"trial_type":"ticket-choose","trial_index":46,"time_elapsed":552991,"internal_node_id":"0.0-46.0"},{"result":169,"points":2,"place":1,"phase":0,"sequence":27,"prices":[174,179,169,194,178,183,177,173,165,184],"times":[962,666,1028],"next_num":3,"trial_type":"ticket-choose","trial_index":47,"time_elapsed":557889,"internal_node_id":"0.0-47.0"},{"result":169,"points":2,"place":1,"phase":0,"sequence":28,"prices":[174,179,169,194,178,183,177,173,165,184],"times":[1203,578,998],"next_num":3,"trial_type":"ticket-choose","trial_index":48,"time_elapsed":562968,"internal_node_id":"0.0-48.0"},{"result":156,"points":3,"place":0,"phase":0,"sequence":29,"prices":[195,177,197,179,171,173,175,156,163,204],"times":[1110,787,646,693,674,650,635,1057],"next_num":8,"trial_type":"ticket-choose","trial_index":49,"time_elapsed":572688,"internal_node_id":"0.0-49.0"},{"result":159,"points":3,"place":0,"phase":0,"sequence":30,"prices":[159,178,170,174,176,194,173,182,185,175],"times":[1109],"next_num":1,"trial_type":"ticket-choose","trial_index":50,"time_elapsed":575668,"internal_node_id":"0.0-50.0"},{"result":168,"points":2,"place":1,"phase":0,"sequence":31,"prices":[173,178,168,193,177,182,176,172,164,183],"times":[1039,1225,1127],"next_num":3,"trial_type":"ticket-choose","trial_index":51,"time_elapsed":581711,"internal_node_id":"0.0-51.0"},{"result":163,"points":3,"place":0,"phase":0,"sequence":32,"prices":[163,185,165,174,181,198,173,186,187,180],"times":[1338],"next_num":1,"trial_type":"ticket-choose","trial_index":52,"time_elapsed":585035,"internal_node_id":"0.0-52.0"},{"result":165,"points":2,"place":1,"phase":0,"sequence":33,"prices":[181,180,191,186,165,197,159,167,194,185],"times":[814,718,678,682,991],"next_num":5,"trial_type":"ticket-choose","trial_index":53,"time_elapsed":591578,"internal_node_id":"0.0-53.0"},{"result":183,"points":1,"place":4,"phase":0,"sequence":34,"prices":[168,188,171,181,184,196,180,194,195,183],"times":[810,827,1530,669,647,690,966,706,763,796],"next_num":10,"trial_type":"ticket-choose","trial_index":54,"time_elapsed":603762,"internal_node_id":"0.0-54.0"},{"result":165,"points":3,"place":0,"phase":0,"sequence":35,"prices":[180,165,177,193,186,196,187,169,171,182],"times":[1479,892],"next_num":2,"trial_type":"ticket-choose","trial_index":55,"time_elapsed":608108,"internal_node_id":"0.0-55.0"},{"result":175,"points":1,"place":4,"phase":0,"sequence":36,"prices":[171,180,172,174,179,188,173,183,186,175],"times":[837,903,803,785,682,749,743,613,652,1465],"next_num":10,"trial_type":"ticket-choose","trial_index":56,"time_elapsed":620255,"internal_node_id":"0.0-56.0"},{"result":170,"points":2,"place":1,"phase":0,"sequence":37,"prices":[175,189,193,170,179,165,180,186,177,184],"times":[1558,774,684,2602],"next_num":4,"trial_type":"ticket-choose","trial_index":57,"time_elapsed":628504,"internal_node_id":"0.0-57.0"},{"result":169,"points":2,"place":1,"phase":0,"sequence":38,"prices":[174,179,177,194,178,183,169,173,165,184],"times":[864,623,624,680,641,697,1086],"next_num":7,"trial_type":"ticket-choose","trial_index":58,"time_elapsed":636921,"internal_node_id":"0.0-58.0"},{"result":170,"points":2,"place":1,"phase":0,"sequence":39,"prices":[175,180,178,195,179,184,170,174,166,185],"times":[720,579,601,706,697,657,1085],"next_num":7,"trial_type":"ticket-choose","trial_index":59,"time_elapsed":644962,"internal_node_id":"0.0-59.0"},{"result":161,"points":3,"place":0,"phase":0,"sequence":40,"prices":[161,180,170,174,178,198,173,182,188,176],"times":[1051],"next_num":1,"trial_type":"ticket-choose","trial_index":60,"time_elapsed":647792,"internal_node_id":"0.0-60.0"},{"result":170,"points":2,"place":1,"phase":0,"sequence":41,"prices":[176,180,178,194,179,183,170,173,165,184],"times":[951,647,697,675,722,665,1025],"next_num":7,"trial_type":"ticket-choose","trial_index":61,"time_elapsed":656499,"internal_node_id":"0.0-61.0"},{"result":170,"points":3,"place":0,"phase":0,"sequence":42,"prices":[181,179,199,188,170,172,178,187,191,177],"times":[812,600,638,607,930],"next_num":5,"trial_type":"ticket-choose","trial_index":62,"time_elapsed":662725,"internal_node_id":"0.0-62.0"},{"result":160,"points":3,"place":0,"phase":0,"sequence":43,"prices":[160,185,170,174,182,196,173,186,194,177],"times":[1123],"next_num":1,"trial_type":"ticket-choose","trial_index":63,"time_elapsed":665662,"internal_node_id":"0.0-63.0"},{"result":170,"points":2,"place":1,"phase":0,"sequence":44,"prices":[176,180,170,194,179,183,178,173,165,184],"times":[911,593,954],"next_num":3,"trial_type":"ticket-choose","trial_index":64,"time_elapsed":670328,"internal_node_id":"0.0-64.0"},{"result":168,"points":2,"place":1,"phase":0,"sequence":45,"prices":[174,178,168,192,177,181,176,171,163,182],"times":[846,613,891],"next_num":3,"trial_type":"ticket-choose","trial_index":65,"time_elapsed":674896,"internal_node_id":"0.0-65.0"},{"result":166,"points":3,"place":0,"phase":0,"sequence":46,"prices":[166,190,170,173,178,203,172,192,198,174],"times":[892],"next_num":1,"trial_type":"ticket-choose","trial_index":66,"time_elapsed":677553,"internal_node_id":"0.0-66.0"},{"result":168,"points":2,"place":1,"phase":0,"sequence":47,"prices":[181,175,182,168,183,173,153,170,193,179],"times":[1146,891,611,935],"next_num":4,"trial_type":"ticket-choose","trial_index":67,"time_elapsed":683625,"internal_node_id":"0.0-67.0"},{"result":168,"points":2,"place":1,"phase":0,"sequence":48,"prices":[173,178,168,193,177,182,176,172,164,183],"times":[855,612,916],"next_num":3,"trial_type":"ticket-choose","trial_index":68,"time_elapsed":688238,"internal_node_id":"0.0-68.0"},{"result":181,"points":0,"place":5,"phase":0,"sequence":49,"prices":[180,175,173,177,191,190,184,196,174,181],"times":[778,594,680,596,788,691,774,788,700,980],"next_num":10,"trial_type":"ticket-choose","trial_index":69,"time_elapsed":699436,"internal_node_id":"0.0-69.0"},{"responses":[{"value":0,"offby":0,"category":"$140 - $250","category_index":0},{"value":1,"offby":1,"category":"$151 - $160","category_index":1},{"value":4,"offby":0,"category":"$161 - $170","category_index":2},{"value":5,"offby":-1,"category":"$171 - $180","category_index":3},{"value":7,"offby":0,"category":"$181 - $190","category_index":4},{"value":3,"offby":0,"category":"$191 - $200","category_index":5},{"value":0,"offby":0,"category":"$201 - $210","category_index":6}],"phase":0,"number":1,"trial_type":"bar-choose","trial_index":70,"time_elapsed":749657,"internal_node_id":"0.0-70.0"},{"rt":3829,"url":"\/tickets\/utils\/start2.html","trial_type":"html","trial_index":71,"time_elapsed":754585,"internal_node_id":"0.0-71.0"},{"trial_type":"number-animation","trial_index":72,"time_elapsed":765695,"internal_node_id":"0.0-72.0"},{"phase":1,"sequence":0,"avg":166,"response":150,"trial_type":"training_avg","trial_index":73,"time_elapsed":775745,"internal_node_id":"0.0-73.0"},{"trial_type":"number-animation","trial_index":74,"time_elapsed":785093,"internal_node_id":"0.0-74.0"},{"phase":1,"sequence":1,"avg":198,"response":209,"trial_type":"training_avg","trial_index":75,"time_elapsed":790241,"internal_node_id":"0.0-75.0"},{"trial_type":"number-animation","trial_index":76,"time_elapsed":798845,"internal_node_id":"0.0-76.0"},{"phase":1,"sequence":2,"avg":177,"response":189,"trial_type":"training_avg","trial_index":77,"time_elapsed":804762,"internal_node_id":"0.0-77.0"},{"trial_type":"number-animation","trial_index":78,"time_elapsed":813315,"internal_node_id":"0.0-78.0"},{"phase":1,"sequence":3,"avg":190,"response":220,"trial_type":"training_avg","trial_index":79,"time_elapsed":818535,"internal_node_id":"0.0-79.0"},{"trial_type":"number-animation","trial_index":80,"time_elapsed":827513,"internal_node_id":"0.0-80.0"},{"phase":1,"sequence":4,"avg":201,"response":170,"trial_type":"training_avg","trial_index":81,"time_elapsed":832691,"internal_node_id":"0.0-81.0"},{"responses":[{"value":1,"offby":0,"category":"$30 - $75","category_index":0},{"value":1,"offby":-1,"category":"$76 - $120","category_index":1},{"value":5,"offby":1,"category":"$121 - $165","category_index":2},{"value":6,"offby":0,"category":"$166 - $210","category_index":3},{"value":5,"offby":-1,"category":"$211 - $255","category_index":4},{"value":2,"offby":1,"category":"$256 - $300","category_index":5},{"value":0,"offby":0,"category":"$301 - $345","category_index":6}],"phase":1,"number":0,"trial_type":"bar-choose","trial_index":82,"time_elapsed":873881,"internal_node_id":"0.0-82.0"},{"rt":10241,"url":"\/tickets\/utils\/testing2.html","trial_type":"html","trial_index":83,"time_elapsed":885212,"internal_node_id":"0.0-83.0"},{"phase":1,"order":[46,7,34,42,2,22,6,21,20,16,4,49,24,41,44,39,32,12,27,18,8,35,28,29,40,38,48,31,26,25,10,47,45,43,11,3,5,33,1,0,9,14,36,30,15,17,23,37,13,19],"trial_type":"store_order","trial_index":84,"time_elapsed":886215,"internal_node_id":"0.0-84.0"},{"result":111,"points":3,"place":0,"phase":1,"sequence":0,"prices":[175,211,266,286,111,216,220,245,230,165],"times":[4563,695,589,598,1019],"next_num":5,"trial_type":"ticket-choose","trial_index":85,"time_elapsed":896602,"internal_node_id":"0.0-85.0"},{"result":146,"points":1,"place":2,"phase":1,"sequence":1,"prices":[151,175,166,251,170,195,126,146,105,201],"times":[1951,580,967,605,1493,660,621,1919],"next_num":8,"trial_type":"ticket-choose","trial_index":86,"time_elapsed":909053,"internal_node_id":"0.0-86.0"},{"result":106,"points":2,"place":1,"phase":1,"sequence":2,"prices":[185,180,235,210,106,266,76,115,250,205],"times":[1260,694,717,833,1105],"next_num":5,"trial_type":"ticket-choose","trial_index":87,"time_elapsed":916328,"internal_node_id":"0.0-87.0"},{"result":81,"points":3,"place":0,"phase":1,"sequence":3,"prices":[155,245,155,81,180,130,156,306,166,115],"times":[924,654,807,966],"next_num":4,"trial_type":"ticket-choose","trial_index":88,"time_elapsed":922296,"internal_node_id":"0.0-88.0"},{"result":126,"points":2,"place":1,"phase":1,"sequence":4,"prices":[151,176,126,251,170,196,165,145,105,201],"times":[949,639,1024],"next_num":3,"trial_type":"ticket-choose","trial_index":89,"time_elapsed":927105,"internal_node_id":"0.0-89.0"},{"result":120,"points":2,"place":1,"phase":1,"sequence":5,"prices":[145,171,161,245,165,191,120,140,100,196],"times":[748,683,623,628,768,617,2063],"next_num":7,"trial_type":"ticket-choose","trial_index":90,"time_elapsed":936482,"internal_node_id":"0.0-90.0"},{"result":126,"points":2,"place":1,"phase":1,"sequence":6,"prices":[150,175,166,251,170,196,126,145,105,201],"times":[891,653,646,660,728,680,1154],"next_num":7,"trial_type":"ticket-choose","trial_index":91,"time_elapsed":944985,"internal_node_id":"0.0-91.0"},{"result":120,"points":2,"place":1,"phase":1,"sequence":7,"prices":[150,170,160,241,166,186,120,136,96,191],"times":[905,815,614,653,721,670,1103],"next_num":7,"trial_type":"ticket-choose","trial_index":92,"time_elapsed":953661,"internal_node_id":"0.0-92.0"},{"result":121,"points":2,"place":1,"phase":1,"sequence":8,"prices":[150,170,160,240,166,185,121,136,95,191],"times":[907,652,724,724,1306,640,1044],"next_num":7,"trial_type":"ticket-choose","trial_index":93,"time_elapsed":962705,"internal_node_id":"0.0-93.0"},{"result":121,"points":2,"place":1,"phase":1,"sequence":9,"prices":[150,171,121,241,165,185,160,136,95,191],"times":[1540,638,974],"next_num":3,"trial_type":"ticket-choose","trial_index":94,"time_elapsed":968098,"internal_node_id":"0.0-94.0"},{"result":125,"points":2,"place":1,"phase":1,"sequence":10,"prices":[155,175,166,245,171,190,125,140,101,196],"times":[817,719,738,693,715,636,1003],"next_num":7,"trial_type":"ticket-choose","trial_index":95,"time_elapsed":976448,"internal_node_id":"0.0-95.0"},{"result":130,"points":2,"place":1,"phase":1,"sequence":11,"prices":[155,225,245,130,176,106,180,211,165,200],"times":[1048,612,676,953],"next_num":4,"trial_type":"ticket-choose","trial_index":96,"time_elapsed":982131,"internal_node_id":"0.0-96.0"},{"result":86,"points":3,"place":0,"phase":1,"sequence":12,"prices":[86,180,130,151,170,271,145,191,220,160],"times":[1014],"next_num":1,"trial_type":"ticket-choose","trial_index":97,"time_elapsed":984865,"internal_node_id":"0.0-97.0"},{"result":106,"points":3,"place":0,"phase":1,"sequence":13,"prices":[180,106,166,245,211,261,215,125,135,190],"times":[878,857],"next_num":2,"trial_type":"ticket-choose","trial_index":98,"time_elapsed":988935,"internal_node_id":"0.0-98.0"},{"result":30,"points":3,"place":0,"phase":1,"sequence":14,"prices":[155,30,101,55,136,276,70,181,200,261],"times":[751,898],"next_num":2,"trial_type":"ticket-choose","trial_index":99,"time_elapsed":992692,"internal_node_id":"0.0-99.0"},{"result":136,"points":1,"place":2,"phase":1,"sequence":15,"prices":[255,166,266,175,136,145,155,61,96,301],"times":[780,685,679,677,986],"next_num":5,"trial_type":"ticket-choose","trial_index":100,"time_elapsed":999125,"internal_node_id":"0.0-100.0"},{"result":155,"points":1,"place":4,"phase":1,"sequence":16,"prices":[135,180,141,151,175,220,145,196,211,155],"times":[678,829,745,774,661,737,687,672,678,735],"next_num":10,"trial_type":"ticket-choose","trial_index":101,"time_elapsed":1010013,"internal_node_id":"0.0-101.0"},{"result":131,"points":2,"place":1,"phase":1,"sequence":17,"prices":[161,180,171,250,176,195,131,146,105,201],"times":[1001,630,641,648,688,688,869],"next_num":7,"trial_type":"ticket-choose","trial_index":102,"time_elapsed":1018255,"internal_node_id":"0.0-102.0"},{"result":120,"points":3,"place":0,"phase":1,"sequence":18,"prices":[120,221,135,185,200,261,181,251,255,196],"times":[1179],"next_num":1,"trial_type":"ticket-choose","trial_index":103,"time_elapsed":1021306,"internal_node_id":"0.0-103.0"},{"result":120,"points":2,"place":1,"phase":1,"sequence":19,"prices":[146,171,120,245,165,191,160,140,100,196],"times":[901,691,910],"next_num":3,"trial_type":"ticket-choose","trial_index":104,"time_elapsed":1026022,"internal_node_id":"0.0-104.0"},{"result":131,"points":2,"place":1,"phase":1,"sequence":20,"prices":[161,180,131,251,175,196,171,146,105,201],"times":[713,598,996],"next_num":3,"trial_type":"ticket-choose","trial_index":105,"time_elapsed":1030564,"internal_node_id":"0.0-105.0"},{"result":51,"points":3,"place":0,"phase":1,"sequence":21,"prices":[221,175,51,196,146,130,166,80,126,156],"times":[726,714,958],"next_num":3,"trial_type":"ticket-choose","trial_index":106,"time_elapsed":1035164,"internal_node_id":"0.0-106.0"},{"result":75,"points":3,"place":0,"phase":1,"sequence":22,"prices":[75,171,131,151,161,250,145,190,206,156],"times":[950],"next_num":1,"trial_type":"ticket-choose","trial_index":107,"time_elapsed":1037999,"internal_node_id":"0.0-107.0"},{"result":111,"points":3,"place":0,"phase":1,"sequence":23,"prices":[111,231,131,146,171,295,141,241,271,150],"times":[1004],"next_num":1,"trial_type":"ticket-choose","trial_index":108,"time_elapsed":1040929,"internal_node_id":"0.0-108.0"},{"result":116,"points":3,"place":0,"phase":1,"sequence":24,"prices":[176,150,276,171,261,116,130,201,166,231],"times":[1078,656,700,705,658,819],"next_num":6,"trial_type":"ticket-choose","trial_index":109,"time_elapsed":1048378,"internal_node_id":"0.0-109.0"},{"result":130,"points":3,"place":0,"phase":1,"sequence":25,"prices":[185,175,276,221,130,141,171,216,235,165],"times":[709,622,664,743,962],"next_num":5,"trial_type":"ticket-choose","trial_index":110,"time_elapsed":1054847,"internal_node_id":"0.0-110.0"},{"result":136,"points":3,"place":0,"phase":1,"sequence":26,"prices":[246,145,155,191,176,270,185,136,160,215],"times":[719,1068,680,621,903,662,739,878],"next_num":8,"trial_type":"ticket-choose","trial_index":111,"time_elapsed":1064380,"internal_node_id":"0.0-111.0"},{"result":66,"points":3,"place":0,"phase":1,"sequence":27,"prices":[66,201,96,150,185,230,121,216,225,165],"times":[883],"next_num":1,"trial_type":"ticket-choose","trial_index":112,"time_elapsed":1067044,"internal_node_id":"0.0-112.0"},{"result":105,"points":3,"place":0,"phase":1,"sequence":28,"prices":[105,216,146,165,210,260,161,235,241,185],"times":[852],"next_num":1,"trial_type":"ticket-choose","trial_index":113,"time_elapsed":1070114,"internal_node_id":"0.0-113.0"},{"result":95,"points":3,"place":0,"phase":1,"sequence":29,"prices":[95,205,106,151,186,271,145,210,215,181],"times":[1198],"next_num":1,"trial_type":"ticket-choose","trial_index":114,"time_elapsed":1073137,"internal_node_id":"0.0-114.0"},{"result":131,"points":2,"place":1,"phase":1,"sequence":30,"prices":[156,181,131,256,176,200,171,151,111,206],"times":[1136,651,911],"next_num":3,"trial_type":"ticket-choose","trial_index":115,"time_elapsed":1078071,"internal_node_id":"0.0-115.0"},{"result":150,"points":2,"place":1,"phase":1,"sequence":31,"prices":[181,156,145,165,236,231,201,260,150,185],"times":[819,643,623,672,646,694,643,639,1078],"next_num":9,"trial_type":"ticket-choose","trial_index":116,"time_elapsed":1088203,"internal_node_id":"0.0-116.0"},{"result":150,"points":1,"place":4,"phase":1,"sequence":32,"prices":[176,150,141,91,290,201,106,266,206,126],"times":[929,1150],"next_num":2,"trial_type":"ticket-choose","trial_index":117,"time_elapsed":1092463,"internal_node_id":"0.0-117.0"},{"result":65,"points":2,"place":1,"phase":1,"sequence":33,"prices":[220,236,176,65,185,101,110,61,156,191],"times":[689,607,645,872],"next_num":4,"trial_type":"ticket-choose","trial_index":118,"time_elapsed":1097711,"internal_node_id":"0.0-118.0"},{"result":130,"points":2,"place":1,"phase":1,"sequence":34,"prices":[156,181,130,255,175,200,170,150,111,205],"times":[968,565,1140],"next_num":3,"trial_type":"ticket-choose","trial_index":119,"time_elapsed":1102616,"internal_node_id":"0.0-119.0"},{"result":126,"points":2,"place":1,"phase":1,"sequence":35,"prices":[150,176,126,251,171,195,165,145,105,200],"times":[753,559,934],"next_num":3,"trial_type":"ticket-choose","trial_index":120,"time_elapsed":1107175,"internal_node_id":"0.0-120.0"},{"result":126,"points":2,"place":1,"phase":1,"sequence":36,"prices":[156,176,165,246,171,190,126,141,101,196],"times":[682,609,591,645,660,693,2702],"next_num":7,"trial_type":"ticket-choose","trial_index":121,"time_elapsed":1116917,"internal_node_id":"0.0-121.0"},{"result":130,"points":3,"place":0,"phase":1,"sequence":37,"prices":[130,195,141,155,181,226,150,216,221,175],"times":[1333],"next_num":1,"trial_type":"ticket-choose","trial_index":122,"time_elapsed":1120160,"internal_node_id":"0.0-122.0"},{"result":125,"points":2,"place":1,"phase":1,"sequence":38,"prices":[156,175,125,245,170,190,165,140,101,196],"times":[933,621,940],"next_num":3,"trial_type":"ticket-choose","trial_index":123,"time_elapsed":1124886,"internal_node_id":"0.0-123.0"},{"result":126,"points":2,"place":1,"phase":1,"sequence":39,"prices":[156,175,126,246,170,190,165,140,100,196],"times":[763,592,1811],"next_num":3,"trial_type":"ticket-choose","trial_index":124,"time_elapsed":1130239,"internal_node_id":"0.0-124.0"},{"result":130,"points":2,"place":1,"phase":1,"sequence":40,"prices":[160,180,130,251,176,195,170,146,105,200],"times":[839,595,1412],"next_num":3,"trial_type":"ticket-choose","trial_index":125,"time_elapsed":1135399,"internal_node_id":"0.0-125.0"},{"result":130,"points":2,"place":1,"phase":1,"sequence":41,"prices":[155,181,170,255,176,200,130,150,110,205],"times":[728,600,642,669,638,758,913],"next_num":7,"trial_type":"ticket-choose","trial_index":126,"time_elapsed":1143371,"internal_node_id":"0.0-126.0"},{"result":125,"points":1,"place":2,"phase":1,"sequence":42,"prices":[226,205,125,120,115,135,180,145,150,220],"times":[726,550,911],"next_num":3,"trial_type":"ticket-choose","trial_index":127,"time_elapsed":1147981,"internal_node_id":"0.0-127.0"},{"result":81,"points":3,"place":0,"phase":1,"sequence":43,"prices":[81,205,130,151,191,261,145,210,250,165],"times":[832],"next_num":1,"trial_type":"ticket-choose","trial_index":128,"time_elapsed":1150556,"internal_node_id":"0.0-128.0"},{"result":131,"points":2,"place":1,"phase":1,"sequence":44,"prices":[156,181,171,256,175,200,131,150,110,206],"times":[1512,742,568,644,846,630,1357],"next_num":7,"trial_type":"ticket-choose","trial_index":129,"time_elapsed":1159919,"internal_node_id":"0.0-129.0"},{"result":120,"points":2,"place":1,"phase":1,"sequence":45,"prices":[150,171,120,241,165,185,160,135,96,190],"times":[1180,650,1735],"next_num":3,"trial_type":"ticket-choose","trial_index":130,"time_elapsed":1165885,"internal_node_id":"0.0-130.0"},{"result":120,"points":2,"place":1,"phase":1,"sequence":46,"prices":[145,170,160,245,165,190,120,141,100,195],"times":[999,703,670,638,813,675,1020],"next_num":7,"trial_type":"ticket-choose","trial_index":131,"time_elapsed":1174438,"internal_node_id":"0.0-131.0"},{"result":120,"points":2,"place":1,"phase":1,"sequence":47,"prices":[186,156,191,120,195,145,45,130,246,176],"times":[720,556,659,979],"next_num":4,"trial_type":"ticket-choose","trial_index":132,"time_elapsed":1179881,"internal_node_id":"0.0-132.0"},{"result":131,"points":2,"place":1,"phase":1,"sequence":48,"prices":[160,180,170,251,176,195,131,146,105,200],"times":[1009,620,621,637,715,643,852],"next_num":7,"trial_type":"ticket-choose","trial_index":133,"time_elapsed":1188038,"internal_node_id":"0.0-133.0"},{"result":121,"points":2,"place":1,"phase":1,"sequence":49,"prices":[146,170,121,245,166,190,161,141,100,195],"times":[883,678,946],"next_num":3,"trial_type":"ticket-choose","trial_index":134,"time_elapsed":1192761,"internal_node_id":"0.0-134.0"},{"responses":[{"value":1,"offby":0,"category":"$30 - $75","category_index":0},{"value":3,"offby":1,"category":"$76 - $120","category_index":1},{"value":5,"offby":1,"category":"$121 - $165","category_index":2},{"value":6,"offby":0,"category":"$166 - $210","category_index":3},{"value":4,"offby":-2,"category":"$211 - $255","category_index":4},{"value":1,"offby":0,"category":"$256 - $300","category_index":5},{"value":0,"offby":0,"category":"$301 - $345","category_index":6}],"phase":1,"number":1,"trial_type":"bar-choose","trial_index":135,"time_elapsed":1215285,"internal_node_id":"0.0-135.0"},{"special_comment":"No","trial_type":"special_sequence","trial_index":136,"time_elapsed":1220752,"internal_node_id":"0.0-136.0"},{"during":"Nothing","bonus":296,"trial_type":"final","trial_index":137,"time_elapsed":1238406,"internal_node_id":"0.0-137.0"}],"bonus":296}