{"start_time":"2017-02-24 16:30:26","end_time":"2017-02-24 16:59:25","points_phase0":114,"points_phase1":111,"phase_order":0,"age":33,"gender":"m","tries":1,"during":"Nothing","worker_id":"A34SUZWGLXIWM8","assignment_id":"34FNN24DCN2P0KSU7EUC7C63AV15Y1","data":[{"rt":109019,"url":"\/tickets\/utils\/consent.html","trial_type":"html","trial_index":0,"time_elapsed":109951,"internal_node_id":"0.0-0.0"},{"age":33,"gender":"m","trial_type":"age","trial_index":1,"time_elapsed":120279,"internal_node_id":"0.0-1.0"},{"worker_id":"A34SUZWGLXIWM8","trial_type":"workerid","trial_index":2,"time_elapsed":134718,"internal_node_id":"0.0-2.0"},{"tries":1,"trial_type":"instructions_check","trial_index":3,"time_elapsed":208677,"internal_node_id":"0.0-3.0"},{"rt":25020,"url":"\/tickets\/utils\/start.html","trial_type":"html","trial_index":4,"time_elapsed":235742,"internal_node_id":"0.0-4.0"},{"trial_type":"number-animation","trial_index":5,"time_elapsed":251582,"internal_node_id":"0.0-5.0"},{"phase":0,"sequence":0,"avg":180,"response":180,"trial_type":"training_avg","trial_index":6,"time_elapsed":274253,"internal_node_id":"0.0-6.0"},{"trial_type":"number-animation","trial_index":7,"time_elapsed":285621,"internal_node_id":"0.0-7.0"},{"phase":0,"sequence":1,"avg":178,"response":175,"trial_type":"training_avg","trial_index":8,"time_elapsed":292933,"internal_node_id":"0.0-8.0"},{"trial_type":"number-animation","trial_index":9,"time_elapsed":302949,"internal_node_id":"0.0-9.0"},{"phase":0,"sequence":2,"avg":176,"response":173,"trial_type":"training_avg","trial_index":10,"time_elapsed":316965,"internal_node_id":"0.0-10.0"},{"trial_type":"number-animation","trial_index":11,"time_elapsed":326566,"internal_node_id":"0.0-11.0"},{"phase":0,"sequence":3,"avg":178,"response":170,"trial_type":"training_avg","trial_index":12,"time_elapsed":330422,"internal_node_id":"0.0-12.0"},{"trial_type":"number-animation","trial_index":13,"time_elapsed":339853,"internal_node_id":"0.0-13.0"},{"phase":0,"sequence":4,"avg":179,"response":177,"trial_type":"training_avg","trial_index":14,"time_elapsed":350293,"internal_node_id":"0.0-14.0"},{"responses":[{"value":0,"offby":0,"category":"$140 - $250","category_index":0},{"value":3,"offby":3,"category":"$151 - $160","category_index":1},{"value":5,"offby":1,"category":"$161 - $170","category_index":2},{"value":5,"offby":-1,"category":"$171 - $180","category_index":3},{"value":5,"offby":-2,"category":"$181 - $190","category_index":4},{"value":2,"offby":-1,"category":"$191 - $200","category_index":5},{"value":0,"offby":0,"category":"$201 - $210","category_index":6}],"phase":0,"number":0,"trial_type":"bar-choose","trial_index":15,"time_elapsed":479638,"internal_node_id":"0.0-15.0"},{"rt":28080,"url":"\/tickets\/\/utils\/testing.html","trial_type":"html","trial_index":16,"time_elapsed":509854,"internal_node_id":"0.0-16.0"},{"phase":0,"order":[33,23,36,26,28,35,45,3,38,8,24,27,44,2,19,0,47,17,31,43,18,10,21,49,9,16,12,7,6,34,1,42,22,41,39,15,32,40,20,25,30,29,13,48,37,46,14,5,4,11],"trial_type":"store_order","trial_index":17,"time_elapsed":510854,"internal_node_id":"0.0-17.0"},{"result":165,"points":2,"place":1,"phase":0,"sequence":-1,"prices":[184,180,224,165,181,199,185,193,218,126],"times":[2523,1759,1664,3438],"next_num":4,"trial_type":"ticket-choose","trial_index":18,"time_elapsed":525901,"internal_node_id":"0.0-18.0"},{"rt":42155,"url":"\/tickets\/utils\/testing_after.html","trial_type":"html","trial_index":19,"time_elapsed":569771,"internal_node_id":"0.0-19.0"},{"result":174,"points":1,"place":2,"phase":0,"sequence":0,"prices":[170,183,172,175,180,189,174,187,188,179],"times":[2000,1655,1239,1655,990,1191,2823],"next_num":7,"trial_type":"ticket-choose","trial_index":20,"time_elapsed":585667,"internal_node_id":"0.0-20.0"},{"result":168,"points":2,"place":1,"phase":0,"sequence":1,"prices":[173,178,176,193,177,182,168,172,164,183],"times":[2434,934,815,774,957,872,1404],"next_num":7,"trial_type":"ticket-choose","trial_index":21,"time_elapsed":598282,"internal_node_id":"0.0-21.0"},{"result":168,"points":2,"place":1,"phase":0,"sequence":2,"prices":[189,185,169,168,167,171,180,173,174,188],"times":[3978,1471,1495,2526],"next_num":4,"trial_type":"ticket-choose","trial_index":22,"time_elapsed":611259,"internal_node_id":"0.0-22.0"},{"result":181,"points":1,"place":4,"phase":0,"sequence":3,"prices":[165,187,173,177,186,196,176,191,192,181],"times":[1865,615,574,550,823,710,926,1423,991,3791],"next_num":11,"trial_type":"ticket-choose","trial_index":23,"time_elapsed":628050,"internal_node_id":"0.0-23.0"},{"result":159,"points":3,"place":0,"phase":0,"sequence":4,"prices":[159,178,170,174,176,194,173,182,185,175],"times":[1179],"next_num":1,"trial_type":"ticket-choose","trial_index":24,"time_elapsed":633220,"internal_node_id":"0.0-24.0"},{"result":154,"points":3,"place":0,"phase":0,"sequence":5,"prices":[188,179,154,183,173,170,177,160,169,175],"times":[1553,718,1007],"next_num":3,"trial_type":"ticket-choose","trial_index":25,"time_elapsed":640612,"internal_node_id":"0.0-25.0"},{"result":162,"points":3,"place":0,"phase":0,"sequence":6,"prices":[179,174,172,162,202,184,165,197,185,169],"times":[4567,1087,1902,1344],"next_num":4,"trial_type":"ticket-choose","trial_index":26,"time_elapsed":653188,"internal_node_id":"0.0-26.0"},{"result":169,"points":2,"place":1,"phase":0,"sequence":7,"prices":[174,179,169,194,178,183,177,173,165,184],"times":[1143,743,1480],"next_num":3,"trial_type":"ticket-choose","trial_index":27,"time_elapsed":659436,"internal_node_id":"0.0-27.0"},{"result":177,"points":1,"place":2,"phase":0,"sequence":8,"prices":[181,179,199,188,170,172,178,187,191,177],"times":[1777,654,640,639,1776,766,671,928,791,1383],"next_num":11,"trial_type":"ticket-choose","trial_index":28,"time_elapsed":674572,"internal_node_id":"0.0-28.0"},{"result":165,"points":3,"place":0,"phase":0,"sequence":9,"prices":[176,180,170,194,179,183,178,173,165,184],"times":[4857,719,1024,717,647,687,704,1776,1063],"next_num":9,"trial_type":"ticket-choose","trial_index":29,"time_elapsed":696339,"internal_node_id":"0.0-29.0"},{"result":161,"points":3,"place":0,"phase":0,"sequence":10,"prices":[161,180,170,174,178,198,173,182,188,176],"times":[1753],"next_num":1,"trial_type":"ticket-choose","trial_index":30,"time_elapsed":701484,"internal_node_id":"0.0-30.0"},{"result":168,"points":3,"place":0,"phase":0,"sequence":11,"prices":[168,188,171,181,184,196,180,194,195,183],"times":[3994],"next_num":1,"trial_type":"ticket-choose","trial_index":31,"time_elapsed":708803,"internal_node_id":"0.0-31.0"},{"result":150,"points":3,"place":0,"phase":0,"sequence":12,"prices":[175,150,164,155,171,199,158,180,184,196],"times":[1833,968],"next_num":2,"trial_type":"ticket-choose","trial_index":32,"time_elapsed":714363,"internal_node_id":"0.0-32.0"},{"result":165,"points":3,"place":0,"phase":0,"sequence":13,"prices":[174,179,169,194,178,183,177,173,165,184],"times":[1085,654,1095,623,582,661,622,694,872],"next_num":9,"trial_type":"ticket-choose","trial_index":33,"time_elapsed":725907,"internal_node_id":"0.0-33.0"},{"result":164,"points":3,"place":0,"phase":0,"sequence":14,"prices":[173,178,168,193,177,182,176,172,164,183],"times":[1307,551,815,582,622,614,670,1119,878],"next_num":9,"trial_type":"ticket-choose","trial_index":34,"time_elapsed":745364,"internal_node_id":"0.0-34.0"},{"result":169,"points":2,"place":1,"phase":0,"sequence":15,"prices":[175,179,169,193,178,182,177,172,164,183],"times":[1670,600,1887],"next_num":3,"trial_type":"ticket-choose","trial_index":35,"time_elapsed":752195,"internal_node_id":"0.0-35.0"},{"result":181,"points":0,"place":5,"phase":0,"sequence":16,"prices":[180,175,173,177,191,190,184,196,174,181],"times":[1131,568,630,614,631,631,702,711,3992,1774],"next_num":11,"trial_type":"ticket-choose","trial_index":36,"time_elapsed":767716,"internal_node_id":"0.0-36.0"},{"result":168,"points":2,"place":1,"phase":0,"sequence":17,"prices":[174,178,168,192,177,181,176,171,163,182],"times":[1058,614,886],"next_num":3,"trial_type":"ticket-choose","trial_index":37,"time_elapsed":772819,"internal_node_id":"0.0-37.0"},{"result":157,"points":3,"place":0,"phase":0,"sequence":18,"prices":[157,184,163,174,181,190,168,187,189,177],"times":[1239],"next_num":1,"trial_type":"ticket-choose","trial_index":38,"time_elapsed":776283,"internal_node_id":"0.0-38.0"},{"result":157,"points":2,"place":1,"phase":0,"sequence":19,"prices":[188,191,179,157,181,164,166,156,175,182],"times":[1997,558,734,1119],"next_num":4,"trial_type":"ticket-choose","trial_index":39,"time_elapsed":783475,"internal_node_id":"0.0-39.0"},{"result":168,"points":2,"place":1,"phase":0,"sequence":20,"prices":[173,178,168,193,177,182,176,172,164,183],"times":[1289,558,1327],"next_num":3,"trial_type":"ticket-choose","trial_index":40,"time_elapsed":789091,"internal_node_id":"0.0-40.0"},{"result":166,"points":3,"place":0,"phase":0,"sequence":21,"prices":[175,180,170,195,179,184,178,174,166,185],"times":[2737,639,767,591,599,653,743,1166,887],"next_num":9,"trial_type":"ticket-choose","trial_index":41,"time_elapsed":805083,"internal_node_id":"0.0-41.0"},{"result":168,"points":2,"place":1,"phase":0,"sequence":22,"prices":[174,178,176,192,177,181,168,171,163,182],"times":[2202,742,615,591,575,615,1008],"next_num":7,"trial_type":"ticket-choose","trial_index":42,"time_elapsed":835547,"internal_node_id":"0.0-42.0"},{"result":165,"points":3,"place":0,"phase":0,"sequence":23,"prices":[175,189,193,170,179,165,180,186,177,184],"times":[13933,606,623,1006,639,1063],"next_num":6,"trial_type":"ticket-choose","trial_index":43,"time_elapsed":856915,"internal_node_id":"0.0-43.0"},{"result":173,"points":1,"place":2,"phase":0,"sequence":24,"prices":[176,180,170,194,179,183,178,173,165,184],"times":[5263,566,551,599,671,1015,839,1375],"next_num":8,"trial_type":"ticket-choose","trial_index":44,"time_elapsed":876819,"internal_node_id":"0.0-44.0"},{"result":168,"points":2,"place":1,"phase":0,"sequence":25,"prices":[174,178,168,192,177,181,176,171,163,182],"times":[1585,583,910],"next_num":3,"trial_type":"ticket-choose","trial_index":45,"time_elapsed":882603,"internal_node_id":"0.0-45.0"},{"result":170,"points":2,"place":1,"phase":0,"sequence":26,"prices":[176,180,178,194,179,183,170,173,165,184],"times":[1632,638,549,615,719,959,1622],"next_num":7,"trial_type":"ticket-choose","trial_index":46,"time_elapsed":892963,"internal_node_id":"0.0-46.0"},{"result":169,"points":2,"place":1,"phase":0,"sequence":27,"prices":[174,179,177,194,178,183,169,173,165,184],"times":[1225,525,575,615,719,696,999],"next_num":7,"trial_type":"ticket-choose","trial_index":47,"time_elapsed":901722,"internal_node_id":"0.0-47.0"},{"result":169,"points":2,"place":1,"phase":0,"sequence":28,"prices":[174,179,177,194,178,183,169,173,165,184],"times":[881,503,544,608,709,607,975],"next_num":7,"trial_type":"ticket-choose","trial_index":48,"time_elapsed":909921,"internal_node_id":"0.0-48.0"},{"result":165,"points":2,"place":1,"phase":0,"sequence":29,"prices":[181,180,191,186,165,197,159,167,194,185],"times":[897,528,590,591,975],"next_num":5,"trial_type":"ticket-choose","trial_index":49,"time_elapsed":916434,"internal_node_id":"0.0-49.0"},{"result":169,"points":2,"place":1,"phase":0,"sequence":30,"prices":[175,179,169,193,178,182,177,172,164,183],"times":[900,582,951],"next_num":3,"trial_type":"ticket-choose","trial_index":50,"time_elapsed":921169,"internal_node_id":"0.0-50.0"},{"result":160,"points":3,"place":0,"phase":0,"sequence":31,"prices":[175,193,175,160,180,170,175,205,177,167],"times":[830,568,622,943],"next_num":4,"trial_type":"ticket-choose","trial_index":51,"time_elapsed":926754,"internal_node_id":"0.0-51.0"},{"result":168,"points":2,"place":1,"phase":0,"sequence":32,"prices":[173,178,176,193,177,182,168,172,164,183],"times":[1093,534,606,616,638,631,1015],"next_num":7,"trial_type":"ticket-choose","trial_index":52,"time_elapsed":935490,"internal_node_id":"0.0-52.0"},{"result":165,"points":3,"place":0,"phase":0,"sequence":33,"prices":[180,165,177,193,186,196,187,169,171,182],"times":[1249,2079],"next_num":2,"trial_type":"ticket-choose","trial_index":53,"time_elapsed":941538,"internal_node_id":"0.0-53.0"},{"result":156,"points":3,"place":0,"phase":0,"sequence":34,"prices":[195,177,197,179,171,173,175,156,163,204],"times":[1115,574,564,831,638,623,774,962],"next_num":8,"trial_type":"ticket-choose","trial_index":54,"time_elapsed":951330,"internal_node_id":"0.0-54.0"},{"result":170,"points":2,"place":1,"phase":0,"sequence":35,"prices":[175,180,178,195,179,184,170,174,166,185],"times":[1138,607,552,641,676,703,1103],"next_num":7,"trial_type":"ticket-choose","trial_index":55,"time_elapsed":960218,"internal_node_id":"0.0-55.0"},{"result":175,"points":1,"place":4,"phase":0,"sequence":36,"prices":[171,180,172,174,179,188,173,183,186,175],"times":[988,536,662,558,606,1047,1631,776,783,1495],"next_num":11,"trial_type":"ticket-choose","trial_index":56,"time_elapsed":973482,"internal_node_id":"0.0-56.0"},{"result":167,"points":3,"place":0,"phase":0,"sequence":37,"prices":[179,174,199,178,196,167,170,184,177,190],"times":[1318,775,726,919,671,1014],"next_num":6,"trial_type":"ticket-choose","trial_index":57,"time_elapsed":982578,"internal_node_id":"0.0-57.0"},{"result":168,"points":2,"place":1,"phase":0,"sequence":38,"prices":[174,178,176,192,177,181,168,171,163,182],"times":[1217,692,1238,686,815,839,1006],"next_num":7,"trial_type":"ticket-choose","trial_index":58,"time_elapsed":992522,"internal_node_id":"0.0-58.0"},{"result":163,"points":3,"place":0,"phase":0,"sequence":39,"prices":[163,185,165,174,181,198,173,186,187,180],"times":[1658],"next_num":1,"trial_type":"ticket-choose","trial_index":59,"time_elapsed":996274,"internal_node_id":"0.0-59.0"},{"result":160,"points":3,"place":0,"phase":0,"sequence":40,"prices":[160,185,170,174,182,196,173,186,194,177],"times":[985],"next_num":1,"trial_type":"ticket-choose","trial_index":60,"time_elapsed":999466,"internal_node_id":"0.0-60.0"},{"result":166,"points":3,"place":0,"phase":0,"sequence":41,"prices":[166,190,170,173,178,203,172,192,198,174],"times":[1016],"next_num":1,"trial_type":"ticket-choose","trial_index":61,"time_elapsed":1002650,"internal_node_id":"0.0-61.0"},{"result":170,"points":2,"place":1,"phase":0,"sequence":42,"prices":[176,180,178,194,179,183,170,173,165,184],"times":[1103,679,534,567,599,637,1110],"next_num":7,"trial_type":"ticket-choose","trial_index":62,"time_elapsed":1011211,"internal_node_id":"0.0-62.0"},{"result":171,"points":3,"place":0,"phase":0,"sequence":43,"prices":[193,173,175,182,179,198,181,171,176,187],"times":[1220,511,1007,613,631,560,590,960],"next_num":8,"trial_type":"ticket-choose","trial_index":63,"time_elapsed":1021162,"internal_node_id":"0.0-63.0"},{"result":168,"points":2,"place":1,"phase":0,"sequence":44,"prices":[181,175,182,168,183,173,153,170,193,179],"times":[976,647,631,879],"next_num":4,"trial_type":"ticket-choose","trial_index":64,"time_elapsed":1026890,"internal_node_id":"0.0-64.0"},{"result":166,"points":3,"place":0,"phase":0,"sequence":45,"prices":[179,186,197,201,166,187,188,193,190,177],"times":[853,695,592,661,920],"next_num":5,"trial_type":"ticket-choose","trial_index":65,"time_elapsed":1033554,"internal_node_id":"0.0-65.0"},{"result":170,"points":2,"place":1,"phase":0,"sequence":46,"prices":[175,180,178,195,179,184,170,174,166,185],"times":[980,591,581,584,574,615,1222],"next_num":7,"trial_type":"ticket-choose","trial_index":66,"time_elapsed":1042019,"internal_node_id":"0.0-66.0"},{"result":169,"points":2,"place":1,"phase":0,"sequence":47,"prices":[175,179,177,193,178,182,169,172,164,183],"times":[1064,758,695,623,632,750,846],"next_num":7,"trial_type":"ticket-choose","trial_index":67,"time_elapsed":1051490,"internal_node_id":"0.0-67.0"},{"result":169,"points":2,"place":1,"phase":0,"sequence":48,"prices":[175,179,177,193,178,182,169,172,164,183],"times":[954,550,574,590,663,672,886],"next_num":7,"trial_type":"ticket-choose","trial_index":68,"time_elapsed":1059482,"internal_node_id":"0.0-68.0"},{"result":170,"points":2,"place":1,"phase":0,"sequence":49,"prices":[175,180,170,195,179,184,178,174,166,185],"times":[806,583,1175],"next_num":3,"trial_type":"ticket-choose","trial_index":69,"time_elapsed":1064554,"internal_node_id":"0.0-69.0"},{"responses":[{"value":0,"offby":0,"category":"$140 - $250","category_index":0},{"value":4,"offby":4,"category":"$151 - $160","category_index":1},{"value":4,"offby":0,"category":"$161 - $170","category_index":2},{"value":5,"offby":-1,"category":"$171 - $180","category_index":3},{"value":5,"offby":-2,"category":"$181 - $190","category_index":4},{"value":2,"offby":-1,"category":"$191 - $200","category_index":5},{"value":0,"offby":0,"category":"$201 - $210","category_index":6}],"phase":0,"number":1,"trial_type":"bar-choose","trial_index":70,"time_elapsed":1139659,"internal_node_id":"0.0-70.0"},{"rt":9152,"url":"\/tickets\/utils\/start2.html","trial_type":"html","trial_index":71,"time_elapsed":1151194,"internal_node_id":"0.0-71.0"},{"trial_type":"number-animation","trial_index":72,"time_elapsed":1163994,"internal_node_id":"0.0-72.0"},{"phase":1,"sequence":0,"avg":166,"response":145,"trial_type":"training_avg","trial_index":73,"time_elapsed":1174290,"internal_node_id":"0.0-73.0"},{"trial_type":"number-animation","trial_index":74,"time_elapsed":1183506,"internal_node_id":"0.0-74.0"},{"phase":1,"sequence":1,"avg":198,"response":175,"trial_type":"training_avg","trial_index":75,"time_elapsed":1196338,"internal_node_id":"0.0-75.0"},{"trial_type":"number-animation","trial_index":76,"time_elapsed":1204873,"internal_node_id":"0.0-76.0"},{"phase":1,"sequence":2,"avg":177,"response":190,"trial_type":"training_avg","trial_index":77,"time_elapsed":1215074,"internal_node_id":"0.0-77.0"},{"trial_type":"number-animation","trial_index":78,"time_elapsed":1224433,"internal_node_id":"0.0-78.0"},{"phase":1,"sequence":3,"avg":190,"response":177,"trial_type":"training_avg","trial_index":79,"time_elapsed":1230754,"internal_node_id":"0.0-79.0"},{"trial_type":"number-animation","trial_index":80,"time_elapsed":1238978,"internal_node_id":"0.0-80.0"},{"phase":1,"sequence":4,"avg":201,"response":200,"trial_type":"training_avg","trial_index":81,"time_elapsed":1246666,"internal_node_id":"0.0-81.0"},{"responses":[{"value":1,"offby":0,"category":"$30 - $75","category_index":0},{"value":3,"offby":1,"category":"$76 - $120","category_index":1},{"value":4,"offby":0,"category":"$121 - $165","category_index":2},{"value":6,"offby":0,"category":"$166 - $210","category_index":3},{"value":6,"offby":0,"category":"$211 - $255","category_index":4},{"value":0,"offby":-1,"category":"$256 - $300","category_index":5},{"value":0,"offby":0,"category":"$301 - $345","category_index":6}],"phase":1,"number":0,"trial_type":"bar-choose","trial_index":82,"time_elapsed":1313947,"internal_node_id":"0.0-82.0"},{"rt":7079,"url":"\/tickets\/utils\/testing2.html","trial_type":"html","trial_index":83,"time_elapsed":1322881,"internal_node_id":"0.0-83.0"},{"phase":1,"order":[34,19,12,21,20,23,45,15,49,43,18,28,22,48,10,25,3,38,24,17,27,42,8,44,47,37,7,40,4,1,46,9,14,31,35,5,33,32,39,6,26,11,29,30,36,13,2,16,0,41],"trial_type":"store_order","trial_index":84,"time_elapsed":1323894,"internal_node_id":"0.0-84.0"},{"result":106,"points":2,"place":1,"phase":1,"sequence":0,"prices":[185,180,235,210,106,266,76,115,250,205],"times":[1719,749,661,702,1070],"next_num":5,"trial_type":"ticket-choose","trial_index":85,"time_elapsed":1331945,"internal_node_id":"0.0-85.0"},{"result":146,"points":1,"place":3,"phase":1,"sequence":1,"prices":[146,170,121,245,166,190,161,141,100,195],"times":[3714],"next_num":1,"trial_type":"ticket-choose","trial_index":86,"time_elapsed":1337769,"internal_node_id":"0.0-86.0"},{"result":131,"points":2,"place":1,"phase":1,"sequence":2,"prices":[161,180,171,250,176,195,131,146,105,201],"times":[1071,581,598,568,655,598,1007],"next_num":7,"trial_type":"ticket-choose","trial_index":87,"time_elapsed":1346272,"internal_node_id":"0.0-87.0"},{"result":150,"points":1,"place":3,"phase":1,"sequence":3,"prices":[150,170,160,241,166,186,120,136,96,191],"times":[1392],"next_num":1,"trial_type":"ticket-choose","trial_index":88,"time_elapsed":1349784,"internal_node_id":"0.0-88.0"},{"result":121,"points":2,"place":1,"phase":1,"sequence":4,"prices":[150,170,160,240,166,185,121,136,95,191],"times":[1181,559,648,598,751,645,1078],"next_num":7,"trial_type":"ticket-choose","trial_index":89,"time_elapsed":1358912,"internal_node_id":"0.0-89.0"},{"result":145,"points":1,"place":3,"phase":1,"sequence":5,"prices":[145,170,160,245,165,190,120,141,100,195],"times":[1746],"next_num":1,"trial_type":"ticket-choose","trial_index":90,"time_elapsed":1362449,"internal_node_id":"0.0-90.0"},{"result":141,"points":1,"place":3,"phase":1,"sequence":6,"prices":[176,150,141,91,290,201,106,266,206,126],"times":[849,1015,975],"next_num":3,"trial_type":"ticket-choose","trial_index":91,"time_elapsed":1367680,"internal_node_id":"0.0-91.0"},{"result":131,"points":2,"place":1,"phase":1,"sequence":7,"prices":[156,181,171,256,175,200,131,150,110,206],"times":[1009,573,663,583,622,743,987],"next_num":7,"trial_type":"ticket-choose","trial_index":92,"time_elapsed":1376592,"internal_node_id":"0.0-92.0"},{"result":130,"points":2,"place":1,"phase":1,"sequence":8,"prices":[155,225,245,130,176,106,180,211,165,200],"times":[1103,549,566,976],"next_num":4,"trial_type":"ticket-choose","trial_index":93,"time_elapsed":1382440,"internal_node_id":"0.0-93.0"},{"result":65,"points":2,"place":1,"phase":1,"sequence":9,"prices":[220,236,176,65,185,101,110,61,156,191],"times":[975,592,639,982],"next_num":4,"trial_type":"ticket-choose","trial_index":94,"time_elapsed":1388249,"internal_node_id":"0.0-94.0"},{"result":146,"points":1,"place":3,"phase":1,"sequence":10,"prices":[146,171,120,245,165,191,160,140,100,196],"times":[1624],"next_num":1,"trial_type":"ticket-choose","trial_index":95,"time_elapsed":1392656,"internal_node_id":"0.0-95.0"},{"result":75,"points":3,"place":0,"phase":1,"sequence":11,"prices":[75,171,131,151,161,250,145,190,206,156],"times":[1096],"next_num":1,"trial_type":"ticket-choose","trial_index":96,"time_elapsed":1396544,"internal_node_id":"0.0-96.0"},{"result":120,"points":2,"place":1,"phase":1,"sequence":12,"prices":[145,171,161,245,165,191,120,140,100,196],"times":[1665,598,600,590,694,591,1120],"next_num":7,"trial_type":"ticket-choose","trial_index":97,"time_elapsed":1405760,"internal_node_id":"0.0-97.0"},{"result":136,"points":3,"place":0,"phase":1,"sequence":13,"prices":[246,145,155,191,176,270,185,136,160,215],"times":[1070,911,592,622,615,622,677,975],"next_num":8,"trial_type":"ticket-choose","trial_index":98,"time_elapsed":1415888,"internal_node_id":"0.0-98.0"},{"result":131,"points":2,"place":1,"phase":1,"sequence":14,"prices":[156,181,131,256,176,200,171,151,111,206],"times":[1107,575,1565],"next_num":3,"trial_type":"ticket-choose","trial_index":99,"time_elapsed":1421696,"internal_node_id":"0.0-99.0"},{"result":95,"points":3,"place":0,"phase":1,"sequence":15,"prices":[95,205,106,151,186,271,145,210,215,181],"times":[1299],"next_num":1,"trial_type":"ticket-choose","trial_index":100,"time_elapsed":1425417,"internal_node_id":"0.0-100.0"},{"result":126,"points":2,"place":1,"phase":1,"sequence":16,"prices":[150,176,126,251,171,195,165,145,105,200],"times":[1279,535,974],"next_num":3,"trial_type":"ticket-choose","trial_index":101,"time_elapsed":1430560,"internal_node_id":"0.0-101.0"},{"result":130,"points":3,"place":0,"phase":1,"sequence":17,"prices":[185,175,276,221,130,141,171,216,235,165],"times":[1283,887,623,671,1103],"next_num":5,"trial_type":"ticket-choose","trial_index":102,"time_elapsed":1438320,"internal_node_id":"0.0-102.0"},{"result":86,"points":3,"place":0,"phase":1,"sequence":18,"prices":[86,180,130,151,170,271,145,191,220,160],"times":[1069],"next_num":1,"trial_type":"ticket-choose","trial_index":103,"time_elapsed":1441408,"internal_node_id":"0.0-103.0"},{"result":120,"points":2,"place":1,"phase":1,"sequence":19,"prices":[150,171,120,241,165,185,160,135,96,190],"times":[1836,542,1638],"next_num":3,"trial_type":"ticket-choose","trial_index":104,"time_elapsed":1447776,"internal_node_id":"0.0-104.0"},{"result":120,"points":3,"place":0,"phase":1,"sequence":20,"prices":[120,221,135,185,200,261,181,251,255,196],"times":[1402],"next_num":1,"trial_type":"ticket-choose","trial_index":105,"time_elapsed":1451280,"internal_node_id":"0.0-105.0"},{"result":81,"points":3,"place":0,"phase":1,"sequence":21,"prices":[155,245,155,81,180,130,156,306,166,115],"times":[1113,582,720,888],"next_num":4,"trial_type":"ticket-choose","trial_index":106,"time_elapsed":1457232,"internal_node_id":"0.0-106.0"},{"result":131,"points":2,"place":1,"phase":1,"sequence":22,"prices":[161,180,131,251,175,196,171,146,105,201],"times":[1145,575,951],"next_num":3,"trial_type":"ticket-choose","trial_index":107,"time_elapsed":1462184,"internal_node_id":"0.0-107.0"},{"result":30,"points":3,"place":0,"phase":1,"sequence":23,"prices":[155,30,101,55,136,276,70,181,200,261],"times":[996,886],"next_num":2,"trial_type":"ticket-choose","trial_index":108,"time_elapsed":1466161,"internal_node_id":"0.0-108.0"},{"result":150,"points":2,"place":1,"phase":1,"sequence":24,"prices":[181,156,145,165,236,231,201,260,150,185],"times":[778,1437,847,1575,591,582,813,942,958],"next_num":9,"trial_type":"ticket-choose","trial_index":109,"time_elapsed":1478432,"internal_node_id":"0.0-109.0"},{"result":120,"points":2,"place":1,"phase":1,"sequence":25,"prices":[186,156,191,120,195,145,45,130,246,176],"times":[1120,926,679,999],"next_num":4,"trial_type":"ticket-choose","trial_index":110,"time_elapsed":1484777,"internal_node_id":"0.0-110.0"},{"result":126,"points":2,"place":1,"phase":1,"sequence":26,"prices":[151,175,166,251,170,195,126,146,105,201],"times":[810,552,542,607,630,758,927],"next_num":7,"trial_type":"ticket-choose","trial_index":111,"time_elapsed":1493096,"internal_node_id":"0.0-111.0"},{"result":116,"points":3,"place":0,"phase":1,"sequence":27,"prices":[176,150,276,171,261,116,130,201,166,231],"times":[1010,870,590,599,605,912],"next_num":6,"trial_type":"ticket-choose","trial_index":112,"time_elapsed":1501000,"internal_node_id":"0.0-112.0"},{"result":125,"points":2,"place":1,"phase":1,"sequence":28,"prices":[155,175,166,245,171,190,125,140,101,196],"times":[1422,663,671,623,646,607,952],"next_num":7,"trial_type":"ticket-choose","trial_index":113,"time_elapsed":1510496,"internal_node_id":"0.0-113.0"},{"result":125,"points":2,"place":1,"phase":1,"sequence":29,"prices":[156,175,125,245,170,190,165,140,101,196],"times":[1080,575,942],"next_num":3,"trial_type":"ticket-choose","trial_index":114,"time_elapsed":1515503,"internal_node_id":"0.0-114.0"},{"result":111,"points":3,"place":0,"phase":1,"sequence":30,"prices":[175,211,266,286,111,216,220,245,230,165],"times":[863,590,591,583,935],"next_num":5,"trial_type":"ticket-choose","trial_index":115,"time_elapsed":1521856,"internal_node_id":"0.0-115.0"},{"result":130,"points":2,"place":1,"phase":1,"sequence":31,"prices":[160,180,130,251,176,195,170,146,105,200],"times":[1017,592,951],"next_num":3,"trial_type":"ticket-choose","trial_index":116,"time_elapsed":1526800,"internal_node_id":"0.0-116.0"},{"result":130,"points":2,"place":1,"phase":1,"sequence":32,"prices":[155,181,170,255,176,200,130,150,110,205],"times":[815,599,591,567,606,583,1223],"next_num":7,"trial_type":"ticket-choose","trial_index":117,"time_elapsed":1535032,"internal_node_id":"0.0-117.0"},{"result":66,"points":3,"place":0,"phase":1,"sequence":33,"prices":[66,201,96,150,185,230,121,216,225,165],"times":[1060],"next_num":1,"trial_type":"ticket-choose","trial_index":118,"time_elapsed":1538288,"internal_node_id":"0.0-118.0"},{"result":51,"points":3,"place":0,"phase":1,"sequence":34,"prices":[221,175,51,196,146,130,166,80,126,156],"times":[962,606,864],"next_num":3,"trial_type":"ticket-choose","trial_index":119,"time_elapsed":1542912,"internal_node_id":"0.0-119.0"},{"result":126,"points":2,"place":1,"phase":1,"sequence":35,"prices":[156,176,165,246,171,190,126,141,101,196],"times":[843,615,544,583,605,552,991],"next_num":7,"trial_type":"ticket-choose","trial_index":120,"time_elapsed":1550744,"internal_node_id":"0.0-120.0"},{"result":130,"points":3,"place":0,"phase":1,"sequence":36,"prices":[130,195,141,155,181,226,150,216,221,175],"times":[924],"next_num":1,"trial_type":"ticket-choose","trial_index":121,"time_elapsed":1553736,"internal_node_id":"0.0-121.0"},{"result":135,"points":3,"place":0,"phase":1,"sequence":37,"prices":[135,180,141,151,175,220,145,196,211,155],"times":[1317],"next_num":1,"trial_type":"ticket-choose","trial_index":122,"time_elapsed":1557191,"internal_node_id":"0.0-122.0"},{"result":136,"points":1,"place":2,"phase":1,"sequence":38,"prices":[255,166,266,175,136,145,155,61,96,301],"times":[880,711,567,568,927],"next_num":5,"trial_type":"ticket-choose","trial_index":123,"time_elapsed":1563471,"internal_node_id":"0.0-123.0"},{"result":126,"points":2,"place":1,"phase":1,"sequence":39,"prices":[150,175,166,251,170,196,126,145,105,201],"times":[1645,519,710,598,606,598,982],"next_num":7,"trial_type":"ticket-choose","trial_index":124,"time_elapsed":1572456,"internal_node_id":"0.0-124.0"},{"result":105,"points":3,"place":0,"phase":1,"sequence":40,"prices":[105,216,146,165,210,260,161,235,241,185],"times":[1087],"next_num":1,"trial_type":"ticket-choose","trial_index":125,"time_elapsed":1575768,"internal_node_id":"0.0-125.0"},{"result":130,"points":2,"place":1,"phase":1,"sequence":41,"prices":[156,181,130,255,175,200,170,150,111,205],"times":[1092,542,1270],"next_num":3,"trial_type":"ticket-choose","trial_index":126,"time_elapsed":1581143,"internal_node_id":"0.0-126.0"},{"result":111,"points":3,"place":0,"phase":1,"sequence":42,"prices":[111,231,131,146,171,295,141,241,271,150],"times":[1416],"next_num":1,"trial_type":"ticket-choose","trial_index":127,"time_elapsed":1584641,"internal_node_id":"0.0-127.0"},{"result":81,"points":3,"place":0,"phase":1,"sequence":43,"prices":[81,205,130,151,191,261,145,210,250,165],"times":[1031],"next_num":1,"trial_type":"ticket-choose","trial_index":128,"time_elapsed":1587832,"internal_node_id":"0.0-128.0"},{"result":125,"points":1,"place":2,"phase":1,"sequence":44,"prices":[226,205,125,120,115,135,180,145,150,220],"times":[901,543,902],"next_num":3,"trial_type":"ticket-choose","trial_index":129,"time_elapsed":1592544,"internal_node_id":"0.0-129.0"},{"result":131,"points":2,"place":1,"phase":1,"sequence":45,"prices":[160,180,170,251,176,195,131,146,105,200],"times":[1241,575,575,624,583,584,960],"next_num":7,"trial_type":"ticket-choose","trial_index":130,"time_elapsed":1600776,"internal_node_id":"0.0-130.0"},{"result":126,"points":2,"place":1,"phase":1,"sequence":46,"prices":[151,176,126,251,170,196,165,145,105,201],"times":[1165,559,949],"next_num":3,"trial_type":"ticket-choose","trial_index":131,"time_elapsed":1605647,"internal_node_id":"0.0-131.0"},{"result":121,"points":2,"place":1,"phase":1,"sequence":47,"prices":[150,171,121,241,165,185,160,136,95,191],"times":[877,568,1462],"next_num":3,"trial_type":"ticket-choose","trial_index":132,"time_elapsed":1611488,"internal_node_id":"0.0-132.0"},{"result":126,"points":2,"place":1,"phase":1,"sequence":48,"prices":[156,175,126,246,170,190,165,140,100,196],"times":[842,646,1128],"next_num":3,"trial_type":"ticket-choose","trial_index":133,"time_elapsed":1616312,"internal_node_id":"0.0-133.0"},{"result":106,"points":3,"place":0,"phase":1,"sequence":49,"prices":[180,106,166,245,211,261,215,125,135,190],"times":[1001,839],"next_num":2,"trial_type":"ticket-choose","trial_index":134,"time_elapsed":1621464,"internal_node_id":"0.0-134.0"},{"responses":[{"value":1,"offby":0,"category":"$30 - $75","category_index":0},{"value":3,"offby":1,"category":"$76 - $120","category_index":1},{"value":5,"offby":1,"category":"$121 - $165","category_index":2},{"value":6,"offby":0,"category":"$166 - $210","category_index":3},{"value":5,"offby":-1,"category":"$211 - $255","category_index":4},{"value":0,"offby":-1,"category":"$256 - $300","category_index":5},{"value":0,"offby":0,"category":"$301 - $345","category_index":6}],"phase":1,"number":1,"trial_type":"bar-choose","trial_index":135,"time_elapsed":1680305,"internal_node_id":"0.0-135.0"},{"special_comment":"No,not really.","trial_type":"special_sequence","trial_index":136,"time_elapsed":1702183,"internal_node_id":"0.0-136.0"},{"during":"Nothing","bonus":300,"trial_type":"final","trial_index":137,"time_elapsed":1730072,"internal_node_id":"0.0-137.0"}],"bonus":300}