{"start_time":"2017-02-24 16:22:50","end_time":"2017-02-24 16:51:58","points_phase0":121,"points_phase1":112,"phase_order":0,"age":57,"gender":"f","tries":1,"during":"Nothing","worker_id":"A3D1VTLX623K6I","assignment_id":"3LEP4MGT3HTORPECCSYBXDWU23HBD0","data":[{"rt":14633,"url":"\/tickets\/utils\/consent.html","trial_type":"html","trial_index":0,"time_elapsed":14887,"internal_node_id":"0.0-0.0"},{"age":57,"gender":"f","trial_type":"age","trial_index":1,"time_elapsed":22300,"internal_node_id":"0.0-1.0"},{"worker_id":"A3D1VTLX623K6I","trial_type":"workerid","trial_index":2,"time_elapsed":37837,"internal_node_id":"0.0-2.0"},{"tries":1,"trial_type":"instructions_check","trial_index":3,"time_elapsed":70005,"internal_node_id":"0.0-3.0"},{"rt":10226,"url":"\/tickets\/utils\/start.html","trial_type":"html","trial_index":4,"time_elapsed":81346,"internal_node_id":"0.0-4.0"},{"trial_type":"number-animation","trial_index":5,"time_elapsed":91193,"internal_node_id":"0.0-5.0"},{"phase":0,"sequence":0,"avg":180,"response":177,"trial_type":"training_avg","trial_index":6,"time_elapsed":102203,"internal_node_id":"0.0-6.0"},{"trial_type":"number-animation","trial_index":7,"time_elapsed":111659,"internal_node_id":"0.0-7.0"},{"phase":0,"sequence":1,"avg":178,"response":177,"trial_type":"training_avg","trial_index":8,"time_elapsed":120012,"internal_node_id":"0.0-8.0"},{"trial_type":"number-animation","trial_index":9,"time_elapsed":130919,"internal_node_id":"0.0-9.0"},{"phase":0,"sequence":2,"avg":176,"response":172,"trial_type":"training_avg","trial_index":10,"time_elapsed":138476,"internal_node_id":"0.0-10.0"},{"trial_type":"number-animation","trial_index":11,"time_elapsed":148512,"internal_node_id":"0.0-11.0"},{"phase":0,"sequence":3,"avg":178,"response":177,"trial_type":"training_avg","trial_index":12,"time_elapsed":157268,"internal_node_id":"0.0-12.0"},{"trial_type":"number-animation","trial_index":13,"time_elapsed":167100,"internal_node_id":"0.0-13.0"},{"phase":0,"sequence":4,"avg":179,"response":177,"trial_type":"training_avg","trial_index":14,"time_elapsed":174757,"internal_node_id":"0.0-14.0"},{"responses":[{"value":0,"offby":0,"category":"$140 - $250","category_index":0},{"value":0,"offby":0,"category":"$151 - $160","category_index":1},{"value":4,"offby":0,"category":"$161 - $170","category_index":2},{"value":12,"offby":6,"category":"$171 - $180","category_index":3},{"value":4,"offby":-3,"category":"$181 - $190","category_index":4},{"value":0,"offby":-3,"category":"$191 - $200","category_index":5},{"value":0,"offby":0,"category":"$201 - $210","category_index":6}],"phase":0,"number":0,"trial_type":"bar-choose","trial_index":15,"time_elapsed":229510,"internal_node_id":"0.0-15.0"},{"rt":13054,"url":"\/tickets\/\/utils\/testing.html","trial_type":"html","trial_index":16,"time_elapsed":243691,"internal_node_id":"0.0-16.0"},{"phase":0,"order":[21,28,49,18,13,30,46,40,39,29,17,7,19,27,34,24,22,9,16,10,23,4,44,20,41,12,5,0,25,37,1,36,43,3,45,8,14,47,2,11,35,33,6,48,38,42,15,31,26,32],"trial_type":"store_order","trial_index":17,"time_elapsed":244694,"internal_node_id":"0.0-17.0"},{"result":165,"points":2,"place":1,"phase":0,"sequence":-1,"prices":[184,180,224,165,181,199,185,193,218,126],"times":[2320,677,1089,3339],"next_num":4,"trial_type":"ticket-choose","trial_index":18,"time_elapsed":255803,"internal_node_id":"0.0-18.0"},{"rt":161319,"url":"\/tickets\/utils\/testing_after.html","trial_type":"html","trial_index":19,"time_elapsed":418238,"internal_node_id":"0.0-19.0"},{"result":168,"points":2,"place":1,"phase":0,"sequence":0,"prices":[174,178,176,192,177,181,168,171,163,182],"times":[2536,1596,1068,1744,1252,1037,8125],"next_num":7,"trial_type":"ticket-choose","trial_index":20,"time_elapsed":440562,"internal_node_id":"0.0-20.0"},{"result":159,"points":3,"place":0,"phase":0,"sequence":1,"prices":[159,178,170,174,176,194,173,182,185,175],"times":[2671],"next_num":1,"trial_type":"ticket-choose","trial_index":21,"time_elapsed":446621,"internal_node_id":"0.0-21.0"},{"result":175,"points":1,"place":2,"phase":0,"sequence":2,"prices":[175,189,193,170,179,165,180,186,177,184],"times":[8473],"next_num":1,"trial_type":"ticket-choose","trial_index":22,"time_elapsed":458373,"internal_node_id":"0.0-22.0"},{"result":164,"points":3,"place":0,"phase":0,"sequence":3,"prices":[173,178,168,193,177,182,176,172,164,183],"times":[2691,810,1453,989,672,757,764,852,1326],"next_num":9,"trial_type":"ticket-choose","trial_index":23,"time_elapsed":473754,"internal_node_id":"0.0-23.0"},{"result":165,"points":3,"place":0,"phase":0,"sequence":4,"prices":[176,180,178,194,179,183,170,173,165,184],"times":[2990,762,751,793,749,760,769,806,1463],"next_num":9,"trial_type":"ticket-choose","trial_index":24,"time_elapsed":488426,"internal_node_id":"0.0-24.0"},{"result":160,"points":3,"place":0,"phase":0,"sequence":5,"prices":[160,185,170,174,182,196,173,186,194,177],"times":[4348],"next_num":1,"trial_type":"ticket-choose","trial_index":25,"time_elapsed":495585,"internal_node_id":"0.0-25.0"},{"result":166,"points":3,"place":0,"phase":0,"sequence":6,"prices":[179,186,197,201,166,187,188,193,190,177],"times":[1737,717,645,679,4019],"next_num":5,"trial_type":"ticket-choose","trial_index":26,"time_elapsed":507451,"internal_node_id":"0.0-26.0"},{"result":167,"points":3,"place":0,"phase":0,"sequence":7,"prices":[179,174,199,178,196,167,170,184,177,190],"times":[1155,702,619,677,678,6437],"next_num":6,"trial_type":"ticket-choose","trial_index":27,"time_elapsed":521715,"internal_node_id":"0.0-27.0"},{"result":156,"points":3,"place":0,"phase":0,"sequence":8,"prices":[195,177,197,179,171,173,175,156,163,204],"times":[1121,698,716,646,679,779,1115,1582],"next_num":8,"trial_type":"ticket-choose","trial_index":28,"time_elapsed":533352,"internal_node_id":"0.0-28.0"},{"result":166,"points":3,"place":0,"phase":0,"sequence":9,"prices":[166,190,170,173,178,203,172,192,198,174],"times":[1970],"next_num":1,"trial_type":"ticket-choose","trial_index":29,"time_elapsed":537978,"internal_node_id":"0.0-29.0"},{"result":163,"points":3,"place":0,"phase":0,"sequence":10,"prices":[174,178,168,192,177,181,176,171,163,182],"times":[1508,733,4857,882,676,742,673,629,1415],"next_num":9,"trial_type":"ticket-choose","trial_index":30,"time_elapsed":554636,"internal_node_id":"0.0-30.0"},{"result":169,"points":2,"place":1,"phase":0,"sequence":11,"prices":[174,179,177,194,178,183,169,173,165,184],"times":[1695,630,680,768,650,721,2942],"next_num":7,"trial_type":"ticket-choose","trial_index":31,"time_elapsed":566691,"internal_node_id":"0.0-31.0"},{"result":164,"points":3,"place":0,"phase":0,"sequence":12,"prices":[173,178,168,193,177,182,176,172,164,183],"times":[1206,540,4094,685,527,570,414,682,1413],"next_num":9,"trial_type":"ticket-choose","trial_index":32,"time_elapsed":581381,"internal_node_id":"0.0-32.0"},{"result":183,"points":1,"place":4,"phase":0,"sequence":13,"prices":[168,188,171,181,184,196,180,194,195,183],"times":[63141,706,584,671,782,868,772,780,830,3197],"next_num":10,"trial_type":"ticket-choose","trial_index":33,"time_elapsed":658643,"internal_node_id":"0.0-33.0"},{"result":165,"points":2,"place":1,"phase":0,"sequence":14,"prices":[181,180,191,186,165,197,159,167,194,185],"times":[1490,618,666,612,1453],"next_num":5,"trial_type":"ticket-choose","trial_index":34,"time_elapsed":668972,"internal_node_id":"0.0-34.0"},{"result":161,"points":3,"place":0,"phase":0,"sequence":15,"prices":[161,180,170,174,178,198,173,182,188,176],"times":[1250],"next_num":1,"trial_type":"ticket-choose","trial_index":35,"time_elapsed":672715,"internal_node_id":"0.0-35.0"},{"result":168,"points":2,"place":1,"phase":0,"sequence":16,"prices":[173,178,176,193,177,182,168,172,164,183],"times":[1325,13602,695,698,680,1047,2220],"next_num":7,"trial_type":"ticket-choose","trial_index":36,"time_elapsed":696834,"internal_node_id":"0.0-36.0"},{"result":165,"points":3,"place":0,"phase":0,"sequence":17,"prices":[176,180,170,194,179,183,178,173,165,184],"times":[2397,698,624,581,630,741,743,661,1317],"next_num":9,"trial_type":"ticket-choose","trial_index":37,"time_elapsed":709912,"internal_node_id":"0.0-37.0"},{"result":168,"points":2,"place":1,"phase":0,"sequence":18,"prices":[174,178,168,192,177,181,176,171,163,182],"times":[1683,582,6445],"next_num":3,"trial_type":"ticket-choose","trial_index":38,"time_elapsed":721572,"internal_node_id":"0.0-38.0"},{"result":166,"points":3,"place":0,"phase":0,"sequence":19,"prices":[175,180,170,195,179,184,178,174,166,185],"times":[1620,628,606,641,628,637,722,624,1318],"next_num":9,"trial_type":"ticket-choose","trial_index":39,"time_elapsed":733290,"internal_node_id":"0.0-39.0"},{"result":168,"points":2,"place":1,"phase":0,"sequence":20,"prices":[173,178,176,193,177,182,168,172,164,183],"times":[1226,608,563,667,487,592,2864],"next_num":7,"trial_type":"ticket-choose","trial_index":40,"time_elapsed":744066,"internal_node_id":"0.0-40.0"},{"result":164,"points":3,"place":0,"phase":0,"sequence":21,"prices":[175,179,177,193,178,182,169,172,164,183],"times":[1214,669,484,717,597,734,1628,627,1277],"next_num":9,"trial_type":"ticket-choose","trial_index":41,"time_elapsed":756508,"internal_node_id":"0.0-41.0"},{"result":164,"points":1,"place":3,"phase":0,"sequence":22,"prices":[175,150,164,155,171,199,158,180,184,196],"times":[1312,604,2436],"next_num":3,"trial_type":"ticket-choose","trial_index":42,"time_elapsed":764323,"internal_node_id":"0.0-42.0"},{"result":168,"points":2,"place":1,"phase":0,"sequence":23,"prices":[174,178,176,192,177,181,168,171,163,182],"times":[1496,752,828,697,701,1254,1579],"next_num":7,"trial_type":"ticket-choose","trial_index":43,"time_elapsed":775378,"internal_node_id":"0.0-43.0"},{"result":165,"points":3,"place":0,"phase":0,"sequence":24,"prices":[180,165,177,193,186,196,187,169,171,182],"times":[1193,1243],"next_num":2,"trial_type":"ticket-choose","trial_index":44,"time_elapsed":780555,"internal_node_id":"0.0-44.0"},{"result":165,"points":3,"place":0,"phase":0,"sequence":25,"prices":[176,180,178,194,179,183,170,173,165,184],"times":[2820,684,620,649,613,651,613,1205,1206],"next_num":9,"trial_type":"ticket-choose","trial_index":45,"time_elapsed":793755,"internal_node_id":"0.0-45.0"},{"result":164,"points":3,"place":0,"phase":0,"sequence":26,"prices":[175,179,177,193,178,182,169,172,164,183],"times":[979,697,740,709,675,685,1538,704,1283],"next_num":9,"trial_type":"ticket-choose","trial_index":46,"time_elapsed":806218,"internal_node_id":"0.0-46.0"},{"result":164,"points":3,"place":0,"phase":0,"sequence":27,"prices":[175,179,169,193,178,182,177,172,164,183],"times":[1513,594,1509,665,581,636,629,716,1317],"next_num":9,"trial_type":"ticket-choose","trial_index":47,"time_elapsed":818594,"internal_node_id":"0.0-47.0"},{"result":163,"points":3,"place":0,"phase":0,"sequence":28,"prices":[163,185,165,174,181,198,173,186,187,180],"times":[1556],"next_num":1,"trial_type":"ticket-choose","trial_index":48,"time_elapsed":822570,"internal_node_id":"0.0-48.0"},{"result":153,"points":3,"place":0,"phase":0,"sequence":29,"prices":[181,175,182,168,183,173,153,170,193,179],"times":[1259,621,651,3529,716,644,1325],"next_num":7,"trial_type":"ticket-choose","trial_index":49,"time_elapsed":835346,"internal_node_id":"0.0-49.0"},{"result":164,"points":3,"place":0,"phase":0,"sequence":30,"prices":[175,179,169,193,178,182,177,172,164,183],"times":[1652,621,1364,652,661,716,898,684,1147],"next_num":9,"trial_type":"ticket-choose","trial_index":50,"time_elapsed":848106,"internal_node_id":"0.0-50.0"},{"result":167,"points":3,"place":0,"phase":0,"sequence":31,"prices":[189,185,169,168,167,171,180,173,174,188],"times":[1282,709,1124,507,2860],"next_num":5,"trial_type":"ticket-choose","trial_index":51,"time_elapsed":858226,"internal_node_id":"0.0-51.0"},{"result":157,"points":2,"place":1,"phase":0,"sequence":32,"prices":[188,191,179,157,181,164,166,156,175,182],"times":[1238,579,875,1292],"next_num":4,"trial_type":"ticket-choose","trial_index":52,"time_elapsed":865635,"internal_node_id":"0.0-52.0"},{"result":165,"points":3,"place":0,"phase":0,"sequence":33,"prices":[174,179,169,194,178,183,177,173,165,184],"times":[1092,658,1285,817,722,726,700,710,1524],"next_num":9,"trial_type":"ticket-choose","trial_index":53,"time_elapsed":878010,"internal_node_id":"0.0-53.0"},{"result":162,"points":3,"place":0,"phase":0,"sequence":34,"prices":[179,174,172,162,202,184,165,197,185,169],"times":[1283,610,683,1690],"next_num":4,"trial_type":"ticket-choose","trial_index":54,"time_elapsed":885442,"internal_node_id":"0.0-54.0"},{"result":165,"points":3,"place":0,"phase":0,"sequence":35,"prices":[176,180,170,194,179,183,178,173,165,184],"times":[1016,721,2125,787,684,760,701,824,1378],"next_num":9,"trial_type":"ticket-choose","trial_index":55,"time_elapsed":898819,"internal_node_id":"0.0-55.0"},{"result":166,"points":3,"place":0,"phase":0,"sequence":36,"prices":[175,180,178,195,179,184,170,174,166,185],"times":[1577,833,681,811,756,840,1395,946,1275],"next_num":9,"trial_type":"ticket-choose","trial_index":56,"time_elapsed":912290,"internal_node_id":"0.0-56.0"},{"result":181,"points":0,"place":5,"phase":0,"sequence":37,"prices":[180,175,173,177,191,190,184,196,174,181],"times":[1443,848,894,812,1057,721,707,1429,1046,1919],"next_num":11,"trial_type":"ticket-choose","trial_index":57,"time_elapsed":930683,"internal_node_id":"0.0-57.0"},{"result":165,"points":3,"place":0,"phase":0,"sequence":38,"prices":[174,179,169,194,178,183,177,173,165,184],"times":[2358,685,1565,709,708,687,776,739,1206],"next_num":9,"trial_type":"ticket-choose","trial_index":58,"time_elapsed":944788,"internal_node_id":"0.0-58.0"},{"result":166,"points":3,"place":0,"phase":0,"sequence":39,"prices":[175,180,170,195,179,184,178,174,166,185],"times":[1338,623,555,536,557,524,789,1041,1250],"next_num":9,"trial_type":"ticket-choose","trial_index":59,"time_elapsed":956091,"internal_node_id":"0.0-59.0"},{"result":160,"points":2,"place":1,"phase":0,"sequence":40,"prices":[188,179,154,183,173,170,177,160,169,175],"times":[1403,644,634,2362,677,778,668,1044],"next_num":8,"trial_type":"ticket-choose","trial_index":60,"time_elapsed":968210,"internal_node_id":"0.0-60.0"},{"result":179,"points":1,"place":4,"phase":0,"sequence":41,"prices":[170,183,172,175,180,189,174,187,188,179],"times":[1082,717,716,761,880,769,737,990,983,2652],"next_num":10,"trial_type":"ticket-choose","trial_index":61,"time_elapsed":983010,"internal_node_id":"0.0-61.0"},{"result":169,"points":2,"place":1,"phase":0,"sequence":42,"prices":[174,179,177,194,178,183,169,173,165,184],"times":[1488,709,733,1092,743,765,1270],"next_num":7,"trial_type":"ticket-choose","trial_index":62,"time_elapsed":993477,"internal_node_id":"0.0-62.0"},{"result":187,"points":0,"place":7,"phase":0,"sequence":43,"prices":[193,173,175,182,179,198,181,171,176,187],"times":[1123,675,797,675,678,701,963,920,1117,1411],"next_num":10,"trial_type":"ticket-choose","trial_index":63,"time_elapsed":1007401,"internal_node_id":"0.0-63.0"},{"result":177,"points":1,"place":2,"phase":0,"sequence":44,"prices":[181,179,199,188,170,172,178,187,191,177],"times":[1577,845,868,1117,2420,908,1341,941,894,1433],"next_num":10,"trial_type":"ticket-choose","trial_index":64,"time_elapsed":1024602,"internal_node_id":"0.0-64.0"},{"result":160,"points":3,"place":0,"phase":0,"sequence":45,"prices":[175,193,175,160,180,170,175,205,177,167],"times":[1278,859,838,1435],"next_num":4,"trial_type":"ticket-choose","trial_index":65,"time_elapsed":1032363,"internal_node_id":"0.0-65.0"},{"result":170,"points":2,"place":1,"phase":0,"sequence":46,"prices":[175,180,178,195,179,184,170,174,166,185],"times":[1448,783,970,1020,1036,1044,2501],"next_num":7,"trial_type":"ticket-choose","trial_index":66,"time_elapsed":1044980,"internal_node_id":"0.0-66.0"},{"result":157,"points":3,"place":0,"phase":0,"sequence":47,"prices":[157,184,163,174,181,190,168,187,189,177],"times":[1595],"next_num":1,"trial_type":"ticket-choose","trial_index":67,"time_elapsed":1049099,"internal_node_id":"0.0-67.0"},{"result":165,"points":3,"place":0,"phase":0,"sequence":48,"prices":[165,187,173,177,186,196,176,191,192,181],"times":[1467],"next_num":1,"trial_type":"ticket-choose","trial_index":68,"time_elapsed":1052890,"internal_node_id":"0.0-68.0"},{"result":173,"points":1,"place":2,"phase":0,"sequence":49,"prices":[171,180,172,174,179,188,173,183,186,175],"times":[1618,887,1106,943,980,1075,2567],"next_num":7,"trial_type":"ticket-choose","trial_index":69,"time_elapsed":1065837,"internal_node_id":"0.0-69.0"},{"responses":[{"value":0,"offby":0,"category":"$140 - $250","category_index":0},{"value":0,"offby":0,"category":"$151 - $160","category_index":1},{"value":6,"offby":2,"category":"$161 - $170","category_index":2},{"value":8,"offby":2,"category":"$171 - $180","category_index":3},{"value":4,"offby":-3,"category":"$181 - $190","category_index":4},{"value":2,"offby":-1,"category":"$191 - $200","category_index":5},{"value":0,"offby":0,"category":"$201 - $210","category_index":6}],"phase":0,"number":1,"trial_type":"bar-choose","trial_index":70,"time_elapsed":1126872,"internal_node_id":"0.0-70.0"},{"rt":10995,"url":"\/tickets\/utils\/start2.html","trial_type":"html","trial_index":71,"time_elapsed":1138988,"internal_node_id":"0.0-71.0"},{"trial_type":"number-animation","trial_index":72,"time_elapsed":1161740,"internal_node_id":"0.0-72.0"},{"phase":1,"sequence":0,"avg":166,"response":169,"trial_type":"training_avg","trial_index":73,"time_elapsed":1173042,"internal_node_id":"0.0-73.0"},{"trial_type":"number-animation","trial_index":74,"time_elapsed":1194642,"internal_node_id":"0.0-74.0"},{"phase":1,"sequence":1,"avg":198,"response":190,"trial_type":"training_avg","trial_index":75,"time_elapsed":1206332,"internal_node_id":"0.0-75.0"},{"trial_type":"number-animation","trial_index":76,"time_elapsed":1230092,"internal_node_id":"0.0-76.0"},{"phase":1,"sequence":2,"avg":177,"response":165,"trial_type":"training_avg","trial_index":77,"time_elapsed":1244366,"internal_node_id":"0.0-77.0"},{"trial_type":"number-animation","trial_index":78,"time_elapsed":1252258,"internal_node_id":"0.0-78.0"},{"phase":1,"sequence":3,"avg":190,"response":166,"trial_type":"training_avg","trial_index":79,"time_elapsed":1259925,"internal_node_id":"0.0-79.0"},{"trial_type":"number-animation","trial_index":80,"time_elapsed":1266634,"internal_node_id":"0.0-80.0"},{"phase":1,"sequence":4,"avg":201,"response":190,"trial_type":"training_avg","trial_index":81,"time_elapsed":1274171,"internal_node_id":"0.0-81.0"},{"responses":[{"value":1,"offby":0,"category":"$30 - $75","category_index":0},{"value":3,"offby":1,"category":"$76 - $120","category_index":1},{"value":3,"offby":-1,"category":"$121 - $165","category_index":2},{"value":10,"offby":4,"category":"$166 - $210","category_index":3},{"value":3,"offby":-3,"category":"$211 - $255","category_index":4},{"value":0,"offby":-1,"category":"$256 - $300","category_index":5},{"value":0,"offby":0,"category":"$301 - $345","category_index":6}],"phase":1,"number":0,"trial_type":"bar-choose","trial_index":82,"time_elapsed":1303484,"internal_node_id":"0.0-82.0"},{"rt":7558,"url":"\/tickets\/utils\/testing2.html","trial_type":"html","trial_index":83,"time_elapsed":1312171,"internal_node_id":"0.0-83.0"},{"phase":1,"order":[44,12,41,22,38,32,14,46,15,6,7,18,25,26,49,9,36,16,11,3,43,39,33,2,30,1,23,8,37,29,45,35,13,28,10,34,40,4,17,31,42,19,24,21,27,47,0,48,20,5],"trial_type":"store_order","trial_index":84,"time_elapsed":1313176,"internal_node_id":"0.0-84.0"},{"result":155,"points":0,"place":5,"phase":1,"sequence":0,"prices":[155,30,101,55,136,276,70,181,200,261],"times":[3053],"next_num":1,"trial_type":"ticket-choose","trial_index":85,"time_elapsed":1318452,"internal_node_id":"0.0-85.0"},{"result":105,"points":3,"place":0,"phase":1,"sequence":1,"prices":[161,180,171,250,176,195,131,146,105,201],"times":[1715,236,612,367,383,393,381,1217,1126],"next_num":9,"trial_type":"ticket-choose","trial_index":86,"time_elapsed":1328940,"internal_node_id":"0.0-86.0"},{"result":190,"points":0,"place":5,"phase":1,"sequence":2,"prices":[180,106,166,245,211,261,215,125,135,190],"times":[950,452,786,580,468,677,414,335,874,637],"next_num":11,"trial_type":"ticket-choose","trial_index":87,"time_elapsed":1339275,"internal_node_id":"0.0-87.0"},{"result":140,"points":1,"place":2,"phase":1,"sequence":3,"prices":[145,171,161,245,165,191,120,140,100,196],"times":[1771,478,435,502,768,503,503,998],"next_num":8,"trial_type":"ticket-choose","trial_index":88,"time_elapsed":1349060,"internal_node_id":"0.0-88.0"},{"result":130,"points":3,"place":0,"phase":1,"sequence":4,"prices":[185,175,276,221,130,141,171,216,235,165],"times":[1552,406,474,455,898],"next_num":5,"trial_type":"ticket-choose","trial_index":89,"time_elapsed":1355811,"internal_node_id":"0.0-89.0"},{"result":135,"points":3,"place":0,"phase":1,"sequence":5,"prices":[135,180,141,151,175,220,145,196,211,155],"times":[1032],"next_num":1,"trial_type":"ticket-choose","trial_index":90,"time_elapsed":1358914,"internal_node_id":"0.0-90.0"},{"result":155,"points":1,"place":3,"phase":1,"sequence":6,"prices":[155,181,170,255,176,200,130,150,110,205],"times":[1036],"next_num":1,"trial_type":"ticket-choose","trial_index":91,"time_elapsed":1362171,"internal_node_id":"0.0-91.0"},{"result":111,"points":3,"place":0,"phase":1,"sequence":7,"prices":[175,211,266,286,111,216,220,245,230,165],"times":[1913,510,385,425,1024],"next_num":5,"trial_type":"ticket-choose","trial_index":92,"time_elapsed":1369261,"internal_node_id":"0.0-92.0"},{"result":156,"points":1,"place":3,"phase":1,"sequence":8,"prices":[156,181,171,256,175,200,131,150,110,206],"times":[1649],"next_num":1,"trial_type":"ticket-choose","trial_index":93,"time_elapsed":1373228,"internal_node_id":"0.0-93.0"},{"result":150,"points":1,"place":3,"phase":1,"sequence":9,"prices":[150,175,166,251,170,196,126,145,105,201],"times":[1022],"next_num":1,"trial_type":"ticket-choose","trial_index":94,"time_elapsed":1376546,"internal_node_id":"0.0-94.0"},{"result":151,"points":1,"place":3,"phase":1,"sequence":10,"prices":[151,175,166,251,170,195,126,146,105,201],"times":[1055],"next_num":1,"trial_type":"ticket-choose","trial_index":95,"time_elapsed":1379691,"internal_node_id":"0.0-95.0"},{"result":146,"points":1,"place":3,"phase":1,"sequence":11,"prices":[146,171,120,245,165,191,160,140,100,196],"times":[1042],"next_num":1,"trial_type":"ticket-choose","trial_index":96,"time_elapsed":1383003,"internal_node_id":"0.0-96.0"},{"result":95,"points":3,"place":0,"phase":1,"sequence":12,"prices":[95,205,106,151,186,271,145,210,215,181],"times":[1295],"next_num":1,"trial_type":"ticket-choose","trial_index":97,"time_elapsed":1386819,"internal_node_id":"0.0-97.0"},{"result":105,"points":3,"place":0,"phase":1,"sequence":13,"prices":[105,216,146,165,210,260,161,235,241,185],"times":[1370],"next_num":1,"trial_type":"ticket-choose","trial_index":98,"time_elapsed":1390883,"internal_node_id":"0.0-98.0"},{"result":106,"points":3,"place":0,"phase":1,"sequence":14,"prices":[155,225,245,130,176,106,180,211,165,200],"times":[3579,600,437,363,661,964],"next_num":6,"trial_type":"ticket-choose","trial_index":99,"time_elapsed":1400699,"internal_node_id":"0.0-99.0"},{"result":200,"points":0,"place":8,"phase":1,"sequence":15,"prices":[160,180,130,251,176,195,170,146,105,200],"times":[1280,573,445,642,466,568,608,624,758,1672],"next_num":11,"trial_type":"ticket-choose","trial_index":100,"time_elapsed":1412437,"internal_node_id":"0.0-100.0"},{"result":120,"points":2,"place":1,"phase":1,"sequence":16,"prices":[226,205,125,120,115,135,180,145,150,220],"times":[1840,724,333,923],"next_num":4,"trial_type":"ticket-choose","trial_index":101,"time_elapsed":1418907,"internal_node_id":"0.0-101.0"},{"result":136,"points":1,"place":2,"phase":1,"sequence":17,"prices":[150,171,121,241,165,185,160,136,95,191],"times":[1589,497,506,602,749,480,666,1429],"next_num":8,"trial_type":"ticket-choose","trial_index":102,"time_elapsed":1429208,"internal_node_id":"0.0-102.0"},{"result":111,"points":3,"place":0,"phase":1,"sequence":18,"prices":[156,181,130,255,175,200,170,150,111,205],"times":[1768,518,470,588,584,764,531,791,1153],"next_num":9,"trial_type":"ticket-choose","trial_index":103,"time_elapsed":1440532,"internal_node_id":"0.0-103.0"},{"result":105,"points":3,"place":0,"phase":1,"sequence":19,"prices":[150,176,126,251,171,195,165,145,105,200],"times":[2155,1086,442,533,523,547,488,500,1048],"next_num":9,"trial_type":"ticket-choose","trial_index":104,"time_elapsed":1451576,"internal_node_id":"0.0-104.0"},{"result":65,"points":2,"place":1,"phase":1,"sequence":20,"prices":[220,236,176,65,185,101,110,61,156,191],"times":[1302,352,490,887],"next_num":4,"trial_type":"ticket-choose","trial_index":105,"time_elapsed":1457325,"internal_node_id":"0.0-105.0"},{"result":61,"points":3,"place":0,"phase":1,"sequence":21,"prices":[255,166,266,175,136,145,155,61,96,301],"times":[1531,457,451,539,447,511,504,1239],"next_num":8,"trial_type":"ticket-choose","trial_index":106,"time_elapsed":1466475,"internal_node_id":"0.0-106.0"},{"result":175,"points":1,"place":4,"phase":1,"sequence":22,"prices":[130,195,141,155,181,226,150,216,221,175],"times":[865,552,1057,546,548,546,600,507,482,499],"next_num":11,"trial_type":"ticket-choose","trial_index":107,"time_elapsed":1476876,"internal_node_id":"0.0-107.0"},{"result":105,"points":3,"place":0,"phase":1,"sequence":23,"prices":[151,176,126,251,170,196,165,145,105,201],"times":[1105,635,500,533,523,430,590,525,1092],"next_num":9,"trial_type":"ticket-choose","trial_index":108,"time_elapsed":1486550,"internal_node_id":"0.0-108.0"},{"result":81,"points":3,"place":0,"phase":1,"sequence":24,"prices":[81,205,130,151,191,261,145,210,250,165],"times":[1360],"next_num":1,"trial_type":"ticket-choose","trial_index":109,"time_elapsed":1490603,"internal_node_id":"0.0-109.0"},{"result":101,"points":3,"place":0,"phase":1,"sequence":25,"prices":[156,175,125,245,170,190,165,140,101,196],"times":[5064,382,455,522,528,431,437,646,790],"next_num":9,"trial_type":"ticket-choose","trial_index":110,"time_elapsed":1503800,"internal_node_id":"0.0-110.0"},{"result":100,"points":3,"place":0,"phase":1,"sequence":26,"prices":[145,170,160,245,165,190,120,141,100,195],"times":[721,486,369,506,628,546,502,509,1106],"next_num":9,"trial_type":"ticket-choose","trial_index":111,"time_elapsed":1513163,"internal_node_id":"0.0-111.0"},{"result":105,"points":3,"place":0,"phase":1,"sequence":27,"prices":[161,180,131,251,175,196,171,146,105,201],"times":[1488,444,363,475,502,444,490,517,977],"next_num":9,"trial_type":"ticket-choose","trial_index":112,"time_elapsed":1522747,"internal_node_id":"0.0-112.0"},{"result":45,"points":3,"place":0,"phase":1,"sequence":28,"prices":[186,156,191,120,195,145,45,130,246,176],"times":[700,282,461,408,444,542,1045],"next_num":7,"trial_type":"ticket-choose","trial_index":113,"time_elapsed":1530110,"internal_node_id":"0.0-113.0"},{"result":111,"points":3,"place":0,"phase":1,"sequence":29,"prices":[111,231,131,146,171,295,141,241,271,150],"times":[1575],"next_num":1,"trial_type":"ticket-choose","trial_index":114,"time_elapsed":1534058,"internal_node_id":"0.0-114.0"},{"result":91,"points":3,"place":0,"phase":1,"sequence":30,"prices":[176,150,141,91,290,201,106,266,206,126],"times":[969,401,491,1067],"next_num":4,"trial_type":"ticket-choose","trial_index":115,"time_elapsed":1539730,"internal_node_id":"0.0-115.0"},{"result":51,"points":3,"place":0,"phase":1,"sequence":31,"prices":[221,175,51,196,146,130,166,80,126,156],"times":[923,458,1204],"next_num":3,"trial_type":"ticket-choose","trial_index":116,"time_elapsed":1545346,"internal_node_id":"0.0-116.0"},{"result":105,"points":3,"place":0,"phase":1,"sequence":32,"prices":[160,180,170,251,176,195,131,146,105,200],"times":[745,434,520,545,581,451,472,586,1104],"next_num":9,"trial_type":"ticket-choose","trial_index":117,"time_elapsed":1554820,"internal_node_id":"0.0-117.0"},{"result":75,"points":3,"place":0,"phase":1,"sequence":33,"prices":[75,171,131,151,161,250,145,190,206,156],"times":[1505],"next_num":1,"trial_type":"ticket-choose","trial_index":118,"time_elapsed":1558787,"internal_node_id":"0.0-118.0"},{"result":206,"points":0,"place":8,"phase":1,"sequence":34,"prices":[156,181,131,256,176,200,171,151,111,206],"times":[690,355,361,511,470,607,544,488,767,746],"next_num":11,"trial_type":"ticket-choose","trial_index":119,"time_elapsed":1568406,"internal_node_id":"0.0-119.0"},{"result":76,"points":3,"place":0,"phase":1,"sequence":35,"prices":[185,180,235,210,106,266,76,115,250,205],"times":[728,373,365,525,526,530,1251],"next_num":7,"trial_type":"ticket-choose","trial_index":120,"time_elapsed":1576147,"internal_node_id":"0.0-120.0"},{"result":116,"points":3,"place":0,"phase":1,"sequence":36,"prices":[176,150,276,171,261,116,130,201,166,231],"times":[561,380,293,413,424,1782],"next_num":6,"trial_type":"ticket-choose","trial_index":121,"time_elapsed":1583598,"internal_node_id":"0.0-121.0"},{"result":101,"points":3,"place":0,"phase":1,"sequence":37,"prices":[155,175,166,245,171,190,125,140,101,196],"times":[1358,393,295,489,534,505,464,657,1114],"next_num":9,"trial_type":"ticket-choose","trial_index":122,"time_elapsed":1593443,"internal_node_id":"0.0-122.0"},{"result":96,"points":3,"place":0,"phase":1,"sequence":38,"prices":[150,171,120,241,165,185,160,135,96,190],"times":[702,490,391,508,437,548,451,1010,1135],"next_num":9,"trial_type":"ticket-choose","trial_index":123,"time_elapsed":1602997,"internal_node_id":"0.0-123.0"},{"result":66,"points":3,"place":0,"phase":1,"sequence":39,"prices":[66,201,96,150,185,230,121,216,225,165],"times":[1404],"next_num":1,"trial_type":"ticket-choose","trial_index":124,"time_elapsed":1606946,"internal_node_id":"0.0-124.0"},{"result":81,"points":3,"place":0,"phase":1,"sequence":40,"prices":[155,245,155,81,180,130,156,306,166,115],"times":[682,351,427,1408],"next_num":4,"trial_type":"ticket-choose","trial_index":125,"time_elapsed":1612748,"internal_node_id":"0.0-125.0"},{"result":100,"points":3,"place":0,"phase":1,"sequence":41,"prices":[146,170,121,245,166,190,161,141,100,195],"times":[808,444,425,450,494,480,476,443,1090],"next_num":9,"trial_type":"ticket-choose","trial_index":126,"time_elapsed":1622076,"internal_node_id":"0.0-126.0"},{"result":86,"points":3,"place":0,"phase":1,"sequence":42,"prices":[86,180,130,151,170,271,145,191,220,160],"times":[1212],"next_num":1,"trial_type":"ticket-choose","trial_index":127,"time_elapsed":1625612,"internal_node_id":"0.0-127.0"},{"result":96,"points":3,"place":0,"phase":1,"sequence":43,"prices":[150,170,160,241,166,186,120,136,96,191],"times":[1088,367,249,245,396,521,406,1380,960],"next_num":9,"trial_type":"ticket-choose","trial_index":128,"time_elapsed":1635076,"internal_node_id":"0.0-128.0"},{"result":196,"points":1,"place":4,"phase":1,"sequence":44,"prices":[120,221,135,185,200,261,181,251,255,196],"times":[1096,472,313,299,298,408,315,460,459,540],"next_num":11,"trial_type":"ticket-choose","trial_index":129,"time_elapsed":1643860,"internal_node_id":"0.0-129.0"},{"result":185,"points":0,"place":5,"phase":1,"sequence":45,"prices":[181,156,145,165,236,231,201,260,150,185],"times":[719,430,406,519,510,579,830,675,768,1474],"next_num":10,"trial_type":"ticket-choose","trial_index":130,"time_elapsed":1655093,"internal_node_id":"0.0-130.0"},{"result":100,"points":3,"place":0,"phase":1,"sequence":46,"prices":[156,175,126,246,170,190,165,140,100,196],"times":[1033,331,443,520,675,541,594,501,1499],"next_num":9,"trial_type":"ticket-choose","trial_index":131,"time_elapsed":1665812,"internal_node_id":"0.0-131.0"},{"result":136,"points":3,"place":0,"phase":1,"sequence":47,"prices":[246,145,155,191,176,270,185,136,160,215],"times":[1597,464,621,515,500,511,576,1554],"next_num":8,"trial_type":"ticket-choose","trial_index":132,"time_elapsed":1676221,"internal_node_id":"0.0-132.0"},{"result":136,"points":1,"place":2,"phase":1,"sequence":48,"prices":[150,170,160,240,166,185,121,136,95,191],"times":[1537,458,246,324,374,366,378,1341],"next_num":8,"trial_type":"ticket-choose","trial_index":133,"time_elapsed":1685716,"internal_node_id":"0.0-133.0"},{"result":126,"points":2,"place":1,"phase":1,"sequence":49,"prices":[156,176,165,246,171,190,126,141,101,196],"times":[1367,304,209,308,313,427,1208],"next_num":7,"trial_type":"ticket-choose","trial_index":134,"time_elapsed":1693486,"internal_node_id":"0.0-134.0"},{"responses":[{"value":0,"offby":-1,"category":"$30 - $75","category_index":0},{"value":4,"offby":2,"category":"$76 - $120","category_index":1},{"value":4,"offby":0,"category":"$121 - $165","category_index":2},{"value":12,"offby":6,"category":"$166 - $210","category_index":3},{"value":0,"offby":-6,"category":"$211 - $255","category_index":4},{"value":0,"offby":-1,"category":"$256 - $300","category_index":5},{"value":0,"offby":0,"category":"$301 - $345","category_index":6}],"phase":1,"number":1,"trial_type":"bar-choose","trial_index":135,"time_elapsed":1724655,"internal_node_id":"0.0-135.0"},{"special_comment":"no","trial_type":"special_sequence","trial_index":136,"time_elapsed":1730717,"internal_node_id":"0.0-136.0"},{"during":"Nothing","bonus":312,"trial_type":"final","trial_index":137,"time_elapsed":1746260,"internal_node_id":"0.0-137.0"}],"bonus":312}