{"start_time":"2017-02-16 17:00:34","end_time":"2017-02-16 17:29:35","points_phase0":118,"points_phase1":106,"phase_order":1,"age":37,"gender":"f","tries":1,"during":"Nothing","worker_id":"A3DAJROQC1BLNI","assignment_id":"3Z7VU45IPZAQHS1G2DUJIT2O3ADZ1I","data":[{"rt":19086,"url":"\/tickets\/utils\/consent.html","trial_type":"html","trial_index":0,"time_elapsed":19349,"internal_node_id":"0.0-0.0"},{"age":37,"gender":"f","trial_type":"age","trial_index":1,"time_elapsed":25948,"internal_node_id":"0.0-1.0"},{"worker_id":"A3DAJROQC1BLNI","trial_type":"workerid","trial_index":2,"time_elapsed":41159,"internal_node_id":"0.0-2.0"},{"tries":1,"trial_type":"instructions_check","trial_index":3,"time_elapsed":70517,"internal_node_id":"0.0-3.0"},{"rt":9999,"url":"\/tickets\/utils\/start.html","trial_type":"html","trial_index":4,"time_elapsed":81622,"internal_node_id":"0.0-4.0"},{"trial_type":"number-animation","trial_index":5,"time_elapsed":96649,"internal_node_id":"0.0-5.0"},{"phase":0,"sequence":0,"avg":182,"response":175,"trial_type":"training_avg","trial_index":6,"time_elapsed":107164,"internal_node_id":"0.0-6.0"},{"trial_type":"number-animation","trial_index":7,"time_elapsed":120021,"internal_node_id":"0.0-7.0"},{"phase":0,"sequence":1,"avg":188,"response":190,"trial_type":"training_avg","trial_index":8,"time_elapsed":129168,"internal_node_id":"0.0-8.0"},{"trial_type":"number-animation","trial_index":9,"time_elapsed":140699,"internal_node_id":"0.0-9.0"},{"phase":0,"sequence":2,"avg":176,"response":140,"trial_type":"training_avg","trial_index":10,"time_elapsed":155932,"internal_node_id":"0.0-10.0"},{"trial_type":"number-animation","trial_index":11,"time_elapsed":166220,"internal_node_id":"0.0-11.0"},{"phase":0,"sequence":3,"avg":180,"response":164,"trial_type":"training_avg","trial_index":12,"time_elapsed":176112,"internal_node_id":"0.0-12.0"},{"trial_type":"number-animation","trial_index":13,"time_elapsed":185301,"internal_node_id":"0.0-13.0"},{"phase":0,"sequence":4,"avg":174,"response":174,"trial_type":"training_avg","trial_index":14,"time_elapsed":194968,"internal_node_id":"0.0-14.0"},{"responses":[{"value":0,"offby":-1,"category":"$90 - $120","category_index":0},{"value":3,"offby":0,"category":"$121 - $145","category_index":1},{"value":4,"offby":1,"category":"$146 - $170","category_index":2},{"value":6,"offby":0,"category":"$171 - $195","category_index":3},{"value":4,"offby":0,"category":"$196 - $220","category_index":4},{"value":3,"offby":1,"category":"$221 - $245","category_index":5},{"value":0,"offby":-1,"category":"$246 - $270","category_index":6}],"phase":0,"number":0,"trial_type":"bar-choose","trial_index":15,"time_elapsed":271288,"internal_node_id":"0.0-15.0"},{"rt":13854,"url":"\/tickets\/\/utils\/testing.html","trial_type":"html","trial_index":16,"time_elapsed":286253,"internal_node_id":"0.0-16.0"},{"phase":0,"order":[48,39,38,37,2,27,7,28,15,32,17,33,29,31,23,8,41,0,26,18,16,35,9,34,25,19,49,1,6,46,24,45,47,44,3,22,14,21,30,40,20,43,5,11,4,10,13,36,12,42],"trial_type":"store_order","trial_index":17,"time_elapsed":287255,"internal_node_id":"0.0-17.0"},{"result":126,"points":3,"place":0,"phase":0,"sequence":-1,"times":[1737,1032,795,1034,865,691,947,1311,646,2356],"next_num":10,"trial_type":"ticket-choose","trial_index":18,"time_elapsed":303816,"internal_node_id":"0.0-18.0"},{"rt":18112,"url":"\/tickets\/utils\/testing_after.html","trial_type":"html","trial_index":19,"time_elapsed":323134,"internal_node_id":"0.0-19.0"},{"result":162,"points":1,"place":3,"phase":0,"sequence":0,"times":[1724,1155,801,724,2521,2156,693,769,1107,3671],"next_num":10,"trial_type":"ticket-choose","trial_index":20,"time_elapsed":343993,"internal_node_id":"0.0-20.0"},{"result":124,"points":3,"place":0,"phase":0,"sequence":1,"times":[904,695,732,3135],"next_num":4,"trial_type":"ticket-choose","trial_index":21,"time_elapsed":353017,"internal_node_id":"0.0-21.0"},{"result":146,"points":2,"place":1,"phase":0,"sequence":2,"times":[940,741,871,688,865,984,2344],"next_num":7,"trial_type":"ticket-choose","trial_index":22,"time_elapsed":364499,"internal_node_id":"0.0-22.0"},{"result":145,"points":2,"place":1,"phase":0,"sequence":3,"times":[714,954,875,3935],"next_num":4,"trial_type":"ticket-choose","trial_index":23,"time_elapsed":374337,"internal_node_id":"0.0-23.0"},{"result":136,"points":2,"place":1,"phase":0,"sequence":4,"times":[604,725,1984],"next_num":3,"trial_type":"ticket-choose","trial_index":24,"time_elapsed":380773,"internal_node_id":"0.0-24.0"},{"result":137,"points":3,"place":0,"phase":0,"sequence":5,"times":[2985],"next_num":1,"trial_type":"ticket-choose","trial_index":25,"time_elapsed":386506,"internal_node_id":"0.0-25.0"},{"result":128,"points":3,"place":0,"phase":0,"sequence":6,"times":[1616,668,1007,641,676,776,732,1033],"next_num":8,"trial_type":"ticket-choose","trial_index":26,"time_elapsed":397778,"internal_node_id":"0.0-26.0"},{"result":154,"points":2,"place":1,"phase":0,"sequence":7,"times":[776,728,770,755,848,927,2308],"next_num":7,"trial_type":"ticket-choose","trial_index":27,"time_elapsed":408672,"internal_node_id":"0.0-27.0"},{"result":136,"points":3,"place":0,"phase":0,"sequence":8,"times":[1324,1085,795,684,712,2502],"next_num":6,"trial_type":"ticket-choose","trial_index":28,"time_elapsed":419397,"internal_node_id":"0.0-28.0"},{"result":136,"points":2,"place":1,"phase":0,"sequence":9,"times":[2111,597,1938],"next_num":3,"trial_type":"ticket-choose","trial_index":29,"time_elapsed":426951,"internal_node_id":"0.0-29.0"},{"result":136,"points":2,"place":1,"phase":0,"sequence":10,"times":[1345,615,665,721,713,663,1898],"next_num":7,"trial_type":"ticket-choose","trial_index":30,"time_elapsed":437324,"internal_node_id":"0.0-30.0"},{"result":192,"points":1,"place":4,"phase":0,"sequence":11,"times":[699,603,661,676,638,673,695,1119,832,1904],"next_num":10,"trial_type":"ticket-choose","trial_index":31,"time_elapsed":450625,"internal_node_id":"0.0-31.0"},{"result":116,"points":3,"place":0,"phase":0,"sequence":12,"times":[707,1165,683,695,1420,1872],"next_num":6,"trial_type":"ticket-choose","trial_index":32,"time_elapsed":460669,"internal_node_id":"0.0-32.0"},{"result":126,"points":3,"place":0,"phase":0,"sequence":13,"times":[801,722,1069,637,664,625,984,985,1999],"next_num":9,"trial_type":"ticket-choose","trial_index":33,"time_elapsed":473902,"internal_node_id":"0.0-33.0"},{"result":131,"points":2,"place":1,"phase":0,"sequence":14,"times":[908,912,2296],"next_num":3,"trial_type":"ticket-choose","trial_index":34,"time_elapsed":480734,"internal_node_id":"0.0-34.0"},{"result":124,"points":3,"place":0,"phase":0,"sequence":15,"times":[3326],"next_num":1,"trial_type":"ticket-choose","trial_index":35,"time_elapsed":486358,"internal_node_id":"0.0-35.0"},{"result":129,"points":2,"place":1,"phase":0,"sequence":16,"times":[670,1987],"next_num":2,"trial_type":"ticket-choose","trial_index":36,"time_elapsed":491471,"internal_node_id":"0.0-36.0"},{"result":126,"points":3,"place":0,"phase":0,"sequence":17,"times":[944,690,1205,612,768,776,914,1014,2026],"next_num":9,"trial_type":"ticket-choose","trial_index":37,"time_elapsed":504442,"internal_node_id":"0.0-37.0"},{"result":135,"points":3,"place":0,"phase":0,"sequence":18,"times":[599,702,1985],"next_num":3,"trial_type":"ticket-choose","trial_index":38,"time_elapsed":510551,"internal_node_id":"0.0-38.0"},{"result":128,"points":3,"place":0,"phase":0,"sequence":19,"times":[4439,647,1208,675,832,854,1371,852,906],"next_num":9,"trial_type":"ticket-choose","trial_index":39,"time_elapsed":526317,"internal_node_id":"0.0-39.0"},{"result":136,"points":2,"place":1,"phase":0,"sequence":20,"times":[1183,587,1927],"next_num":3,"trial_type":"ticket-choose","trial_index":40,"time_elapsed":532621,"internal_node_id":"0.0-40.0"},{"result":125,"points":3,"place":0,"phase":0,"sequence":21,"times":[1532,817,755,797,719,744,1481,789,1869],"next_num":9,"trial_type":"ticket-choose","trial_index":41,"time_elapsed":546178,"internal_node_id":"0.0-41.0"},{"result":130,"points":2,"place":1,"phase":0,"sequence":22,"times":[1171,6871],"next_num":2,"trial_type":"ticket-choose","trial_index":42,"time_elapsed":556817,"internal_node_id":"0.0-42.0"},{"result":196,"points":1,"place":4,"phase":0,"sequence":23,"times":[837,610,765,581,646,621,685,1163,725,1537],"next_num":10,"trial_type":"ticket-choose","trial_index":43,"time_elapsed":569181,"internal_node_id":"0.0-43.0"},{"result":133,"points":3,"place":0,"phase":0,"sequence":24,"times":[1114,645,697,670,773,693,894,788,853,1566],"next_num":10,"trial_type":"ticket-choose","trial_index":44,"time_elapsed":582238,"internal_node_id":"0.0-44.0"},{"result":138,"points":1,"place":2,"phase":0,"sequence":25,"times":[1003,1698],"next_num":2,"trial_type":"ticket-choose","trial_index":45,"time_elapsed":587423,"internal_node_id":"0.0-45.0"},{"result":120,"points":2,"place":1,"phase":0,"sequence":26,"times":[576,795,1764],"next_num":3,"trial_type":"ticket-choose","trial_index":46,"time_elapsed":593254,"internal_node_id":"0.0-46.0"},{"result":149,"points":3,"place":0,"phase":0,"sequence":27,"times":[1011,693,794,761,1046,831,742,1589],"next_num":8,"trial_type":"ticket-choose","trial_index":47,"time_elapsed":604598,"internal_node_id":"0.0-47.0"},{"result":105,"points":3,"place":0,"phase":0,"sequence":28,"times":[892,845,708,828,1816],"next_num":5,"trial_type":"ticket-choose","trial_index":48,"time_elapsed":612724,"internal_node_id":"0.0-48.0"},{"result":135,"points":3,"place":0,"phase":0,"sequence":29,"times":[2112],"next_num":1,"trial_type":"ticket-choose","trial_index":49,"time_elapsed":617157,"internal_node_id":"0.0-49.0"},{"result":146,"points":2,"place":1,"phase":0,"sequence":30,"times":[649,873,733,940,800,959,1684],"next_num":7,"trial_type":"ticket-choose","trial_index":50,"time_elapsed":627237,"internal_node_id":"0.0-50.0"},{"result":129,"points":3,"place":0,"phase":0,"sequence":31,"times":[1143,807,914,668,1106,682,802,1186,1657],"next_num":9,"trial_type":"ticket-choose","trial_index":51,"time_elapsed":640244,"internal_node_id":"0.0-51.0"},{"result":119,"points":3,"place":0,"phase":0,"sequence":32,"times":[708,1756],"next_num":2,"trial_type":"ticket-choose","trial_index":52,"time_elapsed":645309,"internal_node_id":"0.0-52.0"},{"result":127,"points":3,"place":0,"phase":0,"sequence":33,"times":[827,2425,704,609,633,644,777,1021,784,1541],"next_num":10,"trial_type":"ticket-choose","trial_index":53,"time_elapsed":660175,"internal_node_id":"0.0-53.0"},{"result":155,"points":1,"place":2,"phase":0,"sequence":34,"times":[901,732,3900,632,628,631,717,1524],"next_num":8,"trial_type":"ticket-choose","trial_index":54,"time_elapsed":673459,"internal_node_id":"0.0-54.0"},{"result":146,"points":3,"place":0,"phase":0,"sequence":35,"times":[1984,575,575,604,644,605,1150,1629],"next_num":8,"trial_type":"ticket-choose","trial_index":55,"time_elapsed":684975,"internal_node_id":"0.0-55.0"},{"result":189,"points":1,"place":4,"phase":0,"sequence":36,"times":[1254,568,777,680,789,1042,773,720,608,1648],"next_num":10,"trial_type":"ticket-choose","trial_index":56,"time_elapsed":698019,"internal_node_id":"0.0-56.0"},{"result":136,"points":2,"place":1,"phase":0,"sequence":37,"times":[644,637,883,787,818,1031,1882],"next_num":7,"trial_type":"ticket-choose","trial_index":57,"time_elapsed":708429,"internal_node_id":"0.0-57.0"},{"result":136,"points":2,"place":1,"phase":0,"sequence":38,"times":[824,563,1838],"next_num":3,"trial_type":"ticket-choose","trial_index":58,"time_elapsed":714452,"internal_node_id":"0.0-58.0"},{"result":136,"points":2,"place":1,"phase":0,"sequence":39,"times":[1002,603,597,670,626,809,1682],"next_num":7,"trial_type":"ticket-choose","trial_index":59,"time_elapsed":724145,"internal_node_id":"0.0-59.0"},{"result":132,"points":3,"place":0,"phase":0,"sequence":40,"times":[2595],"next_num":1,"trial_type":"ticket-choose","trial_index":60,"time_elapsed":728955,"internal_node_id":"0.0-60.0"},{"result":121,"points":3,"place":0,"phase":0,"sequence":41,"times":[2103],"next_num":1,"trial_type":"ticket-choose","trial_index":61,"time_elapsed":733171,"internal_node_id":"0.0-61.0"},{"result":126,"points":3,"place":0,"phase":0,"sequence":42,"times":[935,684,1005,603,673,735,863,1004,2151],"next_num":9,"trial_type":"ticket-choose","trial_index":62,"time_elapsed":746035,"internal_node_id":"0.0-62.0"},{"result":114,"points":3,"place":0,"phase":0,"sequence":43,"times":[985,857,815,2388],"next_num":4,"trial_type":"ticket-choose","trial_index":63,"time_elapsed":755424,"internal_node_id":"0.0-63.0"},{"result":188,"points":1,"place":4,"phase":0,"sequence":44,"times":[1575,614,732,659,651,939,697,847,752,1795],"next_num":10,"trial_type":"ticket-choose","trial_index":64,"time_elapsed":769003,"internal_node_id":"0.0-64.0"},{"result":154,"points":2,"place":1,"phase":0,"sequence":45,"times":[1321,668,560,662,837,772,2118],"next_num":7,"trial_type":"ticket-choose","trial_index":65,"time_elapsed":779411,"internal_node_id":"0.0-65.0"},{"result":136,"points":2,"place":1,"phase":0,"sequence":46,"times":[916,1330,664,565,656,596,1799],"next_num":7,"trial_type":"ticket-choose","trial_index":66,"time_elapsed":789444,"internal_node_id":"0.0-66.0"},{"result":154,"points":2,"place":1,"phase":0,"sequence":47,"times":[792,567,507,593,521,644,1802],"next_num":7,"trial_type":"ticket-choose","trial_index":67,"time_elapsed":798419,"internal_node_id":"0.0-67.0"},{"result":126,"points":3,"place":0,"phase":0,"sequence":48,"times":[544,1805,824,549,612,538,1137,811,678,1697],"next_num":10,"trial_type":"ticket-choose","trial_index":68,"time_elapsed":812339,"internal_node_id":"0.0-68.0"},{"result":125,"points":3,"place":0,"phase":0,"sequence":49,"times":[2226,2233,532,582,702,578,1073,1145,555,1612],"next_num":10,"trial_type":"ticket-choose","trial_index":69,"time_elapsed":828066,"internal_node_id":"0.0-69.0"},{"responses":[{"value":1,"offby":0,"category":"$90 - $120","category_index":0},{"value":2,"offby":-1,"category":"$121 - $145","category_index":1},{"value":5,"offby":2,"category":"$146 - $170","category_index":2},{"value":4,"offby":-2,"category":"$171 - $195","category_index":3},{"value":3,"offby":-1,"category":"$196 - $220","category_index":4},{"value":2,"offby":0,"category":"$221 - $245","category_index":5},{"value":1,"offby":0,"category":"$246 - $270","category_index":6}],"phase":0,"number":1,"trial_type":"bar-choose","trial_index":70,"time_elapsed":885077,"internal_node_id":"0.0-70.0"},{"rt":255341,"url":"\/tickets\/utils\/start2.html","trial_type":"html","trial_index":71,"time_elapsed":1141534,"internal_node_id":"0.0-71.0"},{"trial_type":"number-animation","trial_index":72,"time_elapsed":1152182,"internal_node_id":"0.0-72.0"},{"phase":1,"sequence":0,"avg":181,"response":165,"trial_type":"training_avg","trial_index":73,"time_elapsed":1163404,"internal_node_id":"0.0-73.0"},{"trial_type":"number-animation","trial_index":74,"time_elapsed":1174838,"internal_node_id":"0.0-74.0"},{"phase":1,"sequence":1,"avg":188,"response":190,"trial_type":"training_avg","trial_index":75,"time_elapsed":1183407,"internal_node_id":"0.0-75.0"},{"trial_type":"number-animation","trial_index":76,"time_elapsed":1193510,"internal_node_id":"0.0-76.0"},{"phase":1,"sequence":2,"avg":188,"response":169,"trial_type":"training_avg","trial_index":77,"time_elapsed":1203057,"internal_node_id":"0.0-77.0"},{"trial_type":"number-animation","trial_index":78,"time_elapsed":1210217,"internal_node_id":"0.0-78.0"},{"phase":1,"sequence":3,"avg":177,"response":161,"trial_type":"training_avg","trial_index":79,"time_elapsed":1215430,"internal_node_id":"0.0-79.0"},{"trial_type":"number-animation","trial_index":80,"time_elapsed":1221714,"internal_node_id":"0.0-80.0"},{"phase":1,"sequence":4,"avg":182,"response":173,"trial_type":"training_avg","trial_index":81,"time_elapsed":1229362,"internal_node_id":"0.0-81.0"},{"responses":[{"value":0,"offby":0,"category":"$106 - $134","category_index":0},{"value":1,"offby":0,"category":"$135 - $150","category_index":1},{"value":3,"offby":0,"category":"$151 - $165","category_index":2},{"value":5,"offby":-1,"category":"$166 - $180","category_index":3},{"value":5,"offby":-1,"category":"$181 - $195","category_index":4},{"value":4,"offby":1,"category":"$196 - $210","category_index":5},{"value":2,"offby":1,"category":"$211 - $225","category_index":6}],"phase":1,"number":0,"trial_type":"bar-choose","trial_index":82,"time_elapsed":1265635,"internal_node_id":"0.0-82.0"},{"rt":4357,"url":"\/tickets\/utils\/testing2.html","trial_type":"html","trial_index":83,"time_elapsed":1271100,"internal_node_id":"0.0-83.0"},{"phase":1,"order":[39,47,7,37,19,33,36,13,46,16,22,27,49,2,41,26,35,0,43,5,17,6,34,32,8,44,31,45,42,30,4,1,40,11,9,38,28,21,18,20,25,29,3,48,24,12,23,15,10,14],"trial_type":"store_order","trial_index":84,"time_elapsed":1272102,"internal_node_id":"0.0-84.0"},{"result":147,"points":3,"place":0,"phase":1,"sequence":0,"times":[1014,485,741,2728],"next_num":4,"trial_type":"ticket-choose","trial_index":85,"time_elapsed":1280223,"internal_node_id":"0.0-85.0"},{"result":171,"points":1,"place":3,"phase":1,"sequence":1,"times":[568,491,500,499,585,569,752,614,965,1567],"next_num":10,"trial_type":"ticket-choose","trial_index":86,"time_elapsed":1291403,"internal_node_id":"0.0-86.0"},{"result":163,"points":3,"place":0,"phase":1,"sequence":2,"times":[807,500,554,474,583,625,977,1931],"next_num":8,"trial_type":"ticket-choose","trial_index":87,"time_elapsed":1301544,"internal_node_id":"0.0-87.0"},{"result":163,"points":2,"place":1,"phase":1,"sequence":3,"times":[432,350,481,2549],"next_num":4,"trial_type":"ticket-choose","trial_index":88,"time_elapsed":1308211,"internal_node_id":"0.0-88.0"},{"result":163,"points":2,"place":1,"phase":1,"sequence":4,"times":[1109,493,1610],"next_num":3,"trial_type":"ticket-choose","trial_index":89,"time_elapsed":1314185,"internal_node_id":"0.0-89.0"},{"result":186,"points":1,"place":4,"phase":1,"sequence":5,"times":[577,583,533,508,643,541,1482,583,593,1500],"next_num":10,"trial_type":"ticket-choose","trial_index":90,"time_elapsed":1325746,"internal_node_id":"0.0-90.0"},{"result":163,"points":2,"place":1,"phase":1,"sequence":6,"times":[451,546,533,622,595,693,1709],"next_num":7,"trial_type":"ticket-choose","trial_index":91,"time_elapsed":1334209,"internal_node_id":"0.0-91.0"},{"result":185,"points":1,"place":4,"phase":1,"sequence":7,"times":[372,605,545,670,577,558,472,1060,591,1453],"next_num":10,"trial_type":"ticket-choose","trial_index":92,"time_elapsed":1345054,"internal_node_id":"0.0-92.0"},{"result":167,"points":2,"place":1,"phase":1,"sequence":8,"times":[390,544,537,759,938,661,1566],"next_num":7,"trial_type":"ticket-choose","trial_index":93,"time_elapsed":1353474,"internal_node_id":"0.0-93.0"},{"result":167,"points":2,"place":1,"phase":1,"sequence":9,"times":[509,836,1814],"next_num":3,"trial_type":"ticket-choose","trial_index":94,"time_elapsed":1359299,"internal_node_id":"0.0-94.0"},{"result":167,"points":1,"place":2,"phase":1,"sequence":10,"times":[493,633,988,676,672,524,625,1779],"next_num":8,"trial_type":"ticket-choose","trial_index":95,"time_elapsed":1369104,"internal_node_id":"0.0-95.0"},{"result":166,"points":2,"place":1,"phase":1,"sequence":11,"times":[632,667,2344],"next_num":3,"trial_type":"ticket-choose","trial_index":96,"time_elapsed":1376113,"internal_node_id":"0.0-96.0"},{"result":150,"points":3,"place":0,"phase":1,"sequence":12,"times":[1977],"next_num":1,"trial_type":"ticket-choose","trial_index":97,"time_elapsed":1380479,"internal_node_id":"0.0-97.0"},{"result":148,"points":3,"place":0,"phase":1,"sequence":13,"times":[2002],"next_num":1,"trial_type":"ticket-choose","trial_index":98,"time_elapsed":1384732,"internal_node_id":"0.0-98.0"},{"result":158,"points":2,"place":1,"phase":1,"sequence":14,"times":[891,560,619,568,638,622,1561],"next_num":7,"trial_type":"ticket-choose","trial_index":99,"time_elapsed":1395092,"internal_node_id":"0.0-99.0"},{"result":167,"points":2,"place":1,"phase":1,"sequence":15,"times":[905,621,1672],"next_num":3,"trial_type":"ticket-choose","trial_index":100,"time_elapsed":1400813,"internal_node_id":"0.0-100.0"},{"result":155,"points":2,"place":1,"phase":1,"sequence":16,"times":[615,497,1542],"next_num":3,"trial_type":"ticket-choose","trial_index":101,"time_elapsed":1405938,"internal_node_id":"0.0-101.0"},{"result":163,"points":2,"place":1,"phase":1,"sequence":17,"times":[427,520,1755],"next_num":3,"trial_type":"ticket-choose","trial_index":102,"time_elapsed":1411136,"internal_node_id":"0.0-102.0"},{"result":158,"points":2,"place":1,"phase":1,"sequence":18,"times":[730,623,1810],"next_num":3,"trial_type":"ticket-choose","trial_index":103,"time_elapsed":1416773,"internal_node_id":"0.0-103.0"},{"result":158,"points":2,"place":1,"phase":1,"sequence":19,"times":[663,538,1827],"next_num":3,"trial_type":"ticket-choose","trial_index":104,"time_elapsed":1422482,"internal_node_id":"0.0-104.0"},{"result":158,"points":2,"place":1,"phase":1,"sequence":20,"times":[537,522,2091],"next_num":3,"trial_type":"ticket-choose","trial_index":105,"time_elapsed":1428155,"internal_node_id":"0.0-105.0"},{"result":154,"points":2,"place":1,"phase":1,"sequence":21,"times":[442,2849],"next_num":2,"trial_type":"ticket-choose","trial_index":106,"time_elapsed":1433744,"internal_node_id":"0.0-106.0"},{"result":156,"points":3,"place":0,"phase":1,"sequence":22,"times":[597,583,750,627,670,532,509,590,647,1713],"next_num":10,"trial_type":"ticket-choose","trial_index":107,"time_elapsed":1445003,"internal_node_id":"0.0-107.0"},{"result":155,"points":2,"place":1,"phase":1,"sequence":23,"times":[855,1715],"next_num":2,"trial_type":"ticket-choose","trial_index":108,"time_elapsed":1449777,"internal_node_id":"0.0-108.0"},{"result":156,"points":3,"place":0,"phase":1,"sequence":24,"times":[1498],"next_num":1,"trial_type":"ticket-choose","trial_index":109,"time_elapsed":1453348,"internal_node_id":"0.0-109.0"},{"result":158,"points":2,"place":1,"phase":1,"sequence":25,"times":[802,548,1777],"next_num":3,"trial_type":"ticket-choose","trial_index":110,"time_elapsed":1459094,"internal_node_id":"0.0-110.0"},{"result":148,"points":3,"place":0,"phase":1,"sequence":26,"times":[593,952,560,509,583,1658],"next_num":6,"trial_type":"ticket-choose","trial_index":111,"time_elapsed":1467136,"internal_node_id":"0.0-111.0"},{"result":165,"points":1,"place":2,"phase":1,"sequence":27,"times":[486,529,668,563,556,665,755,1855],"next_num":8,"trial_type":"ticket-choose","trial_index":112,"time_elapsed":1477260,"internal_node_id":"0.0-112.0"},{"result":163,"points":2,"place":1,"phase":1,"sequence":28,"times":[741,538,606,627,690,710,1734],"next_num":7,"trial_type":"ticket-choose","trial_index":113,"time_elapsed":1486314,"internal_node_id":"0.0-113.0"},{"result":158,"points":3,"place":0,"phase":1,"sequence":29,"times":[677,511,514,620,550,2021],"next_num":6,"trial_type":"ticket-choose","trial_index":114,"time_elapsed":1494475,"internal_node_id":"0.0-114.0"},{"result":184,"points":1,"place":4,"phase":1,"sequence":30,"times":[990,528,520,639,557,621,715,706,537,1450],"next_num":10,"trial_type":"ticket-choose","trial_index":115,"time_elapsed":1505686,"internal_node_id":"0.0-115.0"},{"result":167,"points":2,"place":1,"phase":1,"sequence":31,"times":[583,609,556,561,1988],"next_num":5,"trial_type":"ticket-choose","trial_index":116,"time_elapsed":1512963,"internal_node_id":"0.0-116.0"},{"result":152,"points":3,"place":0,"phase":1,"sequence":32,"times":[447,527,645,1578],"next_num":4,"trial_type":"ticket-choose","trial_index":117,"time_elapsed":1518805,"internal_node_id":"0.0-117.0"},{"result":159,"points":1,"place":2,"phase":1,"sequence":33,"times":[620,1780],"next_num":2,"trial_type":"ticket-choose","trial_index":118,"time_elapsed":1523411,"internal_node_id":"0.0-118.0"},{"result":165,"points":1,"place":2,"phase":1,"sequence":34,"times":[482,472,742,542,541,541,563,1837],"next_num":8,"trial_type":"ticket-choose","trial_index":119,"time_elapsed":1533079,"internal_node_id":"0.0-119.0"},{"result":158,"points":2,"place":1,"phase":1,"sequence":35,"times":[475,497,520,546,605,698,1844],"next_num":7,"trial_type":"ticket-choose","trial_index":120,"time_elapsed":1541584,"internal_node_id":"0.0-120.0"},{"result":153,"points":3,"place":0,"phase":1,"sequence":36,"times":[575,941,514,783,555,557,889,1399,750,1494],"next_num":10,"trial_type":"ticket-choose","trial_index":121,"time_elapsed":1554135,"internal_node_id":"0.0-121.0"},{"result":158,"points":2,"place":1,"phase":1,"sequence":37,"times":[455,452,479,575,538,513,1544],"next_num":7,"trial_type":"ticket-choose","trial_index":122,"time_elapsed":1561883,"internal_node_id":"0.0-122.0"},{"result":176,"points":1,"place":4,"phase":1,"sequence":38,"times":[639,469,609,508,521,595,595,696,588,1443],"next_num":10,"trial_type":"ticket-choose","trial_index":123,"time_elapsed":1572598,"internal_node_id":"0.0-123.0"},{"result":150,"points":3,"place":0,"phase":1,"sequence":39,"times":[506,1494],"next_num":2,"trial_type":"ticket-choose","trial_index":124,"time_elapsed":1576957,"internal_node_id":"0.0-124.0"},{"result":158,"points":2,"place":1,"phase":1,"sequence":40,"times":[531,509,572,595,603,564,1546],"next_num":7,"trial_type":"ticket-choose","trial_index":125,"time_elapsed":1585145,"internal_node_id":"0.0-125.0"},{"result":157,"points":3,"place":0,"phase":1,"sequence":41,"times":[480,532,1984],"next_num":3,"trial_type":"ticket-choose","trial_index":126,"time_elapsed":1590622,"internal_node_id":"0.0-126.0"},{"result":163,"points":2,"place":1,"phase":1,"sequence":42,"times":[623,480,536,688,542,497,2146],"next_num":7,"trial_type":"ticket-choose","trial_index":127,"time_elapsed":1599647,"internal_node_id":"0.0-127.0"},{"result":169,"points":1,"place":2,"phase":1,"sequence":43,"times":[513,554,498,784,540,517,581,2094],"next_num":8,"trial_type":"ticket-choose","trial_index":128,"time_elapsed":1611112,"internal_node_id":"0.0-128.0"},{"result":163,"points":2,"place":1,"phase":1,"sequence":44,"times":[538,516,953,893,539,553,1839],"next_num":7,"trial_type":"ticket-choose","trial_index":129,"time_elapsed":1620209,"internal_node_id":"0.0-129.0"},{"result":153,"points":3,"place":0,"phase":1,"sequence":45,"times":[446,503,528,663,566,549,542,832,593,1791],"next_num":10,"trial_type":"ticket-choose","trial_index":130,"time_elapsed":1647856,"internal_node_id":"0.0-130.0"},{"result":156,"points":3,"place":0,"phase":1,"sequence":46,"times":[905,443,517,523,518,507,495,1159,779,1790],"next_num":10,"trial_type":"ticket-choose","trial_index":131,"time_elapsed":1660024,"internal_node_id":"0.0-131.0"},{"result":154,"points":3,"place":0,"phase":1,"sequence":47,"times":[658,450,309,462,442,519,499,1565],"next_num":8,"trial_type":"ticket-choose","trial_index":132,"time_elapsed":1668662,"internal_node_id":"0.0-132.0"},{"result":167,"points":2,"place":1,"phase":1,"sequence":48,"times":[516,639,416,391,514,483,2029],"next_num":7,"trial_type":"ticket-choose","trial_index":133,"time_elapsed":1677029,"internal_node_id":"0.0-133.0"},{"result":143,"points":3,"place":0,"phase":1,"sequence":49,"times":[497,397,490,527,1718],"next_num":5,"trial_type":"ticket-choose","trial_index":134,"time_elapsed":1683735,"internal_node_id":"0.0-134.0"},{"responses":[{"value":0,"offby":0,"category":"$106 - $134","category_index":0},{"value":3,"offby":2,"category":"$135 - $150","category_index":1},{"value":4,"offby":1,"category":"$151 - $165","category_index":2},{"value":5,"offby":-1,"category":"$166 - $180","category_index":3},{"value":5,"offby":-1,"category":"$181 - $195","category_index":4},{"value":2,"offby":-1,"category":"$196 - $210","category_index":5},{"value":1,"offby":0,"category":"$211 - $225","category_index":6}],"phase":1,"number":1,"trial_type":"bar-choose","trial_index":135,"time_elapsed":1714844,"internal_node_id":"0.0-135.0"},{"special_comment":"No.","trial_type":"special_sequence","trial_index":136,"time_elapsed":1721111,"internal_node_id":"0.0-136.0"},{"during":"Nothing","bonus":300,"trial_type":"final","trial_index":137,"time_elapsed":1739142,"internal_node_id":"0.0-137.0"}],"bonus":300}