{"start_time":"2017-02-24 15:37:46","end_time":"2017-02-24 16:26:17","points_phase0":108,"points_phase1":111,"phase_order":1,"age":23,"gender":"m","tries":1,"during":"Eating","worker_id":"A3EHI7J2E5DSJK","assignment_id":"37FMASSAYDK5Z0UY46ZMOAC7U8PBI2","data":[{"rt":64780,"url":"\/tickets\/utils\/consent.html","trial_type":"html","trial_index":0,"time_elapsed":65032,"internal_node_id":"0.0-0.0"},{"age":23,"gender":"m","trial_type":"age","trial_index":1,"time_elapsed":74452,"internal_node_id":"0.0-1.0"},{"worker_id":"A3EHI7J2E5DSJK","trial_type":"workerid","trial_index":2,"time_elapsed":87414,"internal_node_id":"0.0-2.0"},{"tries":1,"trial_type":"instructions_check","trial_index":3,"time_elapsed":157607,"internal_node_id":"0.0-3.0"},{"rt":4206,"url":"\/tickets\/utils\/start.html","trial_type":"html","trial_index":4,"time_elapsed":162941,"internal_node_id":"0.0-4.0"},{"trial_type":"number-animation","trial_index":5,"time_elapsed":175337,"internal_node_id":"0.0-5.0"},{"phase":0,"sequence":0,"avg":166,"response":130,"trial_type":"training_avg","trial_index":6,"time_elapsed":190250,"internal_node_id":"0.0-6.0"},{"trial_type":"number-animation","trial_index":7,"time_elapsed":198415,"internal_node_id":"0.0-7.0"},{"phase":0,"sequence":1,"avg":198,"response":197,"trial_type":"training_avg","trial_index":8,"time_elapsed":209633,"internal_node_id":"0.0-8.0"},{"trial_type":"number-animation","trial_index":9,"time_elapsed":217121,"internal_node_id":"0.0-9.0"},{"phase":0,"sequence":2,"avg":177,"response":184,"trial_type":"training_avg","trial_index":10,"time_elapsed":228313,"internal_node_id":"0.0-10.0"},{"trial_type":"number-animation","trial_index":11,"time_elapsed":238995,"internal_node_id":"0.0-11.0"},{"phase":0,"sequence":3,"avg":190,"response":169,"trial_type":"training_avg","trial_index":12,"time_elapsed":252299,"internal_node_id":"0.0-12.0"},{"trial_type":"number-animation","trial_index":13,"time_elapsed":261471,"internal_node_id":"0.0-13.0"},{"phase":0,"sequence":4,"avg":201,"response":189,"trial_type":"training_avg","trial_index":14,"time_elapsed":277280,"internal_node_id":"0.0-14.0"},{"responses":[{"value":4,"offby":3,"category":"$30 - $75","category_index":0},{"value":3,"offby":1,"category":"$76 - $120","category_index":1},{"value":2,"offby":-2,"category":"$121 - $165","category_index":2},{"value":5,"offby":-1,"category":"$166 - $210","category_index":3},{"value":2,"offby":-4,"category":"$211 - $255","category_index":4},{"value":3,"offby":2,"category":"$256 - $300","category_index":5},{"value":1,"offby":1,"category":"$301 - $345","category_index":6}],"phase":0,"number":0,"trial_type":"bar-choose","trial_index":15,"time_elapsed":884557,"internal_node_id":"0.0-15.0"},{"rt":2933,"url":"\/tickets\/\/utils\/testing.html","trial_type":"html","trial_index":16,"time_elapsed":888809,"internal_node_id":"0.0-16.0"},{"phase":0,"order":[24,28,17,33,15,40,47,26,22,13,11,34,27,1,38,41,2,8,14,44,7,37,25,9,35,31,49,16,29,6,42,30,23,10,19,32,45,43,21,12,36,39,3,18,46,20,0,4,5,48],"trial_type":"store_order","trial_index":17,"time_elapsed":889815,"internal_node_id":"0.0-17.0"},{"result":126,"points":3,"place":0,"phase":0,"sequence":-1,"prices":[184,180,224,165,181,199,185,193,218,126],"times":[2807,584,1171,664,719,826,668,1019,710,1768],"next_num":10,"trial_type":"ticket-choose","trial_index":18,"time_elapsed":905426,"internal_node_id":"0.0-18.0"},{"rt":5539,"url":"\/tickets\/utils\/testing_after.html","trial_type":"html","trial_index":19,"time_elapsed":912121,"internal_node_id":"0.0-19.0"},{"result":116,"points":3,"place":0,"phase":0,"sequence":0,"prices":[176,150,276,171,261,116,130,201,166,231],"times":[1722,925,820,1246,825,1132],"next_num":6,"trial_type":"ticket-choose","trial_index":20,"time_elapsed":923630,"internal_node_id":"0.0-20.0"},{"result":51,"points":3,"place":0,"phase":0,"sequence":1,"prices":[221,175,51,196,146,130,166,80,126,156],"times":[847,831,980],"next_num":3,"trial_type":"ticket-choose","trial_index":21,"time_elapsed":929224,"internal_node_id":"0.0-21.0"},{"result":111,"points":3,"place":0,"phase":0,"sequence":2,"prices":[156,181,131,256,176,200,171,151,111,206],"times":[614,776,982,674,889,689,759,1017,1086],"next_num":9,"trial_type":"ticket-choose","trial_index":22,"time_elapsed":940842,"internal_node_id":"0.0-22.0"},{"result":100,"points":3,"place":0,"phase":0,"sequence":3,"prices":[145,170,160,245,165,190,120,141,100,195],"times":[897,867,611,575,1484,832,671,945,1033],"next_num":9,"trial_type":"ticket-choose","trial_index":23,"time_elapsed":952677,"internal_node_id":"0.0-23.0"},{"result":95,"points":3,"place":0,"phase":0,"sequence":4,"prices":[95,205,106,151,186,271,145,210,215,181],"times":[2053],"next_num":1,"trial_type":"ticket-choose","trial_index":24,"time_elapsed":956938,"internal_node_id":"0.0-24.0"},{"result":105,"points":3,"place":0,"phase":0,"sequence":5,"prices":[150,176,126,251,171,195,165,145,105,200],"times":[1030,706,858,649,721,811,830,736,956],"next_num":9,"trial_type":"ticket-choose","trial_index":25,"time_elapsed":968170,"internal_node_id":"0.0-25.0"},{"result":76,"points":3,"place":0,"phase":0,"sequence":6,"prices":[185,180,235,210,106,266,76,115,250,205],"times":[1855,1290,589,601,636,743,870],"next_num":7,"trial_type":"ticket-choose","trial_index":26,"time_elapsed":1008520,"internal_node_id":"0.0-26.0"},{"result":66,"points":3,"place":0,"phase":0,"sequence":7,"prices":[66,201,96,150,185,230,121,216,225,165],"times":[1147],"next_num":1,"trial_type":"ticket-choose","trial_index":27,"time_elapsed":1019327,"internal_node_id":"0.0-27.0"},{"result":100,"points":3,"place":0,"phase":0,"sequence":8,"prices":[146,171,120,245,165,191,160,140,100,196],"times":[9657,931,585,821,887,658,922,934,2317],"next_num":9,"trial_type":"ticket-choose","trial_index":28,"time_elapsed":1041776,"internal_node_id":"0.0-28.0"},{"result":100,"points":3,"place":0,"phase":0,"sequence":9,"prices":[156,175,126,246,170,190,165,140,100,196],"times":[1297,751,1052,692,921,835,704,904,1102],"next_num":9,"trial_type":"ticket-choose","trial_index":29,"time_elapsed":1054239,"internal_node_id":"0.0-29.0"},{"result":121,"points":2,"place":1,"phase":0,"sequence":10,"prices":[150,170,160,240,166,185,121,136,95,191],"times":[1837,928,915,894,761,872,3403],"next_num":7,"trial_type":"ticket-choose","trial_index":30,"time_elapsed":1067439,"internal_node_id":"0.0-30.0"},{"result":105,"points":3,"place":0,"phase":0,"sequence":11,"prices":[161,180,171,250,176,195,131,146,105,201],"times":[1165,560,558,532,899,29376,1434,854,2546],"next_num":9,"trial_type":"ticket-choose","trial_index":31,"time_elapsed":1109230,"internal_node_id":"0.0-31.0"},{"result":65,"points":2,"place":1,"phase":0,"sequence":12,"prices":[220,236,176,65,185,101,110,61,156,191],"times":[10007,988,839,1100],"next_num":4,"trial_type":"ticket-choose","trial_index":32,"time_elapsed":1125542,"internal_node_id":"0.0-32.0"},{"result":185,"points":0,"place":5,"phase":0,"sequence":13,"prices":[181,156,145,165,236,231,201,260,150,185],"times":[839,486,598,625,680,639,877,969,1638,781],"next_num":10,"trial_type":"ticket-choose","trial_index":33,"time_elapsed":1137795,"internal_node_id":"0.0-33.0"},{"result":121,"points":2,"place":1,"phase":0,"sequence":14,"prices":[146,170,121,245,166,190,161,141,100,195],"times":[609,588,942],"next_num":3,"trial_type":"ticket-choose","trial_index":34,"time_elapsed":1142414,"internal_node_id":"0.0-34.0"},{"result":105,"points":3,"place":0,"phase":0,"sequence":15,"prices":[160,180,170,251,176,195,131,146,105,200],"times":[640,384,488,437,556,760,959,966,811],"next_num":9,"trial_type":"ticket-choose","trial_index":35,"time_elapsed":1152136,"internal_node_id":"0.0-35.0"},{"result":215,"points":0,"place":7,"phase":0,"sequence":16,"prices":[246,145,155,191,176,270,185,136,160,215],"times":[827,412,345,690,637,712,607,1421,869,783],"next_num":10,"trial_type":"ticket-choose","trial_index":36,"time_elapsed":1163692,"internal_node_id":"0.0-36.0"},{"result":111,"points":3,"place":0,"phase":0,"sequence":17,"prices":[156,181,130,255,175,200,170,150,111,205],"times":[734,402,381,462,403,414,730,790,862],"next_num":9,"trial_type":"ticket-choose","trial_index":37,"time_elapsed":1172411,"internal_node_id":"0.0-37.0"},{"result":105,"points":3,"place":0,"phase":0,"sequence":18,"prices":[160,180,130,251,176,195,170,146,105,200],"times":[594,386,492,469,350,595,708,686,948],"next_num":9,"trial_type":"ticket-choose","trial_index":38,"time_elapsed":1181547,"internal_node_id":"0.0-38.0"},{"result":175,"points":1,"place":4,"phase":0,"sequence":19,"prices":[130,195,141,155,181,226,150,216,221,175],"times":[827,443,267,548,699,752,714,714,866,702],"next_num":10,"trial_type":"ticket-choose","trial_index":39,"time_elapsed":1192165,"internal_node_id":"0.0-39.0"},{"result":130,"points":2,"place":1,"phase":0,"sequence":20,"prices":[155,225,245,130,176,106,180,211,165,200],"times":[603,420,544,1151],"next_num":4,"trial_type":"ticket-choose","trial_index":40,"time_elapsed":1197548,"internal_node_id":"0.0-40.0"},{"result":126,"points":2,"place":1,"phase":0,"sequence":21,"prices":[151,175,166,251,170,195,126,146,105,201],"times":[596,381,411,531,761,794,1029],"next_num":7,"trial_type":"ticket-choose","trial_index":41,"time_elapsed":1205137,"internal_node_id":"0.0-41.0"},{"result":160,"points":1,"place":4,"phase":0,"sequence":22,"prices":[86,180,130,151,170,271,145,191,220,160],"times":[590,1026,616,607,630,547,644,700,691,742],"next_num":10,"trial_type":"ticket-choose","trial_index":42,"time_elapsed":1215803,"internal_node_id":"0.0-42.0"},{"result":126,"points":2,"place":1,"phase":0,"sequence":23,"prices":[151,176,126,251,170,196,165,145,105,201],"times":[586,463,1011],"next_num":3,"trial_type":"ticket-choose","trial_index":43,"time_elapsed":1220099,"internal_node_id":"0.0-43.0"},{"result":125,"points":2,"place":1,"phase":0,"sequence":24,"prices":[155,175,166,245,171,190,125,140,101,196],"times":[557,711,608,683,760,616,1025],"next_num":7,"trial_type":"ticket-choose","trial_index":44,"time_elapsed":1228197,"internal_node_id":"0.0-44.0"},{"result":165,"points":2,"place":1,"phase":0,"sequence":25,"prices":[175,211,266,286,111,216,220,245,230,165],"times":[1343,471,454,638,855,857,703,600,585,650],"next_num":10,"trial_type":"ticket-choose","trial_index":45,"time_elapsed":1239298,"internal_node_id":"0.0-45.0"},{"result":126,"points":2,"place":1,"phase":0,"sequence":26,"prices":[156,176,165,246,171,190,126,141,101,196],"times":[540,443,498,508,778,628,1784],"next_num":7,"trial_type":"ticket-choose","trial_index":46,"time_elapsed":1247761,"internal_node_id":"0.0-46.0"},{"result":115,"points":2,"place":1,"phase":0,"sequence":27,"prices":[155,245,155,81,180,130,156,306,166,115],"times":[645,443,307,397,1006,639,565,847,1209,786],"next_num":10,"trial_type":"ticket-choose","trial_index":47,"time_elapsed":1258406,"internal_node_id":"0.0-47.0"},{"result":91,"points":3,"place":0,"phase":0,"sequence":28,"prices":[176,150,141,91,290,201,106,266,206,126],"times":[745,588,619,907],"next_num":4,"trial_type":"ticket-choose","trial_index":48,"time_elapsed":1263976,"internal_node_id":"0.0-48.0"},{"result":120,"points":2,"place":1,"phase":0,"sequence":29,"prices":[186,156,191,120,195,145,45,130,246,176],"times":[687,729,592,1107],"next_num":4,"trial_type":"ticket-choose","trial_index":49,"time_elapsed":1291514,"internal_node_id":"0.0-49.0"},{"result":110,"points":3,"place":0,"phase":0,"sequence":30,"prices":[155,181,170,255,176,200,130,150,110,205],"times":[1393,536,313,561,1033,704,524,755,932],"next_num":9,"trial_type":"ticket-choose","trial_index":50,"time_elapsed":1301966,"internal_node_id":"0.0-50.0"},{"result":55,"points":2,"place":1,"phase":0,"sequence":31,"prices":[155,30,101,55,136,276,70,181,200,261],"times":[791,440,1019,1686],"next_num":4,"trial_type":"ticket-choose","trial_index":51,"time_elapsed":1308647,"internal_node_id":"0.0-51.0"},{"result":75,"points":3,"place":0,"phase":0,"sequence":32,"prices":[75,171,131,151,161,250,145,190,206,156],"times":[1252],"next_num":1,"trial_type":"ticket-choose","trial_index":52,"time_elapsed":1311881,"internal_node_id":"0.0-52.0"},{"result":105,"points":3,"place":0,"phase":0,"sequence":33,"prices":[161,180,131,251,175,196,171,146,105,201],"times":[2763,609,773,667,617,587,548,550,784],"next_num":9,"trial_type":"ticket-choose","trial_index":53,"time_elapsed":1329212,"internal_node_id":"0.0-53.0"},{"result":150,"points":1,"place":4,"phase":0,"sequence":34,"prices":[111,231,131,146,171,295,141,241,271,150],"times":[2624,739,3149,1415,720,764,613,667,734,1034],"next_num":10,"trial_type":"ticket-choose","trial_index":54,"time_elapsed":1345628,"internal_node_id":"0.0-54.0"},{"result":155,"points":1,"place":4,"phase":0,"sequence":35,"prices":[135,180,141,151,175,220,145,196,211,155],"times":[1482,666,516,532,524,765,623,715,838,624],"next_num":10,"trial_type":"ticket-choose","trial_index":55,"time_elapsed":1356716,"internal_node_id":"0.0-55.0"},{"result":130,"points":3,"place":0,"phase":0,"sequence":36,"prices":[185,175,276,221,130,141,171,216,235,165],"times":[760,606,579,670,922],"next_num":5,"trial_type":"ticket-choose","trial_index":56,"time_elapsed":1362989,"internal_node_id":"0.0-56.0"},{"result":166,"points":0,"place":5,"phase":0,"sequence":37,"prices":[255,166,266,175,136,145,155,61,96,301],"times":[1452,1620],"next_num":2,"trial_type":"ticket-choose","trial_index":57,"time_elapsed":1368414,"internal_node_id":"0.0-57.0"},{"result":121,"points":2,"place":1,"phase":0,"sequence":38,"prices":[150,171,121,241,165,185,160,136,95,191],"times":[1102,719,915],"next_num":3,"trial_type":"ticket-choose","trial_index":58,"time_elapsed":1373482,"internal_node_id":"0.0-58.0"},{"result":185,"points":1,"place":4,"phase":0,"sequence":39,"prices":[105,216,146,165,210,260,161,235,241,185],"times":[694,347,435,551,590,605,906,657,834,590],"next_num":10,"trial_type":"ticket-choose","trial_index":59,"time_elapsed":1383581,"internal_node_id":"0.0-59.0"},{"result":120,"points":3,"place":0,"phase":0,"sequence":40,"prices":[120,221,135,185,200,261,181,251,255,196],"times":[1867],"next_num":1,"trial_type":"ticket-choose","trial_index":60,"time_elapsed":1387455,"internal_node_id":"0.0-60.0"},{"result":125,"points":2,"place":1,"phase":0,"sequence":41,"prices":[156,175,125,245,170,190,165,140,101,196],"times":[995,572,973],"next_num":3,"trial_type":"ticket-choose","trial_index":61,"time_elapsed":1392378,"internal_node_id":"0.0-61.0"},{"result":135,"points":1,"place":3,"phase":0,"sequence":42,"prices":[226,205,125,120,115,135,180,145,150,220],"times":[553,586,567,547,589,1100],"next_num":6,"trial_type":"ticket-choose","trial_index":62,"time_elapsed":1399320,"internal_node_id":"0.0-62.0"},{"result":120,"points":2,"place":1,"phase":0,"sequence":43,"prices":[145,171,161,245,165,191,120,140,100,196],"times":[673,371,324,523,498,833,1083],"next_num":7,"trial_type":"ticket-choose","trial_index":63,"time_elapsed":1407026,"internal_node_id":"0.0-63.0"},{"result":165,"points":1,"place":4,"phase":0,"sequence":44,"prices":[81,205,130,151,191,261,145,210,250,165],"times":[1093,731,377,781,682,641,582,1125,775,959],"next_num":10,"trial_type":"ticket-choose","trial_index":64,"time_elapsed":1418731,"internal_node_id":"0.0-64.0"},{"result":106,"points":3,"place":0,"phase":0,"sequence":45,"prices":[180,106,166,245,211,261,215,125,135,190],"times":[590,1081],"next_num":2,"trial_type":"ticket-choose","trial_index":65,"time_elapsed":1422721,"internal_node_id":"0.0-65.0"},{"result":96,"points":3,"place":0,"phase":0,"sequence":46,"prices":[150,171,120,241,165,185,160,135,96,190],"times":[906,603,557,628,591,568,628,581,790],"next_num":9,"trial_type":"ticket-choose","trial_index":66,"time_elapsed":1432150,"internal_node_id":"0.0-66.0"},{"result":120,"points":2,"place":1,"phase":0,"sequence":47,"prices":[150,170,160,241,166,186,120,136,96,191],"times":[751,1069,424,474,564,625,1076],"next_num":7,"trial_type":"ticket-choose","trial_index":67,"time_elapsed":1440394,"internal_node_id":"0.0-67.0"},{"result":206,"points":0,"place":8,"phase":0,"sequence":48,"prices":[156,181,171,256,175,200,131,150,110,206],"times":[916,592,720,1500,524,508,669,735,662,746],"next_num":11,"trial_type":"ticket-choose","trial_index":68,"time_elapsed":1453192,"internal_node_id":"0.0-68.0"},{"result":105,"points":3,"place":0,"phase":0,"sequence":49,"prices":[150,175,166,251,170,196,126,145,105,201],"times":[772,902,405,589,558,495,645,1009,781],"next_num":9,"trial_type":"ticket-choose","trial_index":69,"time_elapsed":1464009,"internal_node_id":"0.0-69.0"},{"responses":[{"value":1,"offby":0,"category":"$30 - $75","category_index":0},{"value":3,"offby":1,"category":"$76 - $120","category_index":1},{"value":4,"offby":0,"category":"$121 - $165","category_index":2},{"value":6,"offby":0,"category":"$166 - $210","category_index":3},{"value":3,"offby":-3,"category":"$211 - $255","category_index":4},{"value":2,"offby":1,"category":"$256 - $300","category_index":5},{"value":1,"offby":1,"category":"$301 - $345","category_index":6}],"phase":0,"number":1,"trial_type":"bar-choose","trial_index":70,"time_elapsed":1512056,"internal_node_id":"0.0-70.0"},{"rt":2539,"url":"\/tickets\/utils\/start2.html","trial_type":"html","trial_index":71,"time_elapsed":1515753,"internal_node_id":"0.0-71.0"},{"trial_type":"number-animation","trial_index":72,"time_elapsed":1524967,"internal_node_id":"0.0-72.0"},{"phase":1,"sequence":0,"avg":180,"response":178,"trial_type":"training_avg","trial_index":73,"time_elapsed":1532105,"internal_node_id":"0.0-73.0"},{"trial_type":"number-animation","trial_index":74,"time_elapsed":1541364,"internal_node_id":"0.0-74.0"},{"phase":1,"sequence":1,"avg":178,"response":176,"trial_type":"training_avg","trial_index":75,"time_elapsed":1551303,"internal_node_id":"0.0-75.0"},{"trial_type":"number-animation","trial_index":76,"time_elapsed":1561633,"internal_node_id":"0.0-76.0"},{"phase":1,"sequence":2,"avg":176,"response":180,"trial_type":"training_avg","trial_index":77,"time_elapsed":1571610,"internal_node_id":"0.0-77.0"},{"trial_type":"number-animation","trial_index":78,"time_elapsed":1580650,"internal_node_id":"0.0-78.0"},{"phase":1,"sequence":3,"avg":178,"response":181,"trial_type":"training_avg","trial_index":79,"time_elapsed":1589081,"internal_node_id":"0.0-79.0"},{"trial_type":"number-animation","trial_index":80,"time_elapsed":1597174,"internal_node_id":"0.0-80.0"},{"phase":1,"sequence":4,"avg":179,"response":188,"trial_type":"training_avg","trial_index":81,"time_elapsed":1625361,"internal_node_id":"0.0-81.0"},{"responses":[{"value":0,"offby":0,"category":"$140 - $250","category_index":0},{"value":1,"offby":1,"category":"$151 - $160","category_index":1},{"value":3,"offby":-1,"category":"$161 - $170","category_index":2},{"value":10,"offby":4,"category":"$171 - $180","category_index":3},{"value":6,"offby":-1,"category":"$181 - $190","category_index":4},{"value":0,"offby":-3,"category":"$191 - $200","category_index":5},{"value":0,"offby":0,"category":"$201 - $210","category_index":6}],"phase":1,"number":0,"trial_type":"bar-choose","trial_index":82,"time_elapsed":1674836,"internal_node_id":"0.0-82.0"},{"rt":44164,"url":"\/tickets\/utils\/testing2.html","trial_type":"html","trial_index":83,"time_elapsed":1720250,"internal_node_id":"0.0-83.0"},{"phase":1,"order":[40,35,10,23,25,3,34,31,18,0,20,12,43,47,19,13,48,11,9,33,49,7,24,2,4,46,5,42,45,37,14,44,28,8,29,32,38,39,16,26,27,1,36,22,30,41,17,21,15,6],"trial_type":"store_order","trial_index":84,"time_elapsed":1721263,"internal_node_id":"0.0-84.0"},{"result":176,"points":1,"place":4,"phase":1,"sequence":0,"prices":[161,180,170,174,178,198,173,182,188,176],"times":[2219,552,463,836,576,922,590,684,779,651],"next_num":10,"trial_type":"ticket-choose","trial_index":85,"time_elapsed":1733873,"internal_node_id":"0.0-85.0"},{"result":175,"points":1,"place":4,"phase":1,"sequence":1,"prices":[159,178,170,174,176,194,173,182,185,175],"times":[2126,867,669,690,602,669,598,504,559,490],"next_num":11,"trial_type":"ticket-choose","trial_index":86,"time_elapsed":1746385,"internal_node_id":"0.0-86.0"},{"result":177,"points":0,"place":5,"phase":1,"sequence":2,"prices":[174,178,168,192,177,181,176,171,163,182],"times":[624,493,460,782,866],"next_num":5,"trial_type":"ticket-choose","trial_index":87,"time_elapsed":1752417,"internal_node_id":"0.0-87.0"},{"result":174,"points":1,"place":2,"phase":1,"sequence":3,"prices":[170,183,172,175,180,189,174,187,188,179],"times":[677,738,629,585,736,1579,1061],"next_num":7,"trial_type":"ticket-choose","trial_index":88,"time_elapsed":1761764,"internal_node_id":"0.0-88.0"},{"result":166,"points":3,"place":0,"phase":1,"sequence":4,"prices":[175,180,178,195,179,184,170,174,166,185],"times":[645,353,253,246,383,332,508,596,699],"next_num":9,"trial_type":"ticket-choose","trial_index":89,"time_elapsed":1769893,"internal_node_id":"0.0-89.0"},{"result":190,"points":0,"place":7,"phase":1,"sequence":5,"prices":[179,174,199,178,196,167,170,184,177,190],"times":[45419,813,755,596,766,641,1266,710,1198,711],"next_num":10,"trial_type":"ticket-choose","trial_index":90,"time_elapsed":1950384,"internal_node_id":"0.0-90.0"},{"result":174,"points":2,"place":1,"phase":1,"sequence":6,"prices":[180,175,173,177,191,190,184,196,174,181],"times":[14111,752,618,911,882,690,690,854,963],"next_num":9,"trial_type":"ticket-choose","trial_index":91,"time_elapsed":1981875,"internal_node_id":"0.0-91.0"},{"result":165,"points":3,"place":0,"phase":1,"sequence":7,"prices":[165,187,173,177,186,196,176,191,192,181],"times":[1534],"next_num":1,"trial_type":"ticket-choose","trial_index":92,"time_elapsed":1985435,"internal_node_id":"0.0-92.0"},{"result":172,"points":1,"place":2,"phase":1,"sequence":8,"prices":[173,178,176,193,177,182,168,172,164,183],"times":[1019,629,876,778,584,675,684,815],"next_num":8,"trial_type":"ticket-choose","trial_index":93,"time_elapsed":2008454,"internal_node_id":"0.0-93.0"},{"result":170,"points":2,"place":1,"phase":1,"sequence":9,"prices":[176,180,178,194,179,183,170,173,165,184],"times":[1229,756,653,703,1015,811,1212],"next_num":7,"trial_type":"ticket-choose","trial_index":94,"time_elapsed":2018207,"internal_node_id":"0.0-94.0"},{"result":166,"points":3,"place":0,"phase":1,"sequence":10,"prices":[175,180,170,195,179,184,178,174,166,185],"times":[1574,714,670,1116,710,734,1454,1235,1418],"next_num":9,"trial_type":"ticket-choose","trial_index":95,"time_elapsed":2097700,"internal_node_id":"0.0-95.0"},{"result":159,"points":3,"place":0,"phase":1,"sequence":11,"prices":[181,180,191,186,165,197,159,167,194,185],"times":[1617,1375,665,720,649,774,870],"next_num":7,"trial_type":"ticket-choose","trial_index":96,"time_elapsed":2107536,"internal_node_id":"0.0-96.0"},{"result":183,"points":1,"place":4,"phase":1,"sequence":12,"prices":[168,188,171,181,184,196,180,194,195,183],"times":[796,747,738,667,711,1067,4578,749,997,790],"next_num":10,"trial_type":"ticket-choose","trial_index":97,"time_elapsed":2123413,"internal_node_id":"0.0-97.0"},{"result":169,"points":2,"place":1,"phase":1,"sequence":13,"prices":[175,179,169,193,178,182,177,172,164,183],"times":[5579,3265,912],"next_num":3,"trial_type":"ticket-choose","trial_index":98,"time_elapsed":2135573,"internal_node_id":"0.0-98.0"},{"result":170,"points":3,"place":0,"phase":1,"sequence":14,"prices":[181,179,199,188,170,172,178,187,191,177],"times":[5486,776,751,927,2788],"next_num":5,"trial_type":"ticket-choose","trial_index":99,"time_elapsed":2190714,"internal_node_id":"0.0-99.0"},{"result":169,"points":2,"place":1,"phase":1,"sequence":15,"prices":[180,165,177,193,186,196,187,169,171,182],"times":[2692,1880,1479,761,637,795,613,851],"next_num":8,"trial_type":"ticket-choose","trial_index":100,"time_elapsed":2203926,"internal_node_id":"0.0-100.0"},{"result":169,"points":2,"place":1,"phase":1,"sequence":16,"prices":[174,179,169,194,178,183,177,173,165,184],"times":[2006,513,961],"next_num":3,"trial_type":"ticket-choose","trial_index":101,"time_elapsed":2209654,"internal_node_id":"0.0-101.0"},{"result":165,"points":3,"place":0,"phase":1,"sequence":17,"prices":[176,180,170,194,179,183,178,173,165,184],"times":[550,603,515,585,608,574,557,649,740],"next_num":9,"trial_type":"ticket-choose","trial_index":102,"time_elapsed":2220197,"internal_node_id":"0.0-102.0"},{"result":166,"points":3,"place":0,"phase":1,"sequence":18,"prices":[175,180,178,195,179,184,170,174,166,185],"times":[111353,660,621,716,615,649,606,668,741],"next_num":9,"trial_type":"ticket-choose","trial_index":103,"time_elapsed":2392165,"internal_node_id":"0.0-103.0"},{"result":150,"points":3,"place":0,"phase":1,"sequence":19,"prices":[175,150,164,155,171,199,158,180,184,196],"times":[1817,878],"next_num":2,"trial_type":"ticket-choose","trial_index":104,"time_elapsed":2397015,"internal_node_id":"0.0-104.0"},{"result":169,"points":2,"place":1,"phase":1,"sequence":20,"prices":[174,179,177,194,178,183,169,173,165,184],"times":[2533,2143,656,804,673,764,773],"next_num":7,"trial_type":"ticket-choose","trial_index":105,"time_elapsed":2408640,"internal_node_id":"0.0-105.0"},{"result":168,"points":2,"place":1,"phase":1,"sequence":21,"prices":[181,175,182,168,183,173,153,170,193,179],"times":[794,2324,635,966],"next_num":4,"trial_type":"ticket-choose","trial_index":106,"time_elapsed":2415956,"internal_node_id":"0.0-106.0"},{"result":163,"points":3,"place":0,"phase":1,"sequence":22,"prices":[163,185,165,174,181,198,173,186,187,180],"times":[1108],"next_num":1,"trial_type":"ticket-choose","trial_index":107,"time_elapsed":2419024,"internal_node_id":"0.0-107.0"},{"result":165,"points":3,"place":0,"phase":1,"sequence":23,"prices":[176,180,170,194,179,183,178,173,165,184],"times":[710,629,632,758,632,732,975,1289,821],"next_num":9,"trial_type":"ticket-choose","trial_index":108,"time_elapsed":2429917,"internal_node_id":"0.0-108.0"},{"result":154,"points":3,"place":0,"phase":1,"sequence":24,"prices":[188,179,154,183,173,170,177,160,169,175],"times":[1708,899,1038],"next_num":3,"trial_type":"ticket-choose","trial_index":109,"time_elapsed":2435874,"internal_node_id":"0.0-109.0"},{"result":157,"points":3,"place":0,"phase":1,"sequence":25,"prices":[157,184,163,174,181,190,168,187,189,177],"times":[1188],"next_num":1,"trial_type":"ticket-choose","trial_index":110,"time_elapsed":2438942,"internal_node_id":"0.0-110.0"},{"result":165,"points":3,"place":0,"phase":1,"sequence":26,"prices":[175,189,193,170,179,165,180,186,177,184],"times":[699,664,617,571,627,958],"next_num":6,"trial_type":"ticket-choose","trial_index":111,"time_elapsed":2446001,"internal_node_id":"0.0-111.0"},{"result":163,"points":3,"place":0,"phase":1,"sequence":27,"prices":[174,178,168,192,177,181,176,171,163,182],"times":[1069,410,511,1293,599,675,658,1044,828],"next_num":9,"trial_type":"ticket-choose","trial_index":112,"time_elapsed":2456940,"internal_node_id":"0.0-112.0"},{"result":198,"points":0,"place":8,"phase":1,"sequence":28,"prices":[166,190,170,173,178,203,172,192,198,174],"times":[1357,803,1615,705,759,847,1019,886,1231],"next_num":9,"trial_type":"ticket-choose","trial_index":113,"time_elapsed":2470111,"internal_node_id":"0.0-113.0"},{"result":165,"points":3,"place":0,"phase":1,"sequence":29,"prices":[174,179,177,194,178,183,169,173,165,184],"times":[1082,803,616,1539,774,660,672,870,782],"next_num":9,"trial_type":"ticket-choose","trial_index":114,"time_elapsed":2481902,"internal_node_id":"0.0-114.0"},{"result":160,"points":3,"place":0,"phase":1,"sequence":30,"prices":[175,193,175,160,180,170,175,205,177,167],"times":[1421,1324,614,825],"next_num":4,"trial_type":"ticket-choose","trial_index":115,"time_elapsed":2488601,"internal_node_id":"0.0-115.0"},{"result":160,"points":3,"place":0,"phase":1,"sequence":31,"prices":[160,185,170,174,182,196,173,186,194,177],"times":[17421],"next_num":1,"trial_type":"ticket-choose","trial_index":116,"time_elapsed":2509132,"internal_node_id":"0.0-116.0"},{"result":168,"points":2,"place":1,"phase":1,"sequence":32,"prices":[173,178,176,193,177,182,168,172,164,183],"times":[915,872,678,784,598,699,1098],"next_num":7,"trial_type":"ticket-choose","trial_index":117,"time_elapsed":2517921,"internal_node_id":"0.0-117.0"},{"result":166,"points":3,"place":0,"phase":1,"sequence":33,"prices":[175,180,170,195,179,184,178,174,166,185],"times":[1602,819,729,731,712,852,1766,865,898],"next_num":9,"trial_type":"ticket-choose","trial_index":118,"time_elapsed":2564524,"internal_node_id":"0.0-118.0"},{"result":164,"points":3,"place":0,"phase":1,"sequence":34,"prices":[173,178,168,193,177,182,176,172,164,183],"times":[18663,3240,633,957,647,766,768,908,803],"next_num":9,"trial_type":"ticket-choose","trial_index":119,"time_elapsed":2595536,"internal_node_id":"0.0-119.0"},{"result":175,"points":1,"place":4,"phase":1,"sequence":35,"prices":[171,180,172,174,179,188,173,183,186,175],"times":[725,448,508,810,813,662,923,758,839,1593],"next_num":10,"trial_type":"ticket-choose","trial_index":120,"time_elapsed":2607515,"internal_node_id":"0.0-120.0"},{"result":162,"points":3,"place":0,"phase":1,"sequence":36,"prices":[179,174,172,162,202,184,165,197,185,169],"times":[852,804,482,920],"next_num":4,"trial_type":"ticket-choose","trial_index":121,"time_elapsed":2613023,"internal_node_id":"0.0-121.0"},{"result":157,"points":2,"place":1,"phase":1,"sequence":37,"prices":[188,191,179,157,181,164,166,156,175,182],"times":[752,840,686,1047],"next_num":4,"trial_type":"ticket-choose","trial_index":122,"time_elapsed":2618855,"internal_node_id":"0.0-122.0"},{"result":168,"points":2,"place":1,"phase":1,"sequence":38,"prices":[174,178,176,192,177,181,168,171,163,182],"times":[754,559,630,748,751,796,974],"next_num":7,"trial_type":"ticket-choose","trial_index":123,"time_elapsed":2627247,"internal_node_id":"0.0-123.0"},{"result":165,"points":3,"place":0,"phase":1,"sequence":39,"prices":[176,180,178,194,179,183,170,173,165,184],"times":[911,5579,2450,913,1403,822,657,1782,926],"next_num":9,"trial_type":"ticket-choose","trial_index":124,"time_elapsed":2647120,"internal_node_id":"0.0-124.0"},{"result":169,"points":1,"place":2,"phase":1,"sequence":40,"prices":[189,185,169,168,167,171,180,173,174,188],"times":[1165,1929,2666],"next_num":3,"trial_type":"ticket-choose","trial_index":125,"time_elapsed":2655333,"internal_node_id":"0.0-125.0"},{"result":156,"points":3,"place":0,"phase":1,"sequence":41,"prices":[195,177,197,179,171,173,175,156,163,204],"times":[571,487,596,499,635,601,597,839],"next_num":8,"trial_type":"ticket-choose","trial_index":126,"time_elapsed":2663893,"internal_node_id":"0.0-126.0"},{"result":165,"points":3,"place":0,"phase":1,"sequence":42,"prices":[174,179,169,194,178,183,177,173,165,184],"times":[856,674,419,561,1414,596,449,633,897],"next_num":9,"trial_type":"ticket-choose","trial_index":127,"time_elapsed":2674098,"internal_node_id":"0.0-127.0"},{"result":168,"points":2,"place":1,"phase":1,"sequence":43,"prices":[173,178,168,193,177,182,176,172,164,183],"times":[4686,940,1383],"next_num":3,"trial_type":"ticket-choose","trial_index":128,"time_elapsed":2683575,"internal_node_id":"0.0-128.0"},{"result":166,"points":3,"place":0,"phase":1,"sequence":44,"prices":[179,186,197,201,166,187,188,193,190,177],"times":[48331,622,737,868,851],"next_num":5,"trial_type":"ticket-choose","trial_index":129,"time_elapsed":2737903,"internal_node_id":"0.0-129.0"},{"result":168,"points":2,"place":1,"phase":1,"sequence":45,"prices":[174,178,176,192,177,181,168,171,163,182],"times":[1953,531,482,665,596,708,796],"next_num":7,"trial_type":"ticket-choose","trial_index":130,"time_elapsed":2746816,"internal_node_id":"0.0-130.0"},{"result":164,"points":3,"place":0,"phase":1,"sequence":46,"prices":[175,179,169,193,178,182,177,172,164,183],"times":[595,615,422,459,586,3293,689,698,893],"next_num":9,"trial_type":"ticket-choose","trial_index":131,"time_elapsed":2759873,"internal_node_id":"0.0-131.0"},{"result":164,"points":3,"place":0,"phase":1,"sequence":47,"prices":[175,179,177,193,178,182,169,172,164,183],"times":[992,895,450,567,605,723,570,1168,814],"next_num":9,"trial_type":"ticket-choose","trial_index":132,"time_elapsed":2770521,"internal_node_id":"0.0-132.0"},{"result":169,"points":2,"place":1,"phase":1,"sequence":48,"prices":[175,179,177,193,178,182,169,172,164,183],"times":[905,624,730,682,1209,775,1131],"next_num":7,"trial_type":"ticket-choose","trial_index":133,"time_elapsed":2781128,"internal_node_id":"0.0-133.0"},{"result":187,"points":0,"place":7,"phase":1,"sequence":49,"prices":[193,173,175,182,179,198,181,171,176,187],"times":[953,715,456,484,626,1032,908,856,4593,1356],"next_num":10,"trial_type":"ticket-choose","trial_index":134,"time_elapsed":2797006,"internal_node_id":"0.0-134.0"},{"responses":[{"value":2,"offby":2,"category":"$140 - $250","category_index":0},{"value":2,"offby":2,"category":"$151 - $160","category_index":1},{"value":4,"offby":0,"category":"$161 - $170","category_index":2},{"value":6,"offby":0,"category":"$171 - $180","category_index":3},{"value":3,"offby":-4,"category":"$181 - $190","category_index":4},{"value":2,"offby":-1,"category":"$191 - $200","category_index":5},{"value":1,"offby":1,"category":"$201 - $210","category_index":6}],"phase":1,"number":1,"trial_type":"bar-choose","trial_index":135,"time_elapsed":2846585,"internal_node_id":"0.0-135.0"},{"special_comment":"No","trial_type":"special_sequence","trial_index":136,"time_elapsed":2852719,"internal_node_id":"0.0-136.0"},{"during":"Eating","bonus":292,"trial_type":"final","trial_index":137,"time_elapsed":2907528,"internal_node_id":"0.0-137.0"}],"bonus":292}