{"start_time":"2017-02-24 16:46:56","end_time":"2017-02-24 17:09:51","points_phase0":114,"points_phase1":88,"phase_order":1,"age":29,"gender":"f","tries":2,"during":"Nothing","worker_id":"A3F7FH2NDBBN1M","assignment_id":"3MRNMEIQW6Z04Y0O35N5BGSZEXVLDX","data":[{"rt":5729,"url":"\/tickets\/utils\/consent.html","trial_type":"html","trial_index":0,"time_elapsed":6225,"internal_node_id":"0.0-0.0"},{"age":29,"gender":"f","trial_type":"age","trial_index":1,"time_elapsed":11621,"internal_node_id":"0.0-1.0"},{"worker_id":"A3F7FH2NDBBN1M","trial_type":"workerid","trial_index":2,"time_elapsed":19919,"internal_node_id":"0.0-2.0"},{"tries":2,"trial_type":"instructions_check","trial_index":3,"time_elapsed":60890,"internal_node_id":"0.0-3.0"},{"rt":11487,"url":"\/tickets\/utils\/start.html","trial_type":"html","trial_index":4,"time_elapsed":73524,"internal_node_id":"0.0-4.0"},{"trial_type":"number-animation","trial_index":5,"time_elapsed":92614,"internal_node_id":"0.0-5.0"},{"phase":0,"sequence":0,"avg":166,"response":150,"trial_type":"training_avg","trial_index":6,"time_elapsed":101675,"internal_node_id":"0.0-6.0"},{"trial_type":"number-animation","trial_index":7,"time_elapsed":107889,"internal_node_id":"0.0-7.0"},{"phase":0,"sequence":1,"avg":198,"response":168,"trial_type":"training_avg","trial_index":8,"time_elapsed":120773,"internal_node_id":"0.0-8.0"},{"trial_type":"number-animation","trial_index":9,"time_elapsed":129324,"internal_node_id":"0.0-9.0"},{"phase":0,"sequence":2,"avg":177,"response":203,"trial_type":"training_avg","trial_index":10,"time_elapsed":158741,"internal_node_id":"0.0-10.0"},{"trial_type":"number-animation","trial_index":11,"time_elapsed":166610,"internal_node_id":"0.0-11.0"},{"phase":0,"sequence":3,"avg":190,"response":190,"trial_type":"training_avg","trial_index":12,"time_elapsed":174876,"internal_node_id":"0.0-12.0"},{"trial_type":"number-animation","trial_index":13,"time_elapsed":181504,"internal_node_id":"0.0-13.0"},{"phase":0,"sequence":4,"avg":201,"response":186,"trial_type":"training_avg","trial_index":14,"time_elapsed":188999,"internal_node_id":"0.0-14.0"},{"responses":[{"value":1,"offby":0,"category":"$30 - $75","category_index":0},{"value":1,"offby":-1,"category":"$76 - $120","category_index":1},{"value":2,"offby":-2,"category":"$121 - $165","category_index":2},{"value":2,"offby":-4,"category":"$166 - $210","category_index":3},{"value":2,"offby":-4,"category":"$211 - $255","category_index":4},{"value":1,"offby":0,"category":"$256 - $300","category_index":5},{"value":1,"offby":1,"category":"$301 - $345","category_index":6}],"phase":0,"number":0,"trial_type":"bar-choose","trial_index":15,"time_elapsed":242464,"internal_node_id":"0.0-15.0"},{"rt":18458,"url":"\/tickets\/\/utils\/testing.html","trial_type":"html","trial_index":16,"time_elapsed":262073,"internal_node_id":"0.0-16.0"},{"phase":0,"order":[35,7,27,34,8,10,38,11,40,3,26,42,36,1,32,2,12,4,31,14,21,28,49,5,22,15,0,23,19,29,44,25,18,37,6,20,47,33,13,30,41,39,24,9,48,43,17,46,16,45],"trial_type":"store_order","trial_index":17,"time_elapsed":263076,"internal_node_id":"0.0-17.0"},{"result":126,"points":3,"place":0,"phase":0,"sequence":-1,"prices":[184,180,224,165,181,199,185,193,218,126],"times":[31989,1236,783,607,620,584,551,714,634,1186],"next_num":10,"trial_type":"ticket-choose","trial_index":18,"time_elapsed":306547,"internal_node_id":"0.0-18.0"},{"rt":3536,"url":"\/tickets\/utils\/testing_after.html","trial_type":"html","trial_index":19,"time_elapsed":311222,"internal_node_id":"0.0-19.0"},{"result":120,"points":2,"place":1,"phase":0,"sequence":0,"prices":[186,156,191,120,195,145,45,130,246,176],"times":[1603,975,571,952],"next_num":4,"trial_type":"ticket-choose","trial_index":20,"time_elapsed":318320,"internal_node_id":"0.0-20.0"},{"result":101,"points":3,"place":0,"phase":0,"sequence":1,"prices":[156,175,125,245,170,190,165,140,101,196],"times":[1389,490,356,599,548,492,515,615,1035],"next_num":9,"trial_type":"ticket-choose","trial_index":21,"time_elapsed":328151,"internal_node_id":"0.0-21.0"},{"result":126,"points":1,"place":2,"phase":0,"sequence":2,"prices":[176,150,141,91,290,201,106,266,206,126],"times":[651,486,609,722,629,716,591,658,662,832],"next_num":10,"trial_type":"ticket-choose","trial_index":22,"time_elapsed":338766,"internal_node_id":"0.0-22.0"},{"result":95,"points":3,"place":0,"phase":0,"sequence":3,"prices":[95,205,106,151,186,271,145,210,215,181],"times":[1044],"next_num":1,"trial_type":"ticket-choose","trial_index":23,"time_elapsed":341874,"internal_node_id":"0.0-23.0"},{"result":110,"points":3,"place":0,"phase":0,"sequence":4,"prices":[156,181,171,256,175,200,131,150,110,206],"times":[1325,491,546,574,585,651,691,511,979],"next_num":9,"trial_type":"ticket-choose","trial_index":24,"time_elapsed":351767,"internal_node_id":"0.0-24.0"},{"result":116,"points":3,"place":0,"phase":0,"sequence":5,"prices":[176,150,276,171,261,116,130,201,166,231],"times":[825,668,528,723,595,930],"next_num":6,"trial_type":"ticket-choose","trial_index":25,"time_elapsed":358963,"internal_node_id":"0.0-25.0"},{"result":105,"points":3,"place":0,"phase":0,"sequence":6,"prices":[151,176,126,251,170,196,165,145,105,201],"times":[601,498,466,409,496,530,505,555,974],"next_num":9,"trial_type":"ticket-choose","trial_index":26,"time_elapsed":367519,"internal_node_id":"0.0-26.0"},{"result":100,"points":3,"place":0,"phase":0,"sequence":7,"prices":[146,170,121,245,166,190,161,141,100,195],"times":[805,564,650,582,501,548,583,502,884],"next_num":9,"trial_type":"ticket-choose","trial_index":27,"time_elapsed":376580,"internal_node_id":"0.0-27.0"},{"result":100,"points":3,"place":0,"phase":0,"sequence":8,"prices":[146,171,120,245,165,191,160,140,100,196],"times":[503,364,331,913,470,571,829,722,1571],"next_num":9,"trial_type":"ticket-choose","trial_index":28,"time_elapsed":386407,"internal_node_id":"0.0-28.0"},{"result":120,"points":2,"place":1,"phase":0,"sequence":9,"prices":[150,170,160,241,166,186,120,136,96,191],"times":[566,361,394,293,523,672,1901],"next_num":7,"trial_type":"ticket-choose","trial_index":29,"time_elapsed":394295,"internal_node_id":"0.0-29.0"},{"result":150,"points":2,"place":1,"phase":0,"sequence":10,"prices":[181,156,145,165,236,231,201,260,150,185],"times":[1041,648,568,467,656,593,1686,625,962],"next_num":9,"trial_type":"ticket-choose","trial_index":30,"time_elapsed":405103,"internal_node_id":"0.0-30.0"},{"result":126,"points":2,"place":1,"phase":0,"sequence":11,"prices":[150,175,166,251,170,196,126,145,105,201],"times":[928,640,747,540,610,571,1054],"next_num":7,"trial_type":"ticket-choose","trial_index":31,"time_elapsed":413315,"internal_node_id":"0.0-31.0"},{"result":156,"points":1,"place":4,"phase":0,"sequence":12,"prices":[75,171,131,151,161,250,145,190,206,156],"times":[611,639,537,604,655,651,538,664,1487,1008],"next_num":10,"trial_type":"ticket-choose","trial_index":32,"time_elapsed":424446,"internal_node_id":"0.0-32.0"},{"result":81,"points":3,"place":0,"phase":0,"sequence":13,"prices":[81,205,130,151,191,261,145,210,250,165],"times":[1246],"next_num":1,"trial_type":"ticket-choose","trial_index":33,"time_elapsed":427708,"internal_node_id":"0.0-33.0"},{"result":101,"points":3,"place":0,"phase":0,"sequence":14,"prices":[155,175,166,245,171,190,125,140,101,196],"times":[1013,499,483,651,692,550,560,573,809],"next_num":9,"trial_type":"ticket-choose","trial_index":34,"time_elapsed":437048,"internal_node_id":"0.0-34.0"},{"result":126,"points":2,"place":1,"phase":0,"sequence":15,"prices":[151,175,166,251,170,195,126,146,105,201],"times":[660,506,516,586,551,577,1124],"next_num":7,"trial_type":"ticket-choose","trial_index":35,"time_elapsed":444604,"internal_node_id":"0.0-35.0"},{"result":105,"points":3,"place":0,"phase":0,"sequence":16,"prices":[160,180,170,251,176,195,131,146,105,200],"times":[601,417,641,572,594,1070,760,784,979],"next_num":9,"trial_type":"ticket-choose","trial_index":36,"time_elapsed":454436,"internal_node_id":"0.0-36.0"},{"result":196,"points":1,"place":4,"phase":0,"sequence":17,"prices":[120,221,135,185,200,261,181,251,255,196],"times":[1770,358,450,417,538,431,477,580,5851,1859],"next_num":10,"trial_type":"ticket-choose","trial_index":37,"time_elapsed":534454,"internal_node_id":"0.0-37.0"},{"result":111,"points":3,"place":0,"phase":0,"sequence":18,"prices":[111,231,131,146,171,295,141,241,271,150],"times":[1503],"next_num":1,"trial_type":"ticket-choose","trial_index":38,"time_elapsed":538105,"internal_node_id":"0.0-38.0"},{"result":61,"points":3,"place":0,"phase":0,"sequence":19,"prices":[255,166,266,175,136,145,155,61,96,301],"times":[1129,682,528,579,1201,467,522,895],"next_num":8,"trial_type":"ticket-choose","trial_index":39,"time_elapsed":547401,"internal_node_id":"0.0-39.0"},{"result":130,"points":2,"place":1,"phase":0,"sequence":20,"prices":[155,225,245,130,176,106,180,211,165,200],"times":[798,569,1077,840],"next_num":4,"trial_type":"ticket-choose","trial_index":40,"time_elapsed":553152,"internal_node_id":"0.0-40.0"},{"result":105,"points":3,"place":0,"phase":0,"sequence":21,"prices":[161,180,131,251,175,196,171,146,105,201],"times":[686,611,858,749,572,591,757,635,1592],"next_num":9,"trial_type":"ticket-choose","trial_index":41,"time_elapsed":564088,"internal_node_id":"0.0-41.0"},{"result":120,"points":2,"place":1,"phase":0,"sequence":22,"prices":[150,171,120,241,165,185,160,135,96,190],"times":[735,511,907],"next_num":3,"trial_type":"ticket-choose","trial_index":42,"time_elapsed":568392,"internal_node_id":"0.0-42.0"},{"result":81,"points":3,"place":0,"phase":0,"sequence":23,"prices":[155,245,155,81,180,130,156,306,166,115],"times":[711,420,424,880],"next_num":4,"trial_type":"ticket-choose","trial_index":43,"time_elapsed":573182,"internal_node_id":"0.0-43.0"},{"result":100,"points":3,"place":0,"phase":0,"sequence":24,"prices":[156,175,126,246,170,190,165,140,100,196],"times":[569,422,475,482,543,515,480,589,906],"next_num":9,"trial_type":"ticket-choose","trial_index":44,"time_elapsed":581656,"internal_node_id":"0.0-44.0"},{"result":65,"points":2,"place":1,"phase":0,"sequence":25,"prices":[220,236,176,65,185,101,110,61,156,191],"times":[511,436,700,955],"next_num":4,"trial_type":"ticket-choose","trial_index":45,"time_elapsed":586716,"internal_node_id":"0.0-45.0"},{"result":220,"points":0,"place":8,"phase":0,"sequence":26,"prices":[226,205,125,120,115,135,180,145,150,220],"times":[490,379,453,435,514,588,580,492,566,1241],"next_num":10,"trial_type":"ticket-choose","trial_index":46,"time_elapsed":596912,"internal_node_id":"0.0-46.0"},{"result":120,"points":2,"place":1,"phase":0,"sequence":27,"prices":[145,171,161,245,165,191,120,140,100,196],"times":[988,607,387,468,477,525,1000],"next_num":7,"trial_type":"ticket-choose","trial_index":47,"time_elapsed":604355,"internal_node_id":"0.0-47.0"},{"result":111,"points":3,"place":0,"phase":0,"sequence":28,"prices":[175,211,266,286,111,216,220,245,230,165],"times":[1209,630,523,444,1118],"next_num":5,"trial_type":"ticket-choose","trial_index":48,"time_elapsed":610950,"internal_node_id":"0.0-48.0"},{"result":165,"points":1,"place":2,"phase":0,"sequence":29,"prices":[185,175,276,221,130,141,171,216,235,165],"times":[884,491,609,742,760,634,732,555,961,700],"next_num":10,"trial_type":"ticket-choose","trial_index":49,"time_elapsed":621752,"internal_node_id":"0.0-49.0"},{"result":130,"points":2,"place":1,"phase":0,"sequence":30,"prices":[155,181,170,255,176,200,130,150,110,205],"times":[671,564,609,485,740,575,1192],"next_num":7,"trial_type":"ticket-choose","trial_index":50,"time_elapsed":629708,"internal_node_id":"0.0-50.0"},{"result":131,"points":2,"place":1,"phase":0,"sequence":31,"prices":[161,180,171,250,176,195,131,146,105,201],"times":[878,516,688,507,579,551,892],"next_num":7,"trial_type":"ticket-choose","trial_index":51,"time_elapsed":637328,"internal_node_id":"0.0-51.0"},{"result":130,"points":3,"place":0,"phase":0,"sequence":32,"prices":[130,195,141,155,181,226,150,216,221,175],"times":[1098],"next_num":1,"trial_type":"ticket-choose","trial_index":52,"time_elapsed":640461,"internal_node_id":"0.0-52.0"},{"result":126,"points":2,"place":1,"phase":0,"sequence":33,"prices":[150,176,126,251,171,195,165,145,105,200],"times":[1091,514,816],"next_num":3,"trial_type":"ticket-choose","trial_index":53,"time_elapsed":645381,"internal_node_id":"0.0-53.0"},{"result":111,"points":3,"place":0,"phase":0,"sequence":34,"prices":[156,181,130,255,175,200,170,150,111,205],"times":[1193,550,919,475,510,595,563,473,1008],"next_num":9,"trial_type":"ticket-choose","trial_index":54,"time_elapsed":655245,"internal_node_id":"0.0-54.0"},{"result":155,"points":1,"place":4,"phase":0,"sequence":35,"prices":[135,180,141,151,175,220,145,196,211,155],"times":[941,425,309,388,509,543,507,483,643,1092],"next_num":10,"trial_type":"ticket-choose","trial_index":55,"time_elapsed":664723,"internal_node_id":"0.0-55.0"},{"result":106,"points":2,"place":1,"phase":0,"sequence":36,"prices":[185,180,235,210,106,266,76,115,250,205],"times":[985,444,548,479,1190],"next_num":5,"trial_type":"ticket-choose","trial_index":56,"time_elapsed":671083,"internal_node_id":"0.0-56.0"},{"result":70,"points":1,"place":2,"phase":0,"sequence":37,"prices":[155,30,101,55,136,276,70,181,200,261],"times":[996,688,997,400,725,515,795],"next_num":7,"trial_type":"ticket-choose","trial_index":57,"time_elapsed":679274,"internal_node_id":"0.0-57.0"},{"result":215,"points":0,"place":7,"phase":0,"sequence":38,"prices":[246,145,155,191,176,270,185,136,160,215],"times":[994,499,530,579,636,537,544,536,676,1342],"next_num":10,"trial_type":"ticket-choose","trial_index":58,"time_elapsed":690522,"internal_node_id":"0.0-58.0"},{"result":101,"points":3,"place":0,"phase":0,"sequence":39,"prices":[156,176,165,246,171,190,126,141,101,196],"times":[1103,552,533,532,641,672,674,1096,1051],"next_num":9,"trial_type":"ticket-choose","trial_index":59,"time_elapsed":700945,"internal_node_id":"0.0-59.0"},{"result":51,"points":3,"place":0,"phase":0,"sequence":40,"prices":[221,175,51,196,146,130,166,80,126,156],"times":[924,711,999],"next_num":3,"trial_type":"ticket-choose","trial_index":60,"time_elapsed":705829,"internal_node_id":"0.0-60.0"},{"result":96,"points":2,"place":1,"phase":0,"sequence":41,"prices":[66,201,96,150,185,230,121,216,225,165],"times":[829,668,809],"next_num":3,"trial_type":"ticket-choose","trial_index":61,"time_elapsed":710902,"internal_node_id":"0.0-61.0"},{"result":111,"points":3,"place":0,"phase":0,"sequence":42,"prices":[156,181,131,256,176,200,171,151,111,206],"times":[1210,520,593,557,700,737,660,588,847],"next_num":9,"trial_type":"ticket-choose","trial_index":62,"time_elapsed":720735,"internal_node_id":"0.0-62.0"},{"result":95,"points":3,"place":0,"phase":0,"sequence":43,"prices":[150,170,160,240,166,185,121,136,95,191],"times":[1132,554,649,582,483,491,467,416,886],"next_num":9,"trial_type":"ticket-choose","trial_index":63,"time_elapsed":730003,"internal_node_id":"0.0-63.0"},{"result":120,"points":2,"place":1,"phase":0,"sequence":44,"prices":[145,170,160,245,165,190,120,141,100,195],"times":[856,493,469,532,494,501,1400],"next_num":7,"trial_type":"ticket-choose","trial_index":64,"time_elapsed":737943,"internal_node_id":"0.0-64.0"},{"result":95,"points":3,"place":0,"phase":0,"sequence":45,"prices":[150,171,121,241,165,185,160,136,95,191],"times":[671,469,490,484,770,636,888,724,1003],"next_num":9,"trial_type":"ticket-choose","trial_index":65,"time_elapsed":747710,"internal_node_id":"0.0-65.0"},{"result":190,"points":0,"place":5,"phase":0,"sequence":46,"prices":[180,106,166,245,211,261,215,125,135,190],"times":[841,594,523,475,470,504,572,531,574,864],"next_num":10,"trial_type":"ticket-choose","trial_index":66,"time_elapsed":757394,"internal_node_id":"0.0-66.0"},{"result":86,"points":3,"place":0,"phase":0,"sequence":47,"prices":[86,180,130,151,170,271,145,191,220,160],"times":[1154],"next_num":1,"trial_type":"ticket-choose","trial_index":67,"time_elapsed":760430,"internal_node_id":"0.0-67.0"},{"result":105,"points":3,"place":0,"phase":0,"sequence":48,"prices":[105,216,146,165,210,260,161,235,241,185],"times":[1065],"next_num":1,"trial_type":"ticket-choose","trial_index":68,"time_elapsed":763314,"internal_node_id":"0.0-68.0"},{"result":105,"points":3,"place":0,"phase":0,"sequence":49,"prices":[160,180,130,251,176,195,170,146,105,200],"times":[1101,589,961,547,459,524,506,546,930],"next_num":9,"trial_type":"ticket-choose","trial_index":69,"time_elapsed":773187,"internal_node_id":"0.0-69.0"},{"responses":[{"value":1,"offby":0,"category":"$30 - $75","category_index":0},{"value":2,"offby":0,"category":"$76 - $120","category_index":1},{"value":4,"offby":0,"category":"$121 - $165","category_index":2},{"value":6,"offby":0,"category":"$166 - $210","category_index":3},{"value":4,"offby":-2,"category":"$211 - $255","category_index":4},{"value":2,"offby":1,"category":"$256 - $300","category_index":5},{"value":1,"offby":1,"category":"$301 - $345","category_index":6}],"phase":0,"number":1,"trial_type":"bar-choose","trial_index":70,"time_elapsed":834995,"internal_node_id":"0.0-70.0"},{"rt":8775,"url":"\/tickets\/utils\/start2.html","trial_type":"html","trial_index":71,"time_elapsed":844935,"internal_node_id":"0.0-71.0"},{"trial_type":"number-animation","trial_index":72,"time_elapsed":852195,"internal_node_id":"0.0-72.0"},{"phase":1,"sequence":0,"avg":180,"response":170,"trial_type":"training_avg","trial_index":73,"time_elapsed":857548,"internal_node_id":"0.0-73.0"},{"trial_type":"number-animation","trial_index":74,"time_elapsed":864125,"internal_node_id":"0.0-74.0"},{"phase":1,"sequence":1,"avg":178,"response":175,"trial_type":"training_avg","trial_index":75,"time_elapsed":868330,"internal_node_id":"0.0-75.0"},{"trial_type":"number-animation","trial_index":76,"time_elapsed":875483,"internal_node_id":"0.0-76.0"},{"phase":1,"sequence":2,"avg":176,"response":178,"trial_type":"training_avg","trial_index":77,"time_elapsed":880940,"internal_node_id":"0.0-77.0"},{"trial_type":"number-animation","trial_index":78,"time_elapsed":888037,"internal_node_id":"0.0-78.0"},{"phase":1,"sequence":3,"avg":178,"response":175,"trial_type":"training_avg","trial_index":79,"time_elapsed":892699,"internal_node_id":"0.0-79.0"},{"trial_type":"number-animation","trial_index":80,"time_elapsed":900256,"internal_node_id":"0.0-80.0"},{"phase":1,"sequence":4,"avg":179,"response":177,"trial_type":"training_avg","trial_index":81,"time_elapsed":905391,"internal_node_id":"0.0-81.0"},{"responses":[{"value":2,"offby":2,"category":"$140 - $250","category_index":0},{"value":2,"offby":2,"category":"$151 - $160","category_index":1},{"value":4,"offby":0,"category":"$161 - $170","category_index":2},{"value":4,"offby":-2,"category":"$171 - $180","category_index":3},{"value":4,"offby":-3,"category":"$181 - $190","category_index":4},{"value":2,"offby":-1,"category":"$191 - $200","category_index":5},{"value":2,"offby":2,"category":"$201 - $210","category_index":6}],"phase":1,"number":0,"trial_type":"bar-choose","trial_index":82,"time_elapsed":940680,"internal_node_id":"0.0-82.0"},{"rt":12918,"url":"\/tickets\/utils\/testing2.html","trial_type":"html","trial_index":83,"time_elapsed":954772,"internal_node_id":"0.0-83.0"},{"phase":1,"order":[37,1,45,25,15,40,2,19,18,21,47,6,28,30,4,7,13,27,29,39,49,8,17,42,0,43,36,22,46,38,14,12,33,3,11,32,34,44,48,5,35,31,10,20,23,16,41,24,26,9],"trial_type":"store_order","trial_index":84,"time_elapsed":955780,"internal_node_id":"0.0-84.0"},{"result":175,"points":0,"place":5,"phase":1,"sequence":0,"prices":[188,179,154,183,173,170,177,160,169,175],"times":[3793,2509,483,516,530,427,425,718,721,872],"next_num":10,"trial_type":"ticket-choose","trial_index":85,"time_elapsed":971199,"internal_node_id":"0.0-85.0"},{"result":169,"points":2,"place":1,"phase":1,"sequence":1,"prices":[174,179,177,194,178,183,169,173,165,184],"times":[593,418,440,470,496,623,1176],"next_num":7,"trial_type":"ticket-choose","trial_index":86,"time_elapsed":978614,"internal_node_id":"0.0-86.0"},{"result":183,"points":1,"place":4,"phase":1,"sequence":2,"prices":[168,188,171,181,184,196,180,194,195,183],"times":[362,650,937,545,487,558,847,480,603,963],"next_num":10,"trial_type":"ticket-choose","trial_index":87,"time_elapsed":989381,"internal_node_id":"0.0-87.0"},{"result":165,"points":2,"place":1,"phase":1,"sequence":3,"prices":[181,180,191,186,165,197,159,167,194,185],"times":[646,468,599,496,1267],"next_num":5,"trial_type":"ticket-choose","trial_index":88,"time_elapsed":995535,"internal_node_id":"0.0-88.0"},{"result":170,"points":2,"place":1,"phase":1,"sequence":4,"prices":[176,180,170,194,179,183,178,173,165,184],"times":[1192,599,1235],"next_num":3,"trial_type":"ticket-choose","trial_index":89,"time_elapsed":1000770,"internal_node_id":"0.0-89.0"},{"result":185,"points":0,"place":8,"phase":1,"sequence":5,"prices":[175,180,170,195,179,184,178,174,166,185],"times":[1208,520,551,602,425,458,542,534,666,762],"next_num":10,"trial_type":"ticket-choose","trial_index":90,"time_elapsed":1010719,"internal_node_id":"0.0-90.0"},{"result":170,"points":3,"place":0,"phase":1,"sequence":6,"prices":[181,179,199,188,170,172,178,187,191,177],"times":[838,678,589,727,1170],"next_num":5,"trial_type":"ticket-choose","trial_index":91,"time_elapsed":1017322,"internal_node_id":"0.0-91.0"},{"result":170,"points":2,"place":1,"phase":1,"sequence":7,"prices":[175,180,170,195,179,184,178,174,166,185],"times":[666,670,1359],"next_num":3,"trial_type":"ticket-choose","trial_index":92,"time_elapsed":1022457,"internal_node_id":"0.0-92.0"},{"result":178,"points":1,"place":4,"phase":1,"sequence":8,"prices":[179,174,199,178,196,167,170,184,177,190],"times":[629,432,477,1109],"next_num":4,"trial_type":"ticket-choose","trial_index":93,"time_elapsed":1027568,"internal_node_id":"0.0-93.0"},{"result":169,"points":2,"place":1,"phase":1,"sequence":9,"prices":[174,179,169,194,178,183,177,173,165,184],"times":[492,384,964],"next_num":3,"trial_type":"ticket-choose","trial_index":94,"time_elapsed":1031512,"internal_node_id":"0.0-94.0"},{"result":192,"points":0,"place":8,"phase":1,"sequence":10,"prices":[165,187,173,177,186,196,176,191,192,181],"times":[333,700,358,397,484,446,489,602,1123],"next_num":9,"trial_type":"ticket-choose","trial_index":95,"time_elapsed":1040312,"internal_node_id":"0.0-95.0"},{"result":175,"points":1,"place":3,"phase":1,"sequence":11,"prices":[175,193,175,160,180,170,175,205,177,167],"times":[540,390,1178],"next_num":3,"trial_type":"ticket-choose","trial_index":96,"time_elapsed":1044704,"internal_node_id":"0.0-96.0"},{"result":169,"points":1,"place":2,"phase":1,"sequence":12,"prices":[189,185,169,168,167,171,180,173,174,188],"times":[573,430,954],"next_num":3,"trial_type":"ticket-choose","trial_index":97,"time_elapsed":1048838,"internal_node_id":"0.0-97.0"},{"result":169,"points":2,"place":1,"phase":1,"sequence":13,"prices":[175,179,169,193,178,182,177,172,164,183],"times":[497,475,1353],"next_num":3,"trial_type":"ticket-choose","trial_index":98,"time_elapsed":1053575,"internal_node_id":"0.0-98.0"},{"result":175,"points":1,"place":4,"phase":1,"sequence":14,"prices":[171,180,172,174,179,188,173,183,186,175],"times":[754,475,370,349,314,712,481,366,571,1016],"next_num":10,"trial_type":"ticket-choose","trial_index":99,"time_elapsed":1063198,"internal_node_id":"0.0-99.0"},{"result":169,"points":2,"place":1,"phase":1,"sequence":15,"prices":[174,179,169,194,178,183,177,173,165,184],"times":[878,356,1221],"next_num":3,"trial_type":"ticket-choose","trial_index":100,"time_elapsed":1067940,"internal_node_id":"0.0-100.0"},{"result":170,"points":2,"place":1,"phase":1,"sequence":16,"prices":[176,180,178,194,179,183,170,173,165,184],"times":[503,285,335,509,491,456,1103],"next_num":7,"trial_type":"ticket-choose","trial_index":101,"time_elapsed":1074707,"internal_node_id":"0.0-101.0"},{"result":169,"points":2,"place":1,"phase":1,"sequence":17,"prices":[175,179,177,193,178,182,169,172,164,183],"times":[792,682,665,476,681,620,973],"next_num":7,"trial_type":"ticket-choose","trial_index":102,"time_elapsed":1082611,"internal_node_id":"0.0-102.0"},{"result":177,"points":1,"place":4,"phase":1,"sequence":18,"prices":[157,184,163,174,181,190,168,187,189,177],"times":[485,291,401,228,410,496,386,651,483,548],"next_num":10,"trial_type":"ticket-choose","trial_index":103,"time_elapsed":1090832,"internal_node_id":"0.0-103.0"},{"result":170,"points":2,"place":1,"phase":1,"sequence":19,"prices":[175,180,178,195,179,184,170,174,166,185],"times":[817,474,502,457,394,462,838],"next_num":7,"trial_type":"ticket-choose","trial_index":104,"time_elapsed":1097886,"internal_node_id":"0.0-104.0"},{"result":163,"points":3,"place":0,"phase":1,"sequence":20,"prices":[174,178,176,192,177,181,168,171,163,182],"times":[513,212,250,567,548,519,599,671,1049],"next_num":9,"trial_type":"ticket-choose","trial_index":105,"time_elapsed":1106319,"internal_node_id":"0.0-105.0"},{"result":170,"points":2,"place":1,"phase":1,"sequence":21,"prices":[159,178,170,174,176,194,173,182,185,175],"times":[630,636,1201],"next_num":3,"trial_type":"ticket-choose","trial_index":106,"time_elapsed":1111007,"internal_node_id":"0.0-106.0"},{"result":170,"points":2,"place":1,"phase":1,"sequence":22,"prices":[175,189,193,170,179,165,180,186,177,184],"times":[552,504,450,876],"next_num":4,"trial_type":"ticket-choose","trial_index":107,"time_elapsed":1115720,"internal_node_id":"0.0-107.0"},{"result":169,"points":2,"place":1,"phase":1,"sequence":23,"prices":[175,179,177,193,178,182,169,172,164,183],"times":[508,401,289,405,682,487,675],"next_num":7,"trial_type":"ticket-choose","trial_index":108,"time_elapsed":1122269,"internal_node_id":"0.0-108.0"},{"result":177,"points":0,"place":5,"phase":1,"sequence":24,"prices":[173,178,176,193,177,182,168,172,164,183],"times":[443,734,372,418,638],"next_num":5,"trial_type":"ticket-choose","trial_index":109,"time_elapsed":1127841,"internal_node_id":"0.0-109.0"},{"result":170,"points":2,"place":1,"phase":1,"sequence":25,"prices":[175,180,178,195,179,184,170,174,166,185],"times":[429,410,494,474,415,482,1045],"next_num":7,"trial_type":"ticket-choose","trial_index":110,"time_elapsed":1134938,"internal_node_id":"0.0-110.0"},{"result":164,"points":3,"place":0,"phase":1,"sequence":26,"prices":[175,179,169,193,178,182,177,172,164,183],"times":[652,409,412,212,644,314,362,512,924],"next_num":9,"trial_type":"ticket-choose","trial_index":111,"time_elapsed":1142819,"internal_node_id":"0.0-111.0"},{"result":168,"points":2,"place":1,"phase":1,"sequence":27,"prices":[173,178,176,193,177,182,168,172,164,183],"times":[553,410,1927,606,532,715,1604],"next_num":7,"trial_type":"ticket-choose","trial_index":112,"time_elapsed":1152191,"internal_node_id":"0.0-112.0"},{"result":173,"points":1,"place":3,"phase":1,"sequence":28,"prices":[173,178,168,193,177,182,176,172,164,183],"times":[14310],"next_num":1,"trial_type":"ticket-choose","trial_index":113,"time_elapsed":1168753,"internal_node_id":"0.0-113.0"},{"result":166,"points":3,"place":0,"phase":1,"sequence":29,"prices":[166,190,170,173,178,203,172,192,198,174],"times":[949],"next_num":1,"trial_type":"ticket-choose","trial_index":114,"time_elapsed":1171517,"internal_node_id":"0.0-114.0"},{"result":196,"points":0,"place":8,"phase":1,"sequence":30,"prices":[175,150,164,155,171,199,158,180,184,196],"times":[1022,464,450,338,492,450,440,579,631,457],"next_num":11,"trial_type":"ticket-choose","trial_index":115,"time_elapsed":1180959,"internal_node_id":"0.0-115.0"},{"result":163,"points":3,"place":0,"phase":1,"sequence":31,"prices":[163,185,165,174,181,198,173,186,187,180],"times":[1452],"next_num":1,"trial_type":"ticket-choose","trial_index":116,"time_elapsed":1184425,"internal_node_id":"0.0-116.0"},{"result":164,"points":3,"place":0,"phase":1,"sequence":32,"prices":[173,178,168,193,177,182,176,172,164,183],"times":[1372,521,466,539,3184,648,938,721,721],"next_num":9,"trial_type":"ticket-choose","trial_index":117,"time_elapsed":1196960,"internal_node_id":"0.0-117.0"},{"result":153,"points":3,"place":0,"phase":1,"sequence":33,"prices":[181,175,182,168,183,173,153,170,193,179],"times":[2199,901,549,645,669,717,1236],"next_num":7,"trial_type":"ticket-choose","trial_index":118,"time_elapsed":1206985,"internal_node_id":"0.0-118.0"},{"result":169,"points":2,"place":1,"phase":1,"sequence":34,"prices":[174,179,177,194,178,183,169,173,165,184],"times":[1276,519,585,1036,697,663,875],"next_num":7,"trial_type":"ticket-choose","trial_index":119,"time_elapsed":1215758,"internal_node_id":"0.0-119.0"},{"result":163,"points":3,"place":0,"phase":1,"sequence":35,"prices":[174,178,176,192,177,181,168,171,163,182],"times":[3164,448,515,708,584,695,677,551,1321],"next_num":9,"trial_type":"ticket-choose","trial_index":120,"time_elapsed":1228763,"internal_node_id":"0.0-120.0"},{"result":181,"points":0,"place":5,"phase":1,"sequence":36,"prices":[180,175,173,177,191,190,184,196,174,181],"times":[1941,539,542,441,507,525,550,588,988,724],"next_num":10,"trial_type":"ticket-choose","trial_index":121,"time_elapsed":1239814,"internal_node_id":"0.0-121.0"},{"result":179,"points":1,"place":4,"phase":1,"sequence":37,"prices":[170,183,172,175,180,189,174,187,188,179],"times":[1006,624,687,606,667,531,705,589,563,894],"next_num":10,"trial_type":"ticket-choose","trial_index":122,"time_elapsed":1250343,"internal_node_id":"0.0-122.0"},{"result":176,"points":1,"place":3,"phase":1,"sequence":38,"prices":[176,180,178,194,179,183,170,173,165,184],"times":[1408],"next_num":1,"trial_type":"ticket-choose","trial_index":123,"time_elapsed":1253696,"internal_node_id":"0.0-123.0"},{"result":160,"points":3,"place":0,"phase":1,"sequence":39,"prices":[160,185,170,174,182,196,173,186,194,177],"times":[984],"next_num":1,"trial_type":"ticket-choose","trial_index":124,"time_elapsed":1256764,"internal_node_id":"0.0-124.0"},{"result":165,"points":3,"place":0,"phase":1,"sequence":40,"prices":[180,165,177,193,186,196,187,169,171,182],"times":[1098,883],"next_num":2,"trial_type":"ticket-choose","trial_index":125,"time_elapsed":1260812,"internal_node_id":"0.0-125.0"},{"result":177,"points":0,"place":5,"phase":1,"sequence":41,"prices":[195,177,197,179,171,173,175,156,163,204],"times":[1119,907],"next_num":2,"trial_type":"ticket-choose","trial_index":126,"time_elapsed":1264753,"internal_node_id":"0.0-126.0"},{"result":161,"points":3,"place":0,"phase":1,"sequence":42,"prices":[161,180,170,174,178,198,173,182,188,176],"times":[1242],"next_num":1,"trial_type":"ticket-choose","trial_index":127,"time_elapsed":1267854,"internal_node_id":"0.0-127.0"},{"result":176,"points":1,"place":3,"phase":1,"sequence":43,"prices":[176,180,170,194,179,183,178,173,165,184],"times":[1277],"next_num":1,"trial_type":"ticket-choose","trial_index":128,"time_elapsed":1270837,"internal_node_id":"0.0-128.0"},{"result":173,"points":2,"place":1,"phase":1,"sequence":44,"prices":[193,173,175,182,179,198,181,171,176,187],"times":[816,1103],"next_num":2,"trial_type":"ticket-choose","trial_index":129,"time_elapsed":1274679,"internal_node_id":"0.0-129.0"},{"result":166,"points":1,"place":3,"phase":1,"sequence":45,"prices":[188,191,179,157,181,164,166,156,175,182],"times":[784,937,857,901,1044,776,1251],"next_num":7,"trial_type":"ticket-choose","trial_index":130,"time_elapsed":1284338,"internal_node_id":"0.0-130.0"},{"result":168,"points":2,"place":1,"phase":1,"sequence":46,"prices":[174,178,168,192,177,181,176,171,163,182],"times":[1029,443,964],"next_num":3,"trial_type":"ticket-choose","trial_index":131,"time_elapsed":1289353,"internal_node_id":"0.0-131.0"},{"result":166,"points":3,"place":0,"phase":1,"sequence":47,"prices":[179,186,197,201,166,187,188,193,190,177],"times":[943,613,521,633,1325],"next_num":5,"trial_type":"ticket-choose","trial_index":132,"time_elapsed":1296157,"internal_node_id":"0.0-132.0"},{"result":168,"points":2,"place":1,"phase":1,"sequence":48,"prices":[174,178,168,192,177,181,176,171,163,182],"times":[1713,443,1036],"next_num":3,"trial_type":"ticket-choose","trial_index":133,"time_elapsed":1301570,"internal_node_id":"0.0-133.0"},{"result":162,"points":3,"place":0,"phase":1,"sequence":49,"prices":[179,174,172,162,202,184,165,197,185,169],"times":[1072,558,801,1241],"next_num":4,"trial_type":"ticket-choose","trial_index":134,"time_elapsed":1308246,"internal_node_id":"0.0-134.0"},{"responses":[{"value":1,"offby":1,"category":"$140 - $250","category_index":0},{"value":1,"offby":1,"category":"$151 - $160","category_index":1},{"value":2,"offby":-2,"category":"$161 - $170","category_index":2},{"value":12,"offby":6,"category":"$171 - $180","category_index":3},{"value":2,"offby":-5,"category":"$181 - $190","category_index":4},{"value":1,"offby":-2,"category":"$191 - $200","category_index":5},{"value":1,"offby":1,"category":"$201 - $210","category_index":6}],"phase":1,"number":1,"trial_type":"bar-choose","trial_index":135,"time_elapsed":1340600,"internal_node_id":"0.0-135.0"},{"special_comment":"Therewas less variation in the second","trial_type":"special_sequence","trial_index":136,"time_elapsed":1351275,"internal_node_id":"0.0-136.0"},{"during":"Nothing","bonus":268,"trial_type":"final","trial_index":137,"time_elapsed":1371908,"internal_node_id":"0.0-137.0"}],"bonus":268}