{"start_time":"2017-02-15 09:09:35","end_time":"2017-02-15 09:38:48","points_phase0":112,"points_phase1":101,"phase_order":0,"age":26,"gender":"m","tries":1,"during":"Nothing","worker_id":"A3G00Q5JV2BE5G","assignment_id":"3DUZQ9U6SNH92SV0EZK0TOC15SPVSP","data":[{"rt":16008,"url":"\/tickets\/utils\/consent.html","trial_type":"html","trial_index":0,"time_elapsed":16225,"internal_node_id":"0.0-0.0"},{"age":26,"gender":"m","trial_type":"age","trial_index":1,"time_elapsed":30104,"internal_node_id":"0.0-1.0"},{"worker_id":"A3G00Q5JV2BE5G","trial_type":"workerid","trial_index":2,"time_elapsed":33901,"internal_node_id":"0.0-2.0"},{"tries":1,"trial_type":"instructions_check","trial_index":3,"time_elapsed":44531,"internal_node_id":"0.0-3.0"},{"rt":3785,"url":"\/tickets\/utils\/start.html","trial_type":"html","trial_index":4,"time_elapsed":49443,"internal_node_id":"0.0-4.0"},{"trial_type":"number-animation","trial_index":5,"time_elapsed":61814,"internal_node_id":"0.0-5.0"},{"phase":0,"sequence":0,"avg":181,"response":172,"trial_type":"training_avg","trial_index":6,"time_elapsed":68973,"internal_node_id":"0.0-6.0"},{"trial_type":"number-animation","trial_index":7,"time_elapsed":80291,"internal_node_id":"0.0-7.0"},{"phase":0,"sequence":1,"avg":188,"response":188,"trial_type":"training_avg","trial_index":8,"time_elapsed":109052,"internal_node_id":"0.0-8.0"},{"trial_type":"number-animation","trial_index":9,"time_elapsed":119350,"internal_node_id":"0.0-9.0"},{"phase":0,"sequence":2,"avg":188,"response":191,"trial_type":"training_avg","trial_index":10,"time_elapsed":128650,"internal_node_id":"0.0-10.0"},{"trial_type":"number-animation","trial_index":11,"time_elapsed":140179,"internal_node_id":"0.0-11.0"},{"phase":0,"sequence":3,"avg":177,"response":177,"trial_type":"training_avg","trial_index":12,"time_elapsed":155391,"internal_node_id":"0.0-12.0"},{"trial_type":"number-animation","trial_index":13,"time_elapsed":166333,"internal_node_id":"0.0-13.0"},{"phase":0,"sequence":4,"avg":182,"response":173,"trial_type":"training_avg","trial_index":14,"time_elapsed":177387,"internal_node_id":"0.0-14.0"},{"responses":[{"value":0,"offby":0,"category":"$106 - $134","category_index":0},{"value":1,"offby":0,"category":"$135 - $150","category_index":1},{"value":4,"offby":1,"category":"$151 - $165","category_index":2},{"value":8,"offby":2,"category":"$166 - $180","category_index":3},{"value":5,"offby":-1,"category":"$181 - $195","category_index":4},{"value":2,"offby":-1,"category":"$196 - $210","category_index":5},{"value":0,"offby":-1,"category":"$211 - $225","category_index":6}],"phase":0,"number":0,"trial_type":"bar-choose","trial_index":15,"time_elapsed":284143,"internal_node_id":"0.0-15.0"},{"rt":10568,"url":"\/tickets\/\/utils\/testing.html","trial_type":"html","trial_index":16,"time_elapsed":295849,"internal_node_id":"0.0-16.0"},{"phase":0,"order":[21,26,16,45,10,22,23,42,2,36,1,14,40,7,28,35,3,32,19,24,18,48,31,39,20,0,13,33,43,11,8,17,49,38,9,37,5,29,44,30,27,25,4,6,15,46,34,12,41,47],"trial_type":"store_order","trial_index":17,"time_elapsed":296850,"internal_node_id":"0.0-17.0"},{"result":126,"points":3,"place":0,"phase":0,"sequence":-1,"times":[3396,700,707,722,701,667,779,1014,1027,1980],"next_num":10,"trial_type":"ticket-choose","trial_index":18,"time_elapsed":313261,"internal_node_id":"0.0-18.0"},{"rt":89584,"url":"\/tickets\/utils\/testing_after.html","trial_type":"html","trial_index":19,"time_elapsed":403978,"internal_node_id":"0.0-19.0"},{"result":158,"points":2,"place":1,"phase":0,"sequence":0,"times":[2667,683,699,723,651,670,1370],"next_num":7,"trial_type":"ticket-choose","trial_index":20,"time_elapsed":415225,"internal_node_id":"0.0-20.0"},{"result":152,"points":3,"place":0,"phase":0,"sequence":1,"times":[2694],"next_num":1,"trial_type":"ticket-choose","trial_index":21,"time_elapsed":420218,"internal_node_id":"0.0-21.0"},{"result":158,"points":2,"place":1,"phase":0,"sequence":2,"times":[1551,594,1254],"next_num":3,"trial_type":"ticket-choose","trial_index":22,"time_elapsed":426165,"internal_node_id":"0.0-22.0"},{"result":164,"points":3,"place":0,"phase":0,"sequence":3,"times":[1364,633,625,1102,897,643,715,1119],"next_num":8,"trial_type":"ticket-choose","trial_index":23,"time_elapsed":440367,"internal_node_id":"0.0-23.0"},{"result":169,"points":1,"place":2,"phase":0,"sequence":4,"times":[3023,602,539,661,773,722,764,1095],"next_num":8,"trial_type":"ticket-choose","trial_index":24,"time_elapsed":452465,"internal_node_id":"0.0-24.0"},{"result":158,"points":2,"place":1,"phase":0,"sequence":5,"times":[1018,724,778,764,757,755,1752],"next_num":7,"trial_type":"ticket-choose","trial_index":25,"time_elapsed":462925,"internal_node_id":"0.0-25.0"},{"result":158,"points":2,"place":1,"phase":0,"sequence":6,"times":[153215,595,562,553,683,721,1126],"next_num":7,"trial_type":"ticket-choose","trial_index":26,"time_elapsed":624076,"internal_node_id":"0.0-26.0"},{"result":143,"points":3,"place":0,"phase":0,"sequence":7,"times":[1023,690,697,772,1156],"next_num":5,"trial_type":"ticket-choose","trial_index":27,"time_elapsed":631670,"internal_node_id":"0.0-27.0"},{"result":166,"points":1,"place":2,"phase":0,"sequence":8,"times":[1018,1076,610,667,697,698,602,1060],"next_num":8,"trial_type":"ticket-choose","trial_index":28,"time_elapsed":642103,"internal_node_id":"0.0-28.0"},{"result":165,"points":2,"place":1,"phase":0,"sequence":9,"times":[3705,559,1012],"next_num":3,"trial_type":"ticket-choose","trial_index":29,"time_elapsed":650036,"internal_node_id":"0.0-29.0"},{"result":163,"points":2,"place":1,"phase":0,"sequence":10,"times":[857,633,1148],"next_num":3,"trial_type":"ticket-choose","trial_index":30,"time_elapsed":655190,"internal_node_id":"0.0-30.0"},{"result":167,"points":2,"place":1,"phase":0,"sequence":11,"times":[769,738,658,677,735,698,1222],"next_num":7,"trial_type":"ticket-choose","trial_index":31,"time_elapsed":664288,"internal_node_id":"0.0-31.0"},{"result":150,"points":3,"place":0,"phase":0,"sequence":12,"times":[761,1406],"next_num":2,"trial_type":"ticket-choose","trial_index":32,"time_elapsed":670596,"internal_node_id":"0.0-32.0"},{"result":163,"points":2,"place":1,"phase":0,"sequence":13,"times":[71909,597,758,598,650,677,1374],"next_num":7,"trial_type":"ticket-choose","trial_index":33,"time_elapsed":751884,"internal_node_id":"0.0-33.0"},{"result":169,"points":3,"place":0,"phase":0,"sequence":14,"times":[2116],"next_num":1,"trial_type":"ticket-choose","trial_index":34,"time_elapsed":784618,"internal_node_id":"0.0-34.0"},{"result":154,"points":2,"place":1,"phase":0,"sequence":15,"times":[3816,1263],"next_num":2,"trial_type":"ticket-choose","trial_index":35,"time_elapsed":791905,"internal_node_id":"0.0-35.0"},{"result":163,"points":2,"place":1,"phase":0,"sequence":16,"times":[845,573,1356],"next_num":3,"trial_type":"ticket-choose","trial_index":36,"time_elapsed":796948,"internal_node_id":"0.0-36.0"},{"result":161,"points":3,"place":0,"phase":0,"sequence":17,"times":[1045],"next_num":1,"trial_type":"ticket-choose","trial_index":37,"time_elapsed":799825,"internal_node_id":"0.0-37.0"},{"result":158,"points":2,"place":1,"phase":0,"sequence":18,"times":[1337,576,984],"next_num":3,"trial_type":"ticket-choose","trial_index":38,"time_elapsed":805098,"internal_node_id":"0.0-38.0"},{"result":161,"points":3,"place":0,"phase":0,"sequence":19,"times":[1895],"next_num":1,"trial_type":"ticket-choose","trial_index":39,"time_elapsed":808905,"internal_node_id":"0.0-39.0"},{"result":158,"points":2,"place":1,"phase":0,"sequence":20,"times":[1196,617,844],"next_num":3,"trial_type":"ticket-choose","trial_index":40,"time_elapsed":814602,"internal_node_id":"0.0-40.0"},{"result":147,"points":3,"place":0,"phase":0,"sequence":21,"times":[816,634,1182,1202],"next_num":4,"trial_type":"ticket-choose","trial_index":41,"time_elapsed":821001,"internal_node_id":"0.0-41.0"},{"result":148,"points":3,"place":0,"phase":0,"sequence":22,"times":[2255],"next_num":1,"trial_type":"ticket-choose","trial_index":42,"time_elapsed":825154,"internal_node_id":"0.0-42.0"},{"result":165,"points":3,"place":0,"phase":0,"sequence":23,"times":[1222,917,632,631,1715],"next_num":5,"trial_type":"ticket-choose","trial_index":43,"time_elapsed":833375,"internal_node_id":"0.0-43.0"},{"result":158,"points":2,"place":1,"phase":0,"sequence":24,"times":[1041,577,629,579,749,689,1067],"next_num":7,"trial_type":"ticket-choose","trial_index":44,"time_elapsed":845381,"internal_node_id":"0.0-44.0"},{"result":166,"points":1,"place":2,"phase":0,"sequence":25,"times":[5709,592,659,624,546,557,610,1214],"next_num":8,"trial_type":"ticket-choose","trial_index":45,"time_elapsed":859645,"internal_node_id":"0.0-45.0"},{"result":167,"points":2,"place":1,"phase":0,"sequence":26,"times":[795,602,706,782,787,634,1005],"next_num":7,"trial_type":"ticket-choose","trial_index":46,"time_elapsed":868180,"internal_node_id":"0.0-46.0"},{"result":159,"points":3,"place":0,"phase":0,"sequence":27,"times":[1215],"next_num":1,"trial_type":"ticket-choose","trial_index":47,"time_elapsed":871327,"internal_node_id":"0.0-47.0"},{"result":170,"points":2,"place":1,"phase":0,"sequence":28,"times":[844,512,557,586,606,640,696,801,833,1271],"next_num":10,"trial_type":"ticket-choose","trial_index":48,"time_elapsed":884030,"internal_node_id":"0.0-48.0"},{"result":169,"points":1,"place":2,"phase":0,"sequence":29,"times":[797,588,898,614,596,634,659,1237],"next_num":8,"trial_type":"ticket-choose","trial_index":49,"time_elapsed":893648,"internal_node_id":"0.0-49.0"},{"result":156,"points":3,"place":0,"phase":0,"sequence":30,"times":[690,517,481,527,605,605,640,1646,882,1446],"next_num":10,"trial_type":"ticket-choose","trial_index":50,"time_elapsed":905762,"internal_node_id":"0.0-50.0"},{"result":158,"points":2,"place":1,"phase":0,"sequence":31,"times":[782,427,1084],"next_num":3,"trial_type":"ticket-choose","trial_index":51,"time_elapsed":910353,"internal_node_id":"0.0-51.0"},{"result":148,"points":3,"place":0,"phase":0,"sequence":32,"times":[836,570,542,609,613,1208],"next_num":6,"trial_type":"ticket-choose","trial_index":52,"time_elapsed":918121,"internal_node_id":"0.0-52.0"},{"result":163,"points":3,"place":0,"phase":0,"sequence":33,"times":[6839,657,605,590,604,649,629,1140],"next_num":8,"trial_type":"ticket-choose","trial_index":53,"time_elapsed":933823,"internal_node_id":"0.0-53.0"},{"result":167,"points":2,"place":1,"phase":0,"sequence":34,"times":[17966,596,1553],"next_num":3,"trial_type":"ticket-choose","trial_index":54,"time_elapsed":956897,"internal_node_id":"0.0-54.0"},{"result":163,"points":2,"place":1,"phase":0,"sequence":35,"times":[808,578,575,875],"next_num":4,"trial_type":"ticket-choose","trial_index":55,"time_elapsed":962290,"internal_node_id":"0.0-55.0"},{"result":163,"points":2,"place":1,"phase":0,"sequence":36,"times":[860,578,611,599,805,625,954],"next_num":7,"trial_type":"ticket-choose","trial_index":56,"time_elapsed":970657,"internal_node_id":"0.0-56.0"},{"result":150,"points":3,"place":0,"phase":0,"sequence":37,"times":[18926],"next_num":1,"trial_type":"ticket-choose","trial_index":57,"time_elapsed":993189,"internal_node_id":"0.0-57.0"},{"result":159,"points":1,"place":2,"phase":0,"sequence":38,"times":[826,984],"next_num":2,"trial_type":"ticket-choose","trial_index":58,"time_elapsed":997325,"internal_node_id":"0.0-58.0"},{"result":157,"points":3,"place":0,"phase":0,"sequence":39,"times":[1248],"next_num":1,"trial_type":"ticket-choose","trial_index":59,"time_elapsed":1000579,"internal_node_id":"0.0-59.0"},{"result":186,"points":1,"place":4,"phase":0,"sequence":40,"times":[771,560,562,570,589,575,595,597,949,829],"next_num":10,"trial_type":"ticket-choose","trial_index":60,"time_elapsed":1014648,"internal_node_id":"0.0-60.0"},{"result":156,"points":3,"place":0,"phase":0,"sequence":41,"times":[2073],"next_num":1,"trial_type":"ticket-choose","trial_index":61,"time_elapsed":1019314,"internal_node_id":"0.0-61.0"},{"result":163,"points":2,"place":1,"phase":0,"sequence":42,"times":[20262,500,584,577,587,598,973],"next_num":7,"trial_type":"ticket-choose","trial_index":62,"time_elapsed":1046555,"internal_node_id":"0.0-62.0"},{"result":163,"points":2,"place":1,"phase":0,"sequence":43,"times":[781,572,599,630,685,622,1047],"next_num":7,"trial_type":"ticket-choose","trial_index":63,"time_elapsed":1054707,"internal_node_id":"0.0-63.0"},{"result":167,"points":2,"place":1,"phase":0,"sequence":44,"times":[772,549,681,645,634,542,977],"next_num":7,"trial_type":"ticket-choose","trial_index":64,"time_elapsed":1062830,"internal_node_id":"0.0-64.0"},{"result":175,"points":2,"place":1,"phase":0,"sequence":45,"times":[832,538,559,658,649,569,1230,1106],"next_num":8,"trial_type":"ticket-choose","trial_index":65,"time_elapsed":1072488,"internal_node_id":"0.0-65.0"},{"result":155,"points":2,"place":1,"phase":0,"sequence":46,"times":[809,941],"next_num":2,"trial_type":"ticket-choose","trial_index":66,"time_elapsed":1076564,"internal_node_id":"0.0-66.0"},{"result":167,"points":2,"place":1,"phase":0,"sequence":47,"times":[799,586,522,606,608,647,1307],"next_num":7,"trial_type":"ticket-choose","trial_index":67,"time_elapsed":1084929,"internal_node_id":"0.0-67.0"},{"result":155,"points":2,"place":1,"phase":0,"sequence":48,"times":[824,450,1195],"next_num":3,"trial_type":"ticket-choose","trial_index":68,"time_elapsed":1096364,"internal_node_id":"0.0-68.0"},{"result":152,"points":3,"place":0,"phase":0,"sequence":49,"times":[1022,707,591,1017],"next_num":4,"trial_type":"ticket-choose","trial_index":69,"time_elapsed":1103163,"internal_node_id":"0.0-69.0"},{"responses":[{"value":0,"offby":0,"category":"$106 - $134","category_index":0},{"value":2,"offby":1,"category":"$135 - $150","category_index":1},{"value":4,"offby":1,"category":"$151 - $165","category_index":2},{"value":7,"offby":1,"category":"$166 - $180","category_index":3},{"value":4,"offby":-2,"category":"$181 - $195","category_index":4},{"value":2,"offby":-1,"category":"$196 - $210","category_index":5},{"value":1,"offby":0,"category":"$211 - $225","category_index":6}],"phase":0,"number":1,"trial_type":"bar-choose","trial_index":70,"time_elapsed":1141574,"internal_node_id":"0.0-70.0"},{"rt":7487,"url":"\/tickets\/utils\/start2.html","trial_type":"html","trial_index":71,"time_elapsed":1150187,"internal_node_id":"0.0-71.0"},{"trial_type":"number-animation","trial_index":72,"time_elapsed":1162887,"internal_node_id":"0.0-72.0"},{"phase":1,"sequence":0,"avg":182,"response":184,"trial_type":"training_avg","trial_index":73,"time_elapsed":1169424,"internal_node_id":"0.0-73.0"},{"trial_type":"number-animation","trial_index":74,"time_elapsed":1176543,"internal_node_id":"0.0-74.0"},{"phase":1,"sequence":1,"avg":188,"response":177,"trial_type":"training_avg","trial_index":75,"time_elapsed":1182917,"internal_node_id":"0.0-75.0"},{"trial_type":"number-animation","trial_index":76,"time_elapsed":1192322,"internal_node_id":"0.0-76.0"},{"phase":1,"sequence":2,"avg":176,"response":181,"trial_type":"training_avg","trial_index":77,"time_elapsed":1198896,"internal_node_id":"0.0-77.0"},{"trial_type":"number-animation","trial_index":78,"time_elapsed":1206359,"internal_node_id":"0.0-78.0"},{"phase":1,"sequence":3,"avg":180,"response":151,"trial_type":"training_avg","trial_index":79,"time_elapsed":1211738,"internal_node_id":"0.0-79.0"},{"trial_type":"number-animation","trial_index":80,"time_elapsed":1220580,"internal_node_id":"0.0-80.0"},{"phase":1,"sequence":4,"avg":174,"response":155,"trial_type":"training_avg","trial_index":81,"time_elapsed":1226375,"internal_node_id":"0.0-81.0"},{"responses":[{"value":0,"offby":-1,"category":"$90 - $120","category_index":0},{"value":2,"offby":-1,"category":"$121 - $145","category_index":1},{"value":3,"offby":0,"category":"$146 - $170","category_index":2},{"value":5,"offby":-1,"category":"$171 - $195","category_index":3},{"value":5,"offby":1,"category":"$196 - $220","category_index":4},{"value":4,"offby":2,"category":"$221 - $245","category_index":5},{"value":1,"offby":0,"category":"$246 - $270","category_index":6}],"phase":1,"number":0,"trial_type":"bar-choose","trial_index":82,"time_elapsed":1249872,"internal_node_id":"0.0-82.0"},{"rt":8898,"url":"\/tickets\/utils\/testing2.html","trial_type":"html","trial_index":83,"time_elapsed":1259889,"internal_node_id":"0.0-83.0"},{"phase":1,"order":[30,8,34,2,45,31,16,32,17,36,13,44,43,40,49,46,38,23,21,10,6,28,29,48,0,12,42,19,26,18,47,39,37,11,7,20,22,1,33,24,3,41,25,14,27,35,15,5,9,4],"trial_type":"store_order","trial_index":84,"time_elapsed":1260891,"internal_node_id":"0.0-84.0"},{"result":172,"points":1,"place":4,"phase":1,"sequence":0,"times":[9474,1549,1026,698,611,623,966,702,837,1135],"next_num":10,"trial_type":"ticket-choose","trial_index":85,"time_elapsed":1283764,"internal_node_id":"0.0-85.0"},{"result":154,"points":2,"place":1,"phase":1,"sequence":1,"times":[971,635,974],"next_num":3,"trial_type":"ticket-choose","trial_index":86,"time_elapsed":1288644,"internal_node_id":"0.0-86.0"},{"result":130,"points":2,"place":1,"phase":1,"sequence":2,"times":[1028,879],"next_num":2,"trial_type":"ticket-choose","trial_index":87,"time_elapsed":1292840,"internal_node_id":"0.0-87.0"},{"result":146,"points":2,"place":1,"phase":1,"sequence":3,"times":[802,614,963],"next_num":3,"trial_type":"ticket-choose","trial_index":88,"time_elapsed":1297535,"internal_node_id":"0.0-88.0"},{"result":154,"points":2,"place":1,"phase":1,"sequence":4,"times":[791,792,704,718,969],"next_num":5,"trial_type":"ticket-choose","trial_index":89,"time_elapsed":1304262,"internal_node_id":"0.0-89.0"},{"result":117,"points":3,"place":0,"phase":1,"sequence":5,"times":[2778],"next_num":1,"trial_type":"ticket-choose","trial_index":90,"time_elapsed":1309695,"internal_node_id":"0.0-90.0"},{"result":152,"points":1,"place":2,"phase":1,"sequence":6,"times":[24730,621,617,992,815,686,1016,1185],"next_num":8,"trial_type":"ticket-choose","trial_index":91,"time_elapsed":1344436,"internal_node_id":"0.0-91.0"},{"result":143,"points":3,"place":0,"phase":1,"sequence":7,"times":[9424],"next_num":1,"trial_type":"ticket-choose","trial_index":92,"time_elapsed":1355782,"internal_node_id":"0.0-92.0"},{"result":136,"points":2,"place":1,"phase":1,"sequence":8,"times":[1206,809,1148],"next_num":3,"trial_type":"ticket-choose","trial_index":93,"time_elapsed":1361417,"internal_node_id":"0.0-93.0"},{"result":149,"points":2,"place":1,"phase":1,"sequence":9,"times":[822,612,978],"next_num":3,"trial_type":"ticket-choose","trial_index":94,"time_elapsed":1366159,"internal_node_id":"0.0-94.0"},{"result":154,"points":2,"place":1,"phase":1,"sequence":10,"times":[818,568,582,613,717,654,885],"next_num":7,"trial_type":"ticket-choose","trial_index":95,"time_elapsed":1374284,"internal_node_id":"0.0-95.0"},{"result":138,"points":1,"place":2,"phase":1,"sequence":11,"times":[739,888],"next_num":2,"trial_type":"ticket-choose","trial_index":96,"time_elapsed":1378219,"internal_node_id":"0.0-96.0"},{"result":135,"points":3,"place":0,"phase":1,"sequence":12,"times":[3438,691,849],"next_num":3,"trial_type":"ticket-choose","trial_index":97,"time_elapsed":1385541,"internal_node_id":"0.0-97.0"},{"result":119,"points":3,"place":0,"phase":1,"sequence":13,"times":[1619,840],"next_num":2,"trial_type":"ticket-choose","trial_index":98,"time_elapsed":1390032,"internal_node_id":"0.0-98.0"},{"result":146,"points":1,"place":2,"phase":1,"sequence":14,"times":[757,1289],"next_num":2,"trial_type":"ticket-choose","trial_index":99,"time_elapsed":1394139,"internal_node_id":"0.0-99.0"},{"result":136,"points":3,"place":0,"phase":1,"sequence":15,"times":[787,737,741,843,642,841],"next_num":6,"trial_type":"ticket-choose","trial_index":100,"time_elapsed":1401626,"internal_node_id":"0.0-100.0"},{"result":156,"points":1,"place":2,"phase":1,"sequence":16,"times":[4449],"next_num":1,"trial_type":"ticket-choose","trial_index":101,"time_elapsed":1408014,"internal_node_id":"0.0-101.0"},{"result":153,"points":1,"place":2,"phase":1,"sequence":17,"times":[835,694,676,611,547,597,582,885],"next_num":8,"trial_type":"ticket-choose","trial_index":102,"time_elapsed":1416914,"internal_node_id":"0.0-102.0"},{"result":136,"points":2,"place":1,"phase":1,"sequence":18,"times":[800,642,616,639,628,555,909],"next_num":7,"trial_type":"ticket-choose","trial_index":103,"time_elapsed":1424824,"internal_node_id":"0.0-103.0"},{"result":154,"points":2,"place":1,"phase":1,"sequence":19,"times":[807,610,884],"next_num":3,"trial_type":"ticket-choose","trial_index":104,"time_elapsed":1429273,"internal_node_id":"0.0-104.0"},{"result":146,"points":2,"place":1,"phase":1,"sequence":20,"times":[836,622,698,653,719,649,907],"next_num":7,"trial_type":"ticket-choose","trial_index":105,"time_elapsed":1437687,"internal_node_id":"0.0-105.0"},{"result":159,"points":2,"place":1,"phase":1,"sequence":21,"times":[1007,694,937],"next_num":3,"trial_type":"ticket-choose","trial_index":106,"time_elapsed":1442787,"internal_node_id":"0.0-106.0"},{"result":121,"points":3,"place":0,"phase":1,"sequence":22,"times":[13092],"next_num":1,"trial_type":"ticket-choose","trial_index":107,"time_elapsed":1457890,"internal_node_id":"0.0-107.0"},{"result":114,"points":3,"place":0,"phase":1,"sequence":23,"times":[821,606,993,841],"next_num":4,"trial_type":"ticket-choose","trial_index":108,"time_elapsed":1464076,"internal_node_id":"0.0-108.0"},{"result":146,"points":2,"place":1,"phase":1,"sequence":24,"times":[1313,613,1076],"next_num":3,"trial_type":"ticket-choose","trial_index":109,"time_elapsed":1469894,"internal_node_id":"0.0-109.0"},{"result":154,"points":2,"place":1,"phase":1,"sequence":25,"times":[875,982,913,642,680,814,938],"next_num":7,"trial_type":"ticket-choose","trial_index":110,"time_elapsed":1478942,"internal_node_id":"0.0-110.0"},{"result":105,"points":3,"place":0,"phase":1,"sequence":26,"times":[1128,865,1389,685,852],"next_num":5,"trial_type":"ticket-choose","trial_index":111,"time_elapsed":1486615,"internal_node_id":"0.0-111.0"},{"result":136,"points":2,"place":1,"phase":1,"sequence":27,"times":[1366,601,1011],"next_num":3,"trial_type":"ticket-choose","trial_index":112,"time_elapsed":1491953,"internal_node_id":"0.0-112.0"},{"result":136,"points":2,"place":1,"phase":1,"sequence":28,"times":[805,673,901],"next_num":3,"trial_type":"ticket-choose","trial_index":113,"time_elapsed":1496677,"internal_node_id":"0.0-113.0"},{"result":136,"points":2,"place":1,"phase":1,"sequence":29,"times":[1061,581,1213],"next_num":3,"trial_type":"ticket-choose","trial_index":114,"time_elapsed":1501912,"internal_node_id":"0.0-114.0"},{"result":124,"points":3,"place":0,"phase":1,"sequence":30,"times":[859,727,664,865],"next_num":4,"trial_type":"ticket-choose","trial_index":115,"time_elapsed":1507722,"internal_node_id":"0.0-115.0"},{"result":153,"points":2,"place":1,"phase":1,"sequence":31,"times":[836,942],"next_num":2,"trial_type":"ticket-choose","trial_index":116,"time_elapsed":1511940,"internal_node_id":"0.0-116.0"},{"result":158,"points":1,"place":3,"phase":1,"sequence":32,"times":[5378,662,1143],"next_num":3,"trial_type":"ticket-choose","trial_index":117,"time_elapsed":1521740,"internal_node_id":"0.0-117.0"},{"result":154,"points":2,"place":1,"phase":1,"sequence":33,"times":[16706,727,1543],"next_num":3,"trial_type":"ticket-choose","trial_index":118,"time_elapsed":1543293,"internal_node_id":"0.0-118.0"},{"result":146,"points":2,"place":1,"phase":1,"sequence":34,"times":[1260,728,846,683,650,706,932],"next_num":7,"trial_type":"ticket-choose","trial_index":119,"time_elapsed":1552442,"internal_node_id":"0.0-119.0"},{"result":136,"points":2,"place":1,"phase":1,"sequence":35,"times":[751,647,625,706,702,654,898],"next_num":7,"trial_type":"ticket-choose","trial_index":120,"time_elapsed":1560673,"internal_node_id":"0.0-120.0"},{"result":136,"points":2,"place":1,"phase":1,"sequence":36,"times":[823,629,584,685,638,686,819],"next_num":7,"trial_type":"ticket-choose","trial_index":121,"time_elapsed":1569039,"internal_node_id":"0.0-121.0"},{"result":146,"points":2,"place":1,"phase":1,"sequence":37,"times":[32494,829,1267],"next_num":3,"trial_type":"ticket-choose","trial_index":122,"time_elapsed":1607245,"internal_node_id":"0.0-122.0"},{"result":137,"points":3,"place":0,"phase":1,"sequence":38,"times":[4904],"next_num":1,"trial_type":"ticket-choose","trial_index":123,"time_elapsed":1614551,"internal_node_id":"0.0-123.0"},{"result":142,"points":3,"place":0,"phase":1,"sequence":39,"times":[1180],"next_num":1,"trial_type":"ticket-choose","trial_index":124,"time_elapsed":1617837,"internal_node_id":"0.0-124.0"},{"result":146,"points":2,"place":1,"phase":1,"sequence":40,"times":[2416,638,1070],"next_num":3,"trial_type":"ticket-choose","trial_index":125,"time_elapsed":1624337,"internal_node_id":"0.0-125.0"},{"result":131,"points":2,"place":1,"phase":1,"sequence":41,"times":[953,697,994],"next_num":3,"trial_type":"ticket-choose","trial_index":126,"time_elapsed":1629355,"internal_node_id":"0.0-126.0"},{"result":144,"points":2,"place":1,"phase":1,"sequence":42,"times":[1231,711,850],"next_num":3,"trial_type":"ticket-choose","trial_index":127,"time_elapsed":1634697,"internal_node_id":"0.0-127.0"},{"result":154,"points":2,"place":1,"phase":1,"sequence":43,"times":[792,593,723,733,674,692,954],"next_num":7,"trial_type":"ticket-choose","trial_index":128,"time_elapsed":1643150,"internal_node_id":"0.0-128.0"},{"result":192,"points":1,"place":4,"phase":1,"sequence":44,"times":[753,592,629,565,577,595,789,630,637,1408],"next_num":10,"trial_type":"ticket-choose","trial_index":129,"time_elapsed":1654347,"internal_node_id":"0.0-129.0"},{"result":155,"points":1,"place":2,"phase":1,"sequence":45,"times":[1331],"next_num":1,"trial_type":"ticket-choose","trial_index":130,"time_elapsed":1657653,"internal_node_id":"0.0-130.0"},{"result":154,"points":2,"place":1,"phase":1,"sequence":46,"times":[845,686,654,959,645,639,861],"next_num":7,"trial_type":"ticket-choose","trial_index":131,"time_elapsed":1666324,"internal_node_id":"0.0-131.0"},{"result":146,"points":2,"place":1,"phase":1,"sequence":47,"times":[1301,1333,8664,597,529,551,872],"next_num":7,"trial_type":"ticket-choose","trial_index":132,"time_elapsed":1683627,"internal_node_id":"0.0-132.0"},{"result":154,"points":2,"place":1,"phase":1,"sequence":48,"times":[1335,587,893],"next_num":3,"trial_type":"ticket-choose","trial_index":133,"time_elapsed":1689643,"internal_node_id":"0.0-133.0"},{"result":152,"points":1,"place":2,"phase":1,"sequence":49,"times":[809,542,513,563,510,576,596,1186],"next_num":8,"trial_type":"ticket-choose","trial_index":134,"time_elapsed":1698875,"internal_node_id":"0.0-134.0"},{"responses":[{"value":0,"offby":-1,"category":"$90 - $120","category_index":0},{"value":3,"offby":0,"category":"$121 - $145","category_index":1},{"value":5,"offby":2,"category":"$146 - $170","category_index":2},{"value":6,"offby":0,"category":"$171 - $195","category_index":3},{"value":3,"offby":-1,"category":"$196 - $220","category_index":4},{"value":2,"offby":0,"category":"$221 - $245","category_index":5},{"value":1,"offby":0,"category":"$246 - $270","category_index":6}],"phase":1,"number":1,"trial_type":"bar-choose","trial_index":135,"time_elapsed":1724574,"internal_node_id":"0.0-135.0"},{"special_comment":"no","trial_type":"special_sequence","trial_index":136,"time_elapsed":1729892,"internal_node_id":"0.0-136.0"},{"during":"Nothing","bonus":284,"trial_type":"final","trial_index":137,"time_elapsed":1750947,"internal_node_id":"0.0-137.0"}],"bonus":284}