{"start_time":"2017-02-27 11:33:48","end_time":"2017-02-27 12:03:00","points_phase0":117,"points_phase1":90,"phase_order":0,"age":44,"gender":"f","tries":1,"during":"Nothing","worker_id":"A3GZYWA9S6J0K9","assignment_id":"3B4YI393VAPTA0EWK4FVI1SU72WSSB","data":[{"rt":23019,"url":"\/tickets\/utils\/consent.html","trial_type":"html","trial_index":0,"time_elapsed":23120,"internal_node_id":"0.0-0.0"},{"age":44,"gender":"f","trial_type":"age","trial_index":1,"time_elapsed":29392,"internal_node_id":"0.0-1.0"},{"worker_id":"A3GZYWA9S6J0K9","trial_type":"workerid","trial_index":2,"time_elapsed":48365,"internal_node_id":"0.0-2.0"},{"tries":1,"trial_type":"instructions_check","trial_index":3,"time_elapsed":121326,"internal_node_id":"0.0-3.0"},{"rt":30016,"url":"\/tickets\/utils\/start.html","trial_type":"html","trial_index":4,"time_elapsed":152511,"internal_node_id":"0.0-4.0"},{"trial_type":"number-animation","trial_index":5,"time_elapsed":168074,"internal_node_id":"0.0-5.0"},{"phase":0,"sequence":0,"avg":180,"response":182,"trial_type":"training_avg","trial_index":6,"time_elapsed":178260,"internal_node_id":"0.0-6.0"},{"trial_type":"number-animation","trial_index":7,"time_elapsed":188928,"internal_node_id":"0.0-7.0"},{"phase":0,"sequence":1,"avg":178,"response":177,"trial_type":"training_avg","trial_index":8,"time_elapsed":197957,"internal_node_id":"0.0-8.0"},{"trial_type":"number-animation","trial_index":9,"time_elapsed":208062,"internal_node_id":"0.0-9.0"},{"phase":0,"sequence":2,"avg":176,"response":177,"trial_type":"training_avg","trial_index":10,"time_elapsed":218499,"internal_node_id":"0.0-10.0"},{"trial_type":"number-animation","trial_index":11,"time_elapsed":236671,"internal_node_id":"0.0-11.0"},{"phase":0,"sequence":3,"avg":178,"response":179,"trial_type":"training_avg","trial_index":12,"time_elapsed":243157,"internal_node_id":"0.0-12.0"},{"trial_type":"number-animation","trial_index":13,"time_elapsed":257338,"internal_node_id":"0.0-13.0"},{"phase":0,"sequence":4,"avg":179,"response":178,"trial_type":"training_avg","trial_index":14,"time_elapsed":263970,"internal_node_id":"0.0-14.0"},{"responses":[{"value":20,"offby":20,"category":"$140 - $250","category_index":0},{"value":0,"offby":0,"category":"$151 - $160","category_index":1},{"value":0,"offby":-4,"category":"$161 - $170","category_index":2},{"value":0,"offby":-6,"category":"$171 - $180","category_index":3},{"value":0,"offby":-7,"category":"$181 - $190","category_index":4},{"value":0,"offby":-3,"category":"$191 - $200","category_index":5},{"value":0,"offby":0,"category":"$201 - $210","category_index":6}],"phase":0,"number":0,"trial_type":"bar-choose","trial_index":15,"time_elapsed":322652,"internal_node_id":"0.0-15.0"},{"rt":11278,"url":"\/tickets\/\/utils\/testing.html","trial_type":"html","trial_index":16,"time_elapsed":335062,"internal_node_id":"0.0-16.0"},{"phase":0,"order":[41,43,46,17,31,22,2,9,47,34,38,15,42,6,12,20,49,4,32,0,5,18,11,19,25,33,36,30,13,23,40,35,3,29,39,14,44,10,1,37,24,27,28,7,21,26,8,45,48,16],"trial_type":"store_order","trial_index":17,"time_elapsed":336068,"internal_node_id":"0.0-17.0"},{"result":165,"points":2,"place":1,"phase":0,"sequence":-1,"prices":[184,180,224,165,181,199,185,193,218,126],"times":[3227,758,824,1398],"next_num":4,"trial_type":"ticket-choose","trial_index":18,"time_elapsed":345752,"internal_node_id":"0.0-18.0"},{"rt":204673,"url":"\/tickets\/utils\/testing_after.html","trial_type":"html","trial_index":19,"time_elapsed":551627,"internal_node_id":"0.0-19.0"},{"result":165,"points":3,"place":0,"phase":0,"sequence":0,"prices":[180,165,177,193,186,196,187,169,171,182],"times":[2739,4607],"next_num":2,"trial_type":"ticket-choose","trial_index":20,"time_elapsed":562951,"internal_node_id":"0.0-20.0"},{"result":157,"points":2,"place":1,"phase":0,"sequence":1,"prices":[188,191,179,157,181,164,166,156,175,182],"times":[1628,742,747,1502],"next_num":4,"trial_type":"ticket-choose","trial_index":21,"time_elapsed":571077,"internal_node_id":"0.0-21.0"},{"result":166,"points":3,"place":0,"phase":0,"sequence":2,"prices":[179,186,197,201,166,187,188,193,190,177],"times":[2666,610,632,661,2945],"next_num":5,"trial_type":"ticket-choose","trial_index":22,"time_elapsed":582793,"internal_node_id":"0.0-22.0"},{"result":171,"points":1,"place":2,"phase":0,"sequence":3,"prices":[174,178,168,192,177,181,176,171,163,182],"times":[1044,740,3682,879,746,720,2730,1867],"next_num":8,"trial_type":"ticket-choose","trial_index":23,"time_elapsed":599907,"internal_node_id":"0.0-23.0"},{"result":157,"points":3,"place":0,"phase":0,"sequence":4,"prices":[157,184,163,174,181,190,168,187,189,177],"times":[1781],"next_num":1,"trial_type":"ticket-choose","trial_index":24,"time_elapsed":603965,"internal_node_id":"0.0-24.0"},{"result":168,"points":2,"place":1,"phase":0,"sequence":5,"prices":[173,178,176,193,177,182,168,172,164,183],"times":[4485,1101,908,879,1176,709,1303],"next_num":7,"trial_type":"ticket-choose","trial_index":25,"time_elapsed":619259,"internal_node_id":"0.0-25.0"},{"result":169,"points":2,"place":1,"phase":0,"sequence":6,"prices":[174,179,169,194,178,183,177,173,165,184],"times":[1345,582,1243],"next_num":3,"trial_type":"ticket-choose","trial_index":26,"time_elapsed":624942,"internal_node_id":"0.0-26.0"},{"result":170,"points":2,"place":1,"phase":0,"sequence":7,"prices":[176,180,170,194,179,183,178,173,165,184],"times":[882,669,1190],"next_num":3,"trial_type":"ticket-choose","trial_index":27,"time_elapsed":630330,"internal_node_id":"0.0-27.0"},{"result":173,"points":3,"place":0,"phase":0,"sequence":8,"prices":[180,175,173,177,191,190,184,196,174,181],"times":[693,2620,1166],"next_num":3,"trial_type":"ticket-choose","trial_index":28,"time_elapsed":637459,"internal_node_id":"0.0-28.0"},{"result":165,"points":2,"place":1,"phase":0,"sequence":9,"prices":[181,180,191,186,165,197,159,167,194,185],"times":[1240,623,722,626,1534],"next_num":5,"trial_type":"ticket-choose","trial_index":29,"time_elapsed":645176,"internal_node_id":"0.0-29.0"},{"result":170,"points":3,"place":0,"phase":0,"sequence":10,"prices":[181,179,199,188,170,172,178,187,191,177],"times":[883,634,663,769,1230],"next_num":5,"trial_type":"ticket-choose","trial_index":30,"time_elapsed":652493,"internal_node_id":"0.0-30.0"},{"result":170,"points":2,"place":1,"phase":0,"sequence":11,"prices":[175,180,178,195,179,184,170,174,166,185],"times":[1027,601,889,799,784,965,1324],"next_num":7,"trial_type":"ticket-choose","trial_index":31,"time_elapsed":663709,"internal_node_id":"0.0-31.0"},{"result":160,"points":3,"place":0,"phase":0,"sequence":12,"prices":[175,193,175,160,180,170,175,205,177,167],"times":[1510,674,1063,1208],"next_num":4,"trial_type":"ticket-choose","trial_index":32,"time_elapsed":670775,"internal_node_id":"0.0-32.0"},{"result":169,"points":2,"place":1,"phase":0,"sequence":13,"prices":[174,179,177,194,178,183,169,173,165,184],"times":[611,2117,1316,715,704,1335,1385],"next_num":7,"trial_type":"ticket-choose","trial_index":33,"time_elapsed":682383,"internal_node_id":"0.0-33.0"},{"result":170,"points":2,"place":1,"phase":0,"sequence":14,"prices":[176,180,178,194,179,183,170,173,165,184],"times":[743,542,715,686,716,1168,1848],"next_num":7,"trial_type":"ticket-choose","trial_index":34,"time_elapsed":692197,"internal_node_id":"0.0-34.0"},{"result":168,"points":2,"place":1,"phase":0,"sequence":15,"prices":[174,178,176,192,177,181,168,171,163,182],"times":[1872,761,899,634,962,655,1302],"next_num":7,"trial_type":"ticket-choose","trial_index":35,"time_elapsed":704296,"internal_node_id":"0.0-35.0"},{"result":170,"points":2,"place":1,"phase":0,"sequence":16,"prices":[175,189,193,170,179,165,180,186,177,184],"times":[781,522,591,1239],"next_num":4,"trial_type":"ticket-choose","trial_index":36,"time_elapsed":710740,"internal_node_id":"0.0-36.0"},{"result":169,"points":2,"place":1,"phase":0,"sequence":17,"prices":[175,179,177,193,178,182,169,172,164,183],"times":[3140,749,1220,633,785,764,1399],"next_num":7,"trial_type":"ticket-choose","trial_index":37,"time_elapsed":723258,"internal_node_id":"0.0-37.0"},{"result":171,"points":3,"place":0,"phase":0,"sequence":18,"prices":[171,180,172,174,179,188,173,183,186,175],"times":[4783],"next_num":1,"trial_type":"ticket-choose","trial_index":38,"time_elapsed":730364,"internal_node_id":"0.0-38.0"},{"result":169,"points":2,"place":1,"phase":0,"sequence":19,"prices":[175,179,169,193,178,182,177,172,164,183],"times":[1533,2720,1171],"next_num":3,"trial_type":"ticket-choose","trial_index":39,"time_elapsed":738408,"internal_node_id":"0.0-39.0"},{"result":169,"points":2,"place":1,"phase":0,"sequence":20,"prices":[175,179,177,193,178,182,169,172,164,183],"times":[1814,598,687,665,699,651,1233],"next_num":7,"trial_type":"ticket-choose","trial_index":40,"time_elapsed":747773,"internal_node_id":"0.0-40.0"},{"result":168,"points":2,"place":1,"phase":0,"sequence":21,"prices":[173,178,168,193,177,182,176,172,164,183],"times":[1481,634,1297],"next_num":3,"trial_type":"ticket-choose","trial_index":41,"time_elapsed":755081,"internal_node_id":"0.0-41.0"},{"result":170,"points":2,"place":1,"phase":0,"sequence":22,"prices":[175,180,170,195,179,184,178,174,166,185],"times":[1026,554,1127],"next_num":3,"trial_type":"ticket-choose","trial_index":42,"time_elapsed":760010,"internal_node_id":"0.0-42.0"},{"result":168,"points":2,"place":1,"phase":0,"sequence":23,"prices":[173,178,168,193,177,182,176,172,164,183],"times":[933,649,1057],"next_num":3,"trial_type":"ticket-choose","trial_index":43,"time_elapsed":765112,"internal_node_id":"0.0-43.0"},{"result":163,"points":3,"place":0,"phase":0,"sequence":24,"prices":[163,185,165,174,181,198,173,186,187,180],"times":[2082],"next_num":1,"trial_type":"ticket-choose","trial_index":44,"time_elapsed":769123,"internal_node_id":"0.0-44.0"},{"result":170,"points":3,"place":0,"phase":0,"sequence":25,"prices":[170,183,172,175,180,189,174,187,188,179],"times":[4496],"next_num":1,"trial_type":"ticket-choose","trial_index":45,"time_elapsed":775795,"internal_node_id":"0.0-45.0"},{"result":169,"points":1,"place":2,"phase":0,"sequence":26,"prices":[189,185,169,168,167,171,180,173,174,188],"times":[2163,694,1323],"next_num":3,"trial_type":"ticket-choose","trial_index":46,"time_elapsed":782273,"internal_node_id":"0.0-46.0"},{"result":160,"points":3,"place":0,"phase":0,"sequence":27,"prices":[160,185,170,174,182,196,173,186,194,177],"times":[1463],"next_num":1,"trial_type":"ticket-choose","trial_index":47,"time_elapsed":785723,"internal_node_id":"0.0-47.0"},{"result":170,"points":2,"place":1,"phase":0,"sequence":28,"prices":[176,180,178,194,179,183,170,173,165,184],"times":[1352,566,597,710,850,677,1141],"next_num":7,"trial_type":"ticket-choose","trial_index":48,"time_elapsed":797136,"internal_node_id":"0.0-48.0"},{"result":168,"points":2,"place":1,"phase":0,"sequence":29,"prices":[173,178,176,193,177,182,168,172,164,183],"times":[2305,581,882,636,803,890,1751],"next_num":7,"trial_type":"ticket-choose","trial_index":49,"time_elapsed":809529,"internal_node_id":"0.0-49.0"},{"result":167,"points":3,"place":0,"phase":0,"sequence":30,"prices":[179,174,199,178,196,167,170,184,177,190],"times":[1153,790,2009,705,700,3275],"next_num":6,"trial_type":"ticket-choose","trial_index":50,"time_elapsed":821577,"internal_node_id":"0.0-50.0"},{"result":154,"points":3,"place":0,"phase":0,"sequence":31,"prices":[188,179,154,183,173,170,177,160,169,175],"times":[1175,683,1090],"next_num":3,"trial_type":"ticket-choose","trial_index":51,"time_elapsed":827538,"internal_node_id":"0.0-51.0"},{"result":169,"points":2,"place":1,"phase":0,"sequence":32,"prices":[174,179,169,194,178,183,177,173,165,184],"times":[1066,534,1345],"next_num":3,"trial_type":"ticket-choose","trial_index":52,"time_elapsed":834768,"internal_node_id":"0.0-52.0"},{"result":166,"points":3,"place":0,"phase":0,"sequence":33,"prices":[166,190,170,173,178,203,172,192,198,174],"times":[1508],"next_num":1,"trial_type":"ticket-choose","trial_index":53,"time_elapsed":838760,"internal_node_id":"0.0-53.0"},{"result":156,"points":3,"place":0,"phase":0,"sequence":34,"prices":[195,177,197,179,171,173,175,156,163,204],"times":[1315,1151,708,750,1236,930,808,1107],"next_num":8,"trial_type":"ticket-choose","trial_index":54,"time_elapsed":858324,"internal_node_id":"0.0-54.0"},{"result":170,"points":2,"place":1,"phase":0,"sequence":35,"prices":[175,180,178,195,179,184,170,174,166,185],"times":[1705,621,677,586,676,613,1695],"next_num":7,"trial_type":"ticket-choose","trial_index":55,"time_elapsed":868808,"internal_node_id":"0.0-55.0"},{"result":150,"points":3,"place":0,"phase":0,"sequence":36,"prices":[175,150,164,155,171,199,158,180,184,196],"times":[1604,1452],"next_num":2,"trial_type":"ticket-choose","trial_index":56,"time_elapsed":876286,"internal_node_id":"0.0-56.0"},{"result":170,"points":2,"place":1,"phase":0,"sequence":37,"prices":[175,180,170,195,179,184,178,174,166,185],"times":[1141,699,2009],"next_num":3,"trial_type":"ticket-choose","trial_index":57,"time_elapsed":882870,"internal_node_id":"0.0-57.0"},{"result":169,"points":2,"place":1,"phase":0,"sequence":38,"prices":[175,179,169,193,178,182,177,172,164,183],"times":[2849,627,1473],"next_num":3,"trial_type":"ticket-choose","trial_index":58,"time_elapsed":890652,"internal_node_id":"0.0-58.0"},{"result":168,"points":2,"place":1,"phase":0,"sequence":39,"prices":[181,175,182,168,183,173,153,170,193,179],"times":[3272,865,646,1321],"next_num":4,"trial_type":"ticket-choose","trial_index":59,"time_elapsed":899799,"internal_node_id":"0.0-59.0"},{"result":161,"points":3,"place":0,"phase":0,"sequence":40,"prices":[161,180,170,174,178,198,173,182,188,176],"times":[1816],"next_num":1,"trial_type":"ticket-choose","trial_index":60,"time_elapsed":903603,"internal_node_id":"0.0-60.0"},{"result":168,"points":3,"place":0,"phase":0,"sequence":41,"prices":[168,188,171,181,184,196,180,194,195,183],"times":[2969],"next_num":1,"trial_type":"ticket-choose","trial_index":61,"time_elapsed":909000,"internal_node_id":"0.0-61.0"},{"result":159,"points":3,"place":0,"phase":0,"sequence":42,"prices":[159,178,170,174,176,194,173,182,185,175],"times":[1614],"next_num":1,"trial_type":"ticket-choose","trial_index":62,"time_elapsed":912787,"internal_node_id":"0.0-62.0"},{"result":169,"points":2,"place":1,"phase":0,"sequence":43,"prices":[174,179,177,194,178,183,169,173,165,184],"times":[2363,803,806,794,2184,818,2856],"next_num":7,"trial_type":"ticket-choose","trial_index":63,"time_elapsed":928733,"internal_node_id":"0.0-63.0"},{"result":168,"points":2,"place":1,"phase":0,"sequence":44,"prices":[174,178,176,192,177,181,168,171,163,182],"times":[779,565,687,3003,1058,914,1475],"next_num":7,"trial_type":"ticket-choose","trial_index":64,"time_elapsed":941222,"internal_node_id":"0.0-64.0"},{"result":165,"points":3,"place":0,"phase":0,"sequence":45,"prices":[165,187,173,177,186,196,176,191,192,181],"times":[1442],"next_num":1,"trial_type":"ticket-choose","trial_index":65,"time_elapsed":944984,"internal_node_id":"0.0-65.0"},{"result":165,"points":3,"place":0,"phase":0,"sequence":46,"prices":[176,180,170,194,179,183,178,173,165,184],"times":[1586,1026,609,615,703,637,2461,2244,1212],"next_num":9,"trial_type":"ticket-choose","trial_index":66,"time_elapsed":960622,"internal_node_id":"0.0-66.0"},{"result":162,"points":3,"place":0,"phase":0,"sequence":47,"prices":[179,174,172,162,202,184,165,197,185,169],"times":[1030,513,551,1173],"next_num":4,"trial_type":"ticket-choose","trial_index":67,"time_elapsed":967048,"internal_node_id":"0.0-67.0"},{"result":187,"points":0,"place":7,"phase":0,"sequence":48,"prices":[193,173,175,182,179,198,181,171,176,187],"times":[1360,597,639,598,1098,703,636,2066,1599,1168],"next_num":10,"trial_type":"ticket-choose","trial_index":68,"time_elapsed":984354,"internal_node_id":"0.0-68.0"},{"result":168,"points":2,"place":1,"phase":0,"sequence":49,"prices":[174,178,168,192,177,181,176,171,163,182],"times":[2090,636,1072],"next_num":3,"trial_type":"ticket-choose","trial_index":69,"time_elapsed":990936,"internal_node_id":"0.0-69.0"},{"responses":[{"value":0,"offby":0,"category":"$140 - $250","category_index":0},{"value":2,"offby":2,"category":"$151 - $160","category_index":1},{"value":5,"offby":1,"category":"$161 - $170","category_index":2},{"value":9,"offby":3,"category":"$171 - $180","category_index":3},{"value":3,"offby":-4,"category":"$181 - $190","category_index":4},{"value":0,"offby":-3,"category":"$191 - $200","category_index":5},{"value":0,"offby":0,"category":"$201 - $210","category_index":6}],"phase":0,"number":1,"trial_type":"bar-choose","trial_index":70,"time_elapsed":1030416,"internal_node_id":"0.0-70.0"},{"rt":3842,"url":"\/tickets\/utils\/start2.html","trial_type":"html","trial_index":71,"time_elapsed":1035404,"internal_node_id":"0.0-71.0"},{"trial_type":"number-animation","trial_index":72,"time_elapsed":1046117,"internal_node_id":"0.0-72.0"},{"phase":1,"sequence":0,"avg":166,"response":134,"trial_type":"training_avg","trial_index":73,"time_elapsed":1052768,"internal_node_id":"0.0-73.0"},{"trial_type":"number-animation","trial_index":74,"time_elapsed":1063148,"internal_node_id":"0.0-74.0"},{"phase":1,"sequence":1,"avg":198,"response":176,"trial_type":"training_avg","trial_index":75,"time_elapsed":1070636,"internal_node_id":"0.0-75.0"},{"trial_type":"number-animation","trial_index":76,"time_elapsed":1084477,"internal_node_id":"0.0-76.0"},{"phase":1,"sequence":2,"avg":177,"response":147,"trial_type":"training_avg","trial_index":77,"time_elapsed":1090483,"internal_node_id":"0.0-77.0"},{"trial_type":"number-animation","trial_index":78,"time_elapsed":1100317,"internal_node_id":"0.0-78.0"},{"phase":1,"sequence":3,"avg":190,"response":162,"trial_type":"training_avg","trial_index":79,"time_elapsed":1106148,"internal_node_id":"0.0-79.0"},{"trial_type":"number-animation","trial_index":80,"time_elapsed":1115985,"internal_node_id":"0.0-80.0"},{"phase":1,"sequence":4,"avg":201,"response":153,"trial_type":"training_avg","trial_index":81,"time_elapsed":1122954,"internal_node_id":"0.0-81.0"},{"responses":[{"value":0,"offby":-1,"category":"$30 - $75","category_index":0},{"value":3,"offby":1,"category":"$76 - $120","category_index":1},{"value":6,"offby":2,"category":"$121 - $165","category_index":2},{"value":8,"offby":2,"category":"$166 - $210","category_index":3},{"value":3,"offby":-3,"category":"$211 - $255","category_index":4},{"value":0,"offby":-1,"category":"$256 - $300","category_index":5},{"value":0,"offby":0,"category":"$301 - $345","category_index":6}],"phase":1,"number":0,"trial_type":"bar-choose","trial_index":82,"time_elapsed":1145044,"internal_node_id":"0.0-82.0"},{"rt":9450,"url":"\/tickets\/utils\/testing2.html","trial_type":"html","trial_index":83,"time_elapsed":1155647,"internal_node_id":"0.0-83.0"},{"phase":1,"order":[44,4,48,33,35,3,31,0,34,21,24,9,30,8,5,16,23,18,27,46,41,13,26,6,43,19,49,14,36,45,11,15,38,28,37,42,17,1,39,12,40,2,47,22,10,25,29,20,32,7],"trial_type":"store_order","trial_index":84,"time_elapsed":1156657,"internal_node_id":"0.0-84.0"},{"result":30,"points":3,"place":0,"phase":1,"sequence":0,"prices":[155,30,101,55,136,276,70,181,200,261],"times":[29769,1402],"next_num":2,"trial_type":"ticket-choose","trial_index":85,"time_elapsed":1190047,"internal_node_id":"0.0-85.0"},{"result":171,"points":0,"place":5,"phase":1,"sequence":1,"prices":[155,175,166,245,171,190,125,140,101,196],"times":[1094,517,3673,646,1210],"next_num":5,"trial_type":"ticket-choose","trial_index":86,"time_elapsed":1200311,"internal_node_id":"0.0-86.0"},{"result":145,"points":2,"place":1,"phase":1,"sequence":2,"prices":[246,145,155,191,176,270,185,136,160,215],"times":[829,1553],"next_num":2,"trial_type":"ticket-choose","trial_index":87,"time_elapsed":1204876,"internal_node_id":"0.0-87.0"},{"result":130,"points":3,"place":0,"phase":1,"sequence":3,"prices":[130,195,141,155,181,226,150,216,221,175],"times":[1426],"next_num":1,"trial_type":"ticket-choose","trial_index":88,"time_elapsed":1208279,"internal_node_id":"0.0-88.0"},{"result":175,"points":0,"place":7,"phase":1,"sequence":4,"prices":[221,175,51,196,146,130,166,80,126,156],"times":[867,959],"next_num":2,"trial_type":"ticket-choose","trial_index":89,"time_elapsed":1212043,"internal_node_id":"0.0-89.0"},{"result":150,"points":1,"place":3,"phase":1,"sequence":5,"prices":[150,176,126,251,171,195,165,145,105,200],"times":[2480],"next_num":1,"trial_type":"ticket-choose","trial_index":90,"time_elapsed":1216507,"internal_node_id":"0.0-90.0"},{"result":66,"points":3,"place":0,"phase":1,"sequence":6,"prices":[66,201,96,150,185,230,121,216,225,165],"times":[1077],"next_num":1,"trial_type":"ticket-choose","trial_index":91,"time_elapsed":1219464,"internal_node_id":"0.0-91.0"},{"result":156,"points":1,"place":3,"phase":1,"sequence":7,"prices":[156,175,126,246,170,190,165,140,100,196],"times":[1177],"next_num":1,"trial_type":"ticket-choose","trial_index":92,"time_elapsed":1222426,"internal_node_id":"0.0-92.0"},{"result":106,"points":2,"place":1,"phase":1,"sequence":8,"prices":[185,180,235,210,106,266,76,115,250,205],"times":[1020,522,533,719,1091],"next_num":5,"trial_type":"ticket-choose","trial_index":93,"time_elapsed":1229172,"internal_node_id":"0.0-93.0"},{"result":150,"points":1,"place":3,"phase":1,"sequence":9,"prices":[150,170,160,241,166,186,120,136,96,191],"times":[1194],"next_num":1,"trial_type":"ticket-choose","trial_index":94,"time_elapsed":1232185,"internal_node_id":"0.0-94.0"},{"result":86,"points":3,"place":0,"phase":1,"sequence":10,"prices":[86,180,130,151,170,271,145,191,220,160],"times":[2144],"next_num":1,"trial_type":"ticket-choose","trial_index":95,"time_elapsed":1236427,"internal_node_id":"0.0-95.0"},{"result":160,"points":1,"place":3,"phase":1,"sequence":11,"prices":[160,180,130,251,176,195,170,146,105,200],"times":[1167],"next_num":1,"trial_type":"ticket-choose","trial_index":96,"time_elapsed":1239560,"internal_node_id":"0.0-96.0"},{"result":81,"points":3,"place":0,"phase":1,"sequence":12,"prices":[81,205,130,151,191,261,145,210,250,165],"times":[812],"next_num":1,"trial_type":"ticket-choose","trial_index":97,"time_elapsed":1242330,"internal_node_id":"0.0-97.0"},{"result":161,"points":1,"place":3,"phase":1,"sequence":13,"prices":[161,180,131,251,175,196,171,146,105,201],"times":[1009],"next_num":1,"trial_type":"ticket-choose","trial_index":98,"time_elapsed":1245147,"internal_node_id":"0.0-98.0"},{"result":126,"points":2,"place":1,"phase":1,"sequence":14,"prices":[156,176,165,246,171,190,126,141,101,196],"times":[871,576,602,554,719,644,1052],"next_num":7,"trial_type":"ticket-choose","trial_index":99,"time_elapsed":1254959,"internal_node_id":"0.0-99.0"},{"result":150,"points":1,"place":3,"phase":1,"sequence":15,"prices":[150,171,121,241,165,185,160,136,95,191],"times":[1195],"next_num":1,"trial_type":"ticket-choose","trial_index":100,"time_elapsed":1258160,"internal_node_id":"0.0-100.0"},{"result":145,"points":1,"place":3,"phase":1,"sequence":16,"prices":[145,170,160,245,165,190,120,141,100,195],"times":[2019],"next_num":1,"trial_type":"ticket-choose","trial_index":101,"time_elapsed":1262387,"internal_node_id":"0.0-101.0"},{"result":146,"points":1,"place":3,"phase":1,"sequence":17,"prices":[146,171,120,245,165,191,160,140,100,196],"times":[4788],"next_num":1,"trial_type":"ticket-choose","trial_index":102,"time_elapsed":1269769,"internal_node_id":"0.0-102.0"},{"result":120,"points":3,"place":0,"phase":1,"sequence":18,"prices":[120,221,135,185,200,261,181,251,255,196],"times":[5795],"next_num":1,"trial_type":"ticket-choose","trial_index":103,"time_elapsed":1278146,"internal_node_id":"0.0-103.0"},{"result":111,"points":3,"place":0,"phase":1,"sequence":19,"prices":[175,211,266,286,111,216,220,245,230,165],"times":[1954,630,577,599,952],"next_num":5,"trial_type":"ticket-choose","trial_index":104,"time_elapsed":1285737,"internal_node_id":"0.0-104.0"},{"result":106,"points":3,"place":0,"phase":1,"sequence":20,"prices":[180,106,166,245,211,261,215,125,135,190],"times":[1384,975],"next_num":2,"trial_type":"ticket-choose","trial_index":105,"time_elapsed":1290211,"internal_node_id":"0.0-105.0"},{"result":131,"points":2,"place":1,"phase":1,"sequence":21,"prices":[160,180,170,251,176,195,131,146,105,200],"times":[1227,617,599,574,702,676,1113],"next_num":7,"trial_type":"ticket-choose","trial_index":106,"time_elapsed":1298991,"internal_node_id":"0.0-106.0"},{"result":105,"points":3,"place":0,"phase":1,"sequence":22,"prices":[105,216,146,165,210,260,161,235,241,185],"times":[971],"next_num":1,"trial_type":"ticket-choose","trial_index":107,"time_elapsed":1301791,"internal_node_id":"0.0-107.0"},{"result":150,"points":1,"place":3,"phase":1,"sequence":23,"prices":[150,175,166,251,170,196,126,145,105,201],"times":[1016],"next_num":1,"trial_type":"ticket-choose","trial_index":108,"time_elapsed":1304765,"internal_node_id":"0.0-108.0"},{"result":65,"points":2,"place":1,"phase":1,"sequence":24,"prices":[220,236,176,65,185,101,110,61,156,191],"times":[1351,545,874,972],"next_num":4,"trial_type":"ticket-choose","trial_index":109,"time_elapsed":1313130,"internal_node_id":"0.0-109.0"},{"result":121,"points":2,"place":1,"phase":1,"sequence":25,"prices":[146,170,121,245,166,190,161,141,100,195],"times":[1081,692,957],"next_num":3,"trial_type":"ticket-choose","trial_index":110,"time_elapsed":1318263,"internal_node_id":"0.0-110.0"},{"result":155,"points":1,"place":2,"phase":1,"sequence":26,"prices":[155,225,245,130,176,106,180,211,165,200],"times":[2126],"next_num":1,"trial_type":"ticket-choose","trial_index":111,"time_elapsed":1322353,"internal_node_id":"0.0-111.0"},{"result":155,"points":1,"place":3,"phase":1,"sequence":27,"prices":[155,181,170,255,176,200,130,150,110,205],"times":[1322],"next_num":1,"trial_type":"ticket-choose","trial_index":112,"time_elapsed":1325583,"internal_node_id":"0.0-112.0"},{"result":125,"points":1,"place":2,"phase":1,"sequence":28,"prices":[226,205,125,120,115,135,180,145,150,220],"times":[1035,544,948],"next_num":3,"trial_type":"ticket-choose","trial_index":113,"time_elapsed":1330864,"internal_node_id":"0.0-113.0"},{"result":150,"points":1,"place":4,"phase":1,"sequence":29,"prices":[176,150,141,91,290,201,106,266,206,126],"times":[246432,1084],"next_num":2,"trial_type":"ticket-choose","trial_index":114,"time_elapsed":1580673,"internal_node_id":"0.0-114.0"},{"result":130,"points":2,"place":1,"phase":1,"sequence":30,"prices":[156,181,130,255,175,200,170,150,111,205],"times":[17998,665,990],"next_num":3,"trial_type":"ticket-choose","trial_index":115,"time_elapsed":1602551,"internal_node_id":"0.0-115.0"},{"result":131,"points":2,"place":1,"phase":1,"sequence":31,"prices":[156,181,171,256,175,200,131,150,110,206],"times":[1988,619,541,565,591,692,970],"next_num":7,"trial_type":"ticket-choose","trial_index":116,"time_elapsed":1611688,"internal_node_id":"0.0-116.0"},{"result":130,"points":3,"place":0,"phase":1,"sequence":32,"prices":[185,175,276,221,130,141,171,216,235,165],"times":[5859,830,612,1131,1043],"next_num":5,"trial_type":"ticket-choose","trial_index":117,"time_elapsed":1625349,"internal_node_id":"0.0-117.0"},{"result":75,"points":3,"place":0,"phase":1,"sequence":33,"prices":[75,171,131,151,161,250,145,190,206,156],"times":[2615],"next_num":1,"trial_type":"ticket-choose","trial_index":118,"time_elapsed":1630082,"internal_node_id":"0.0-118.0"},{"result":145,"points":1,"place":3,"phase":1,"sequence":34,"prices":[186,156,191,120,195,145,45,130,246,176],"times":[1406,1472,545,603,1051,952],"next_num":6,"trial_type":"ticket-choose","trial_index":119,"time_elapsed":1639678,"internal_node_id":"0.0-119.0"},{"result":81,"points":3,"place":0,"phase":1,"sequence":35,"prices":[155,245,155,81,180,130,156,306,166,115],"times":[1127,705,851,923],"next_num":4,"trial_type":"ticket-choose","trial_index":120,"time_elapsed":1646291,"internal_node_id":"0.0-120.0"},{"result":120,"points":2,"place":1,"phase":1,"sequence":36,"prices":[150,171,120,241,165,185,160,135,96,190],"times":[1532,748,946],"next_num":3,"trial_type":"ticket-choose","trial_index":121,"time_elapsed":1651872,"internal_node_id":"0.0-121.0"},{"result":125,"points":2,"place":1,"phase":1,"sequence":37,"prices":[156,175,125,245,170,190,165,140,101,196],"times":[1313,726,1111],"next_num":3,"trial_type":"ticket-choose","trial_index":122,"time_elapsed":1657463,"internal_node_id":"0.0-122.0"},{"result":136,"points":1,"place":2,"phase":1,"sequence":38,"prices":[255,166,266,175,136,145,155,61,96,301],"times":[1424,864,673,821,986],"next_num":5,"trial_type":"ticket-choose","trial_index":123,"time_elapsed":1665009,"internal_node_id":"0.0-123.0"},{"result":131,"points":2,"place":1,"phase":1,"sequence":39,"prices":[161,180,171,250,176,195,131,146,105,201],"times":[3728,714,626,628,614,640,981],"next_num":7,"trial_type":"ticket-choose","trial_index":124,"time_elapsed":1676356,"internal_node_id":"0.0-124.0"},{"result":150,"points":1,"place":2,"phase":1,"sequence":40,"prices":[176,150,276,171,261,116,130,201,166,231],"times":[1058,1056],"next_num":2,"trial_type":"ticket-choose","trial_index":125,"time_elapsed":1680450,"internal_node_id":"0.0-125.0"},{"result":151,"points":1,"place":3,"phase":1,"sequence":41,"prices":[151,176,126,251,170,196,165,145,105,201],"times":[1157],"next_num":1,"trial_type":"ticket-choose","trial_index":126,"time_elapsed":1683356,"internal_node_id":"0.0-126.0"},{"result":156,"points":1,"place":2,"phase":1,"sequence":42,"prices":[181,156,145,165,236,231,201,260,150,185],"times":[955,913],"next_num":2,"trial_type":"ticket-choose","trial_index":127,"time_elapsed":1687256,"internal_node_id":"0.0-127.0"},{"result":145,"points":1,"place":3,"phase":1,"sequence":43,"prices":[145,171,161,245,165,191,120,140,100,196],"times":[1428],"next_num":1,"trial_type":"ticket-choose","trial_index":128,"time_elapsed":1690494,"internal_node_id":"0.0-128.0"},{"result":131,"points":2,"place":1,"phase":1,"sequence":44,"prices":[156,181,131,256,176,200,171,151,111,206],"times":[908,631,898],"next_num":3,"trial_type":"ticket-choose","trial_index":129,"time_elapsed":1695046,"internal_node_id":"0.0-129.0"},{"result":95,"points":3,"place":0,"phase":1,"sequence":45,"prices":[95,205,106,151,186,271,145,210,215,181],"times":[1054],"next_num":1,"trial_type":"ticket-choose","trial_index":130,"time_elapsed":1697796,"internal_node_id":"0.0-130.0"},{"result":111,"points":3,"place":0,"phase":1,"sequence":46,"prices":[111,231,131,146,171,295,141,241,271,150],"times":[1090],"next_num":1,"trial_type":"ticket-choose","trial_index":131,"time_elapsed":1700764,"internal_node_id":"0.0-131.0"},{"result":150,"points":1,"place":3,"phase":1,"sequence":47,"prices":[150,170,160,240,166,185,121,136,95,191],"times":[980],"next_num":1,"trial_type":"ticket-choose","trial_index":132,"time_elapsed":1703546,"internal_node_id":"0.0-132.0"},{"result":135,"points":3,"place":0,"phase":1,"sequence":48,"prices":[135,180,141,151,175,220,145,196,211,155],"times":[1049],"next_num":1,"trial_type":"ticket-choose","trial_index":133,"time_elapsed":1706480,"internal_node_id":"0.0-133.0"},{"result":151,"points":1,"place":3,"phase":1,"sequence":49,"prices":[151,175,166,251,170,195,126,146,105,201],"times":[910],"next_num":1,"trial_type":"ticket-choose","trial_index":134,"time_elapsed":1709268,"internal_node_id":"0.0-134.0"},{"responses":[{"value":0,"offby":-1,"category":"$30 - $75","category_index":0},{"value":3,"offby":1,"category":"$76 - $120","category_index":1},{"value":5,"offby":1,"category":"$121 - $165","category_index":2},{"value":8,"offby":2,"category":"$166 - $210","category_index":3},{"value":4,"offby":-2,"category":"$211 - $255","category_index":4},{"value":0,"offby":-1,"category":"$256 - $300","category_index":5},{"value":0,"offby":0,"category":"$301 - $345","category_index":6}],"phase":1,"number":1,"trial_type":"bar-choose","trial_index":135,"time_elapsed":1727915,"internal_node_id":"0.0-135.0"},{"special_comment":"no","trial_type":"special_sequence","trial_index":136,"time_elapsed":1732806,"internal_node_id":"0.0-136.0"},{"during":"Nothing","bonus":276,"trial_type":"final","trial_index":137,"time_elapsed":1749749,"internal_node_id":"0.0-137.0"}],"bonus":276}