{"start_time":"2017-02-14 15:35:40","end_time":"2017-02-14 16:27:50","points_phase0":89,"points_phase1":79,"phase_order":1,"age":31,"gender":"f","tries":1,"during":"Nothing","worker_id":"A3H32595TVJ34Q","assignment_id":"3KYQYYSHYW08AJ3LGX3X3XWT8SUODQ","data":[{"rt":79146,"url":"\/tickets\/utils\/consent.html","trial_type":"html","trial_index":0,"time_elapsed":79359,"internal_node_id":"0.0-0.0"},{"age":31,"gender":"f","trial_type":"age","trial_index":1,"time_elapsed":86419,"internal_node_id":"0.0-1.0"},{"worker_id":"A3H32595TVJ34Q","trial_type":"workerid","trial_index":2,"time_elapsed":147958,"internal_node_id":"0.0-2.0"},{"tries":1,"trial_type":"instructions_check","trial_index":3,"time_elapsed":233875,"internal_node_id":"0.0-3.0"},{"rt":40049,"url":"\/tickets\/utils\/start.html","trial_type":"html","trial_index":4,"time_elapsed":275063,"internal_node_id":"0.0-4.0"},{"trial_type":"number-animation","trial_index":5,"time_elapsed":366888,"internal_node_id":"0.0-5.0"},{"phase":0,"sequence":0,"avg":182,"response":181,"trial_type":"training_avg","trial_index":6,"time_elapsed":649806,"internal_node_id":"0.0-6.0"},{"trial_type":"number-animation","trial_index":7,"time_elapsed":687440,"internal_node_id":"0.0-7.0"},{"phase":0,"sequence":1,"avg":188,"response":188,"trial_type":"training_avg","trial_index":8,"time_elapsed":729782,"internal_node_id":"0.0-8.0"},{"trial_type":"number-animation","trial_index":9,"time_elapsed":764619,"internal_node_id":"0.0-9.0"},{"phase":0,"sequence":2,"avg":176,"response":176,"trial_type":"training_avg","trial_index":10,"time_elapsed":809366,"internal_node_id":"0.0-10.0"},{"trial_type":"number-animation","trial_index":11,"time_elapsed":891721,"internal_node_id":"0.0-11.0"},{"phase":0,"sequence":3,"avg":180,"response":180,"trial_type":"training_avg","trial_index":12,"time_elapsed":946934,"internal_node_id":"0.0-12.0"},{"trial_type":"number-animation","trial_index":13,"time_elapsed":1009302,"internal_node_id":"0.0-13.0"},{"phase":0,"sequence":4,"avg":174,"response":174,"trial_type":"training_avg","trial_index":14,"time_elapsed":1036008,"internal_node_id":"0.0-14.0"},{"responses":[{"value":0,"offby":-1,"category":"$90 - $120","category_index":0},{"value":2,"offby":-1,"category":"$121 - $145","category_index":1},{"value":4,"offby":1,"category":"$146 - $170","category_index":2},{"value":5,"offby":-1,"category":"$171 - $195","category_index":3},{"value":3,"offby":-1,"category":"$196 - $220","category_index":4},{"value":4,"offby":2,"category":"$221 - $245","category_index":5},{"value":2,"offby":1,"category":"$246 - $270","category_index":6}],"phase":0,"number":0,"trial_type":"bar-choose","trial_index":15,"time_elapsed":1320387,"internal_node_id":"0.0-15.0"},{"rt":40634,"url":"\/tickets\/\/utils\/testing.html","trial_type":"html","trial_index":16,"time_elapsed":1362163,"internal_node_id":"0.0-16.0"},{"phase":0,"order":[24,18,37,7,45,4,47,3,11,42,44,17,27,39,40,28,15,1,5,35,26,9,19,2,23,34,13,33,36,30,20,14,49,46,41,31,25,22,32,0,29,48,10,16,6,38,12,8,21,43],"trial_type":"store_order","trial_index":17,"time_elapsed":1363165,"internal_node_id":"0.0-17.0"},{"result":126,"points":3,"place":0,"phase":0,"sequence":-1,"times":[6173,12931,4330,5254,3478,3733,6194,3851,1791,4752],"next_num":10,"trial_type":"ticket-choose","trial_index":18,"time_elapsed":1423434,"internal_node_id":"0.0-18.0"},{"rt":48795,"url":"\/tickets\/utils\/testing_after.html","trial_type":"html","trial_index":19,"time_elapsed":1473370,"internal_node_id":"0.0-19.0"},{"result":136,"points":3,"place":0,"phase":0,"sequence":0,"times":[5571,3747,3849,3781,4060,10050],"next_num":6,"trial_type":"ticket-choose","trial_index":20,"time_elapsed":1512448,"internal_node_id":"0.0-20.0"},{"result":161,"points":1,"place":2,"phase":0,"sequence":1,"times":[4755,3404,3798,2988,3878,3672,7691],"next_num":7,"trial_type":"ticket-choose","trial_index":21,"time_elapsed":1553173,"internal_node_id":"0.0-21.0"},{"result":114,"points":3,"place":0,"phase":0,"sequence":2,"times":[3725,3409,5238,2032],"next_num":4,"trial_type":"ticket-choose","trial_index":22,"time_elapsed":1574721,"internal_node_id":"0.0-22.0"},{"result":154,"points":2,"place":1,"phase":0,"sequence":3,"times":[9732,1258,1466,776,722,707,1142],"next_num":7,"trial_type":"ticket-choose","trial_index":23,"time_elapsed":1594538,"internal_node_id":"0.0-23.0"},{"result":143,"points":1,"place":2,"phase":0,"sequence":4,"times":[3647,862,1342,1786,1714,1723,1225],"next_num":7,"trial_type":"ticket-choose","trial_index":24,"time_elapsed":1612056,"internal_node_id":"0.0-24.0"},{"result":156,"points":1,"place":2,"phase":0,"sequence":5,"times":[1752,1041,2430,986,930,1280,1630,1039],"next_num":8,"trial_type":"ticket-choose","trial_index":25,"time_elapsed":1628952,"internal_node_id":"0.0-25.0"},{"result":146,"points":2,"place":1,"phase":0,"sequence":6,"times":[986,853,1103,1040,1070,1010,1226],"next_num":7,"trial_type":"ticket-choose","trial_index":26,"time_elapsed":1641425,"internal_node_id":"0.0-26.0"},{"result":129,"points":2,"place":1,"phase":0,"sequence":7,"times":[1566,3362],"next_num":2,"trial_type":"ticket-choose","trial_index":27,"time_elapsed":1649738,"internal_node_id":"0.0-27.0"},{"result":124,"points":3,"place":0,"phase":0,"sequence":8,"times":[1155,1057,998,2661],"next_num":4,"trial_type":"ticket-choose","trial_index":28,"time_elapsed":1659749,"internal_node_id":"0.0-28.0"},{"result":172,"points":1,"place":4,"phase":0,"sequence":9,"times":[3226,636,784,847,728,1078,3010,1140,1024,682],"next_num":10,"trial_type":"ticket-choose","trial_index":29,"time_elapsed":1677452,"internal_node_id":"0.0-29.0"},{"result":129,"points":1,"place":2,"phase":0,"sequence":10,"times":[1735,769,2344,1095,753,766,892],"next_num":7,"trial_type":"ticket-choose","trial_index":30,"time_elapsed":1689778,"internal_node_id":"0.0-30.0"},{"result":146,"points":2,"place":1,"phase":0,"sequence":11,"times":[867,815,846,806,932,860,940],"next_num":7,"trial_type":"ticket-choose","trial_index":31,"time_elapsed":1700427,"internal_node_id":"0.0-31.0"},{"result":188,"points":1,"place":4,"phase":0,"sequence":12,"times":[2366,704,831,1032,847,869,930,1062,1102,784],"next_num":10,"trial_type":"ticket-choose","trial_index":32,"time_elapsed":1715071,"internal_node_id":"0.0-32.0"},{"result":146,"points":2,"place":1,"phase":0,"sequence":13,"times":[1038,925,979],"next_num":3,"trial_type":"ticket-choose","trial_index":33,"time_elapsed":1720961,"internal_node_id":"0.0-33.0"},{"result":153,"points":1,"place":2,"phase":0,"sequence":14,"times":[3482,662,4344,760,1267,715,1916,947],"next_num":8,"trial_type":"ticket-choose","trial_index":34,"time_elapsed":1739014,"internal_node_id":"0.0-34.0"},{"result":128,"points":3,"place":0,"phase":0,"sequence":15,"times":[1271,1085,1631,706,752,1180,1131,972],"next_num":8,"trial_type":"ticket-choose","trial_index":35,"time_elapsed":1751976,"internal_node_id":"0.0-35.0"},{"result":131,"points":2,"place":1,"phase":0,"sequence":16,"times":[4041,612,1134],"next_num":3,"trial_type":"ticket-choose","trial_index":36,"time_elapsed":1760310,"internal_node_id":"0.0-36.0"},{"result":154,"points":2,"place":1,"phase":0,"sequence":17,"times":[917,906,729,744,1155,802,1017],"next_num":7,"trial_type":"ticket-choose","trial_index":37,"time_elapsed":1770244,"internal_node_id":"0.0-37.0"},{"result":152,"points":1,"place":2,"phase":0,"sequence":18,"times":[1010,707,1235,706,800,1234,1561,1224],"next_num":8,"trial_type":"ticket-choose","trial_index":38,"time_elapsed":1782615,"internal_node_id":"0.0-38.0"},{"result":154,"points":2,"place":1,"phase":0,"sequence":19,"times":[1024,794,761,782,847,731,1110],"next_num":7,"trial_type":"ticket-choose","trial_index":39,"time_elapsed":1791983,"internal_node_id":"0.0-39.0"},{"result":155,"points":1,"place":2,"phase":0,"sequence":20,"times":[705,984,838,743,1031,761,1754],"next_num":7,"trial_type":"ticket-choose","trial_index":40,"time_elapsed":1802282,"internal_node_id":"0.0-40.0"},{"result":155,"points":1,"place":2,"phase":0,"sequence":21,"times":[611,1977,1211,798,793,892,922,3586],"next_num":8,"trial_type":"ticket-choose","trial_index":41,"time_elapsed":1816716,"internal_node_id":"0.0-41.0"},{"result":117,"points":3,"place":0,"phase":0,"sequence":22,"times":[1933],"next_num":1,"trial_type":"ticket-choose","trial_index":42,"time_elapsed":1821443,"internal_node_id":"0.0-42.0"},{"result":136,"points":2,"place":1,"phase":0,"sequence":23,"times":[820,645,1761],"next_num":3,"trial_type":"ticket-choose","trial_index":43,"time_elapsed":1827187,"internal_node_id":"0.0-43.0"},{"result":149,"points":3,"place":0,"phase":0,"sequence":24,"times":[657,642,684,737,1132,908,884,1164],"next_num":8,"trial_type":"ticket-choose","trial_index":44,"time_elapsed":1837679,"internal_node_id":"0.0-44.0"},{"result":136,"points":2,"place":1,"phase":0,"sequence":25,"times":[3514,645,1776],"next_num":3,"trial_type":"ticket-choose","trial_index":45,"time_elapsed":1861460,"internal_node_id":"0.0-45.0"},{"result":124,"points":3,"place":0,"phase":0,"sequence":26,"times":[4312,691,1924,2795,567,669,823],"next_num":7,"trial_type":"ticket-choose","trial_index":46,"time_elapsed":1876942,"internal_node_id":"0.0-46.0"},{"result":146,"points":2,"place":1,"phase":0,"sequence":27,"times":[986,2014,800,595,622,698,868],"next_num":7,"trial_type":"ticket-choose","trial_index":47,"time_elapsed":1886767,"internal_node_id":"0.0-47.0"},{"result":146,"points":2,"place":1,"phase":0,"sequence":28,"times":[706,628,630,636,715,699,995],"next_num":7,"trial_type":"ticket-choose","trial_index":48,"time_elapsed":1895042,"internal_node_id":"0.0-48.0"},{"result":136,"points":2,"place":1,"phase":0,"sequence":29,"times":[744,768,738,782,685,704,940],"next_num":7,"trial_type":"ticket-choose","trial_index":49,"time_elapsed":1903741,"internal_node_id":"0.0-49.0"},{"result":116,"points":3,"place":0,"phase":0,"sequence":30,"times":[877,1024,692,652,707,1219],"next_num":6,"trial_type":"ticket-choose","trial_index":50,"time_elapsed":1912621,"internal_node_id":"0.0-50.0"},{"result":196,"points":1,"place":4,"phase":0,"sequence":31,"times":[2321,676,1211,924,6108,552,1364,630,690,628],"next_num":10,"trial_type":"ticket-choose","trial_index":51,"time_elapsed":1931638,"internal_node_id":"0.0-51.0"},{"result":136,"points":2,"place":1,"phase":0,"sequence":32,"times":[717,884,660,628,660,789,994],"next_num":7,"trial_type":"ticket-choose","trial_index":52,"time_elapsed":1940270,"internal_node_id":"0.0-52.0"},{"result":116,"points":3,"place":0,"phase":0,"sequence":33,"times":[521,978,1189],"next_num":3,"trial_type":"ticket-choose","trial_index":53,"time_elapsed":1945751,"internal_node_id":"0.0-53.0"},{"result":136,"points":2,"place":1,"phase":0,"sequence":34,"times":[542,652,798,768,723,953,940],"next_num":7,"trial_type":"ticket-choose","trial_index":54,"time_elapsed":1954372,"internal_node_id":"0.0-54.0"},{"result":217,"points":0,"place":8,"phase":0,"sequence":35,"times":[853,673,1895,721,653,722,1467,685,1078,1218],"next_num":10,"trial_type":"ticket-choose","trial_index":55,"time_elapsed":1968639,"internal_node_id":"0.0-55.0"},{"result":152,"points":1,"place":2,"phase":0,"sequence":36,"times":[674,706,775,690,746,761,1033,1297],"next_num":8,"trial_type":"ticket-choose","trial_index":56,"time_elapsed":1979188,"internal_node_id":"0.0-56.0"},{"result":179,"points":1,"place":4,"phase":0,"sequence":37,"times":[873,615,1007,684,675,628,636,723,636,649],"next_num":10,"trial_type":"ticket-choose","trial_index":57,"time_elapsed":1990357,"internal_node_id":"0.0-57.0"},{"result":162,"points":1,"place":3,"phase":0,"sequence":38,"times":[623,698,666,698,1048,954,699,761,817,690],"next_num":10,"trial_type":"ticket-choose","trial_index":58,"time_elapsed":2002070,"internal_node_id":"0.0-58.0"},{"result":165,"points":1,"place":2,"phase":0,"sequence":39,"times":[721,612,962,744,854,714,2002],"next_num":7,"trial_type":"ticket-choose","trial_index":59,"time_elapsed":2011865,"internal_node_id":"0.0-59.0"},{"result":146,"points":3,"place":0,"phase":0,"sequence":40,"times":[1031,729,575,591,669,776,659,1095],"next_num":8,"trial_type":"ticket-choose","trial_index":60,"time_elapsed":2021599,"internal_node_id":"0.0-60.0"},{"result":118,"points":2,"place":1,"phase":0,"sequence":41,"times":[917,2080,877],"next_num":3,"trial_type":"ticket-choose","trial_index":61,"time_elapsed":2028359,"internal_node_id":"0.0-61.0"},{"result":158,"points":1,"place":2,"phase":0,"sequence":42,"times":[775,583,653,809,799,761,792,1663],"next_num":8,"trial_type":"ticket-choose","trial_index":62,"time_elapsed":2038614,"internal_node_id":"0.0-62.0"},{"result":149,"points":1,"place":2,"phase":0,"sequence":43,"times":[619,790,870,752,668,714,1272,902],"next_num":8,"trial_type":"ticket-choose","trial_index":63,"time_elapsed":2048704,"internal_node_id":"0.0-63.0"},{"result":175,"points":1,"place":2,"phase":0,"sequence":44,"times":[1046,660,1103,691,636,691,823,790,854],"next_num":9,"trial_type":"ticket-choose","trial_index":64,"time_elapsed":2060067,"internal_node_id":"0.0-64.0"},{"result":154,"points":2,"place":1,"phase":0,"sequence":45,"times":[738,644,1467,616,836,677,1103],"next_num":7,"trial_type":"ticket-choose","trial_index":65,"time_elapsed":2069404,"internal_node_id":"0.0-65.0"},{"result":158,"points":1,"place":2,"phase":0,"sequence":46,"times":[582,689,1378,606,893,652,658,1281],"next_num":8,"trial_type":"ticket-choose","trial_index":66,"time_elapsed":2079588,"internal_node_id":"0.0-66.0"},{"result":136,"points":2,"place":1,"phase":0,"sequence":47,"times":[533,579,576,629,699,683,1164],"next_num":7,"trial_type":"ticket-choose","trial_index":67,"time_elapsed":2087706,"internal_node_id":"0.0-67.0"},{"result":105,"points":3,"place":0,"phase":0,"sequence":48,"times":[806,698,876,822,1032],"next_num":5,"trial_type":"ticket-choose","trial_index":68,"time_elapsed":2094969,"internal_node_id":"0.0-68.0"},{"result":154,"points":1,"place":2,"phase":0,"sequence":49,"times":[641,730,1350,600,652,650,677,1217],"next_num":8,"trial_type":"ticket-choose","trial_index":69,"time_elapsed":2104912,"internal_node_id":"0.0-69.0"},{"responses":[{"value":1,"offby":0,"category":"$90 - $120","category_index":0},{"value":2,"offby":-1,"category":"$121 - $145","category_index":1},{"value":3,"offby":0,"category":"$146 - $170","category_index":2},{"value":5,"offby":-1,"category":"$171 - $195","category_index":3},{"value":4,"offby":0,"category":"$196 - $220","category_index":4},{"value":4,"offby":2,"category":"$221 - $245","category_index":5},{"value":1,"offby":0,"category":"$246 - $270","category_index":6}],"phase":0,"number":1,"trial_type":"bar-choose","trial_index":70,"time_elapsed":2225968,"internal_node_id":"0.0-70.0"},{"rt":12437,"url":"\/tickets\/utils\/start2.html","trial_type":"html","trial_index":71,"time_elapsed":2239547,"internal_node_id":"0.0-71.0"},{"trial_type":"number-animation","trial_index":72,"time_elapsed":2291453,"internal_node_id":"0.0-72.0"},{"phase":1,"sequence":0,"avg":181,"response":181,"trial_type":"training_avg","trial_index":73,"time_elapsed":2301488,"internal_node_id":"0.0-73.0"},{"trial_type":"number-animation","trial_index":74,"time_elapsed":2342171,"internal_node_id":"0.0-74.0"},{"phase":1,"sequence":1,"avg":188,"response":174,"trial_type":"training_avg","trial_index":75,"time_elapsed":2350748,"internal_node_id":"0.0-75.0"},{"trial_type":"number-animation","trial_index":76,"time_elapsed":2393986,"internal_node_id":"0.0-76.0"},{"phase":1,"sequence":2,"avg":188,"response":188,"trial_type":"training_avg","trial_index":77,"time_elapsed":2410831,"internal_node_id":"0.0-77.0"},{"trial_type":"number-animation","trial_index":78,"time_elapsed":2455252,"internal_node_id":"0.0-78.0"},{"phase":1,"sequence":3,"avg":177,"response":177,"trial_type":"training_avg","trial_index":79,"time_elapsed":2467352,"internal_node_id":"0.0-79.0"},{"trial_type":"number-animation","trial_index":80,"time_elapsed":2509792,"internal_node_id":"0.0-80.0"},{"phase":1,"sequence":4,"avg":182,"response":182,"trial_type":"training_avg","trial_index":81,"time_elapsed":2522012,"internal_node_id":"0.0-81.0"},{"responses":[{"value":1,"offby":1,"category":"$106 - $134","category_index":0},{"value":3,"offby":2,"category":"$135 - $150","category_index":1},{"value":2,"offby":-1,"category":"$151 - $165","category_index":2},{"value":4,"offby":-2,"category":"$166 - $180","category_index":3},{"value":5,"offby":-1,"category":"$181 - $195","category_index":4},{"value":4,"offby":1,"category":"$196 - $210","category_index":5},{"value":1,"offby":0,"category":"$211 - $225","category_index":6}],"phase":1,"number":0,"trial_type":"bar-choose","trial_index":82,"time_elapsed":2568115,"internal_node_id":"0.0-82.0"},{"rt":4239,"url":"\/tickets\/utils\/testing2.html","trial_type":"html","trial_index":83,"time_elapsed":2573495,"internal_node_id":"0.0-83.0"},{"phase":1,"order":[46,28,48,12,26,8,5,35,47,30,29,4,24,1,2,36,41,15,19,14,33,9,31,18,45,16,37,7,6,23,49,32,21,34,20,40,0,25,39,27,38,44,10,3,43,13,11,22,42,17],"trial_type":"store_order","trial_index":84,"time_elapsed":2574497,"internal_node_id":"0.0-84.0"},{"result":184,"points":1,"place":4,"phase":1,"sequence":0,"times":[5445,862,534,598,551,574,636,668,712,644],"next_num":10,"trial_type":"ticket-choose","trial_index":85,"time_elapsed":2589576,"internal_node_id":"0.0-85.0"},{"result":165,"points":1,"place":2,"phase":1,"sequence":1,"times":[790,419,419,605,528,521,612,793],"next_num":8,"trial_type":"ticket-choose","trial_index":86,"time_elapsed":2597647,"internal_node_id":"0.0-86.0"},{"result":152,"points":3,"place":0,"phase":1,"sequence":2,"times":[1043,486,684,799,606,774,1080],"next_num":7,"trial_type":"ticket-choose","trial_index":87,"time_elapsed":2606269,"internal_node_id":"0.0-87.0"},{"result":163,"points":2,"place":1,"phase":1,"sequence":3,"times":[596,637,388,661,605,615,1025],"next_num":7,"trial_type":"ticket-choose","trial_index":88,"time_elapsed":2613937,"internal_node_id":"0.0-88.0"},{"result":164,"points":3,"place":0,"phase":1,"sequence":4,"times":[774,481,512,651,846,620,908,869],"next_num":8,"trial_type":"ticket-choose","trial_index":89,"time_elapsed":2622880,"internal_node_id":"0.0-89.0"},{"result":163,"points":2,"place":1,"phase":1,"sequence":5,"times":[681,435,465,365,621,617,929],"next_num":7,"trial_type":"ticket-choose","trial_index":90,"time_elapsed":2630113,"internal_node_id":"0.0-90.0"},{"result":154,"points":2,"place":1,"phase":1,"sequence":6,"times":[1434,545,604,1180,590,706,1086,946],"next_num":8,"trial_type":"ticket-choose","trial_index":91,"time_elapsed":2640986,"internal_node_id":"0.0-91.0"},{"result":165,"points":1,"place":2,"phase":1,"sequence":7,"times":[680,636,529,567,793,605,768,822],"next_num":8,"trial_type":"ticket-choose","trial_index":92,"time_elapsed":2649743,"internal_node_id":"0.0-92.0"},{"result":169,"points":1,"place":2,"phase":1,"sequence":8,"times":[944,768,575,604,566,714,1296,1010],"next_num":8,"trial_type":"ticket-choose","trial_index":93,"time_elapsed":2659601,"internal_node_id":"0.0-93.0"},{"result":143,"points":3,"place":0,"phase":1,"sequence":9,"times":[589,489,690,652,1467],"next_num":5,"trial_type":"ticket-choose","trial_index":94,"time_elapsed":2666346,"internal_node_id":"0.0-94.0"},{"result":141,"points":3,"place":0,"phase":1,"sequence":10,"times":[453,474,1062,497,598,864],"next_num":6,"trial_type":"ticket-choose","trial_index":95,"time_elapsed":2673220,"internal_node_id":"0.0-95.0"},{"result":167,"points":1,"place":2,"phase":1,"sequence":11,"times":[657,350,311,535,613,558,567,815],"next_num":8,"trial_type":"ticket-choose","trial_index":96,"time_elapsed":2680989,"internal_node_id":"0.0-96.0"},{"result":186,"points":1,"place":4,"phase":1,"sequence":12,"times":[813,544,394,388,364,600,660,698,790,528],"next_num":10,"trial_type":"ticket-choose","trial_index":97,"time_elapsed":2690441,"internal_node_id":"0.0-97.0"},{"result":171,"points":1,"place":3,"phase":1,"sequence":13,"times":[458,395,434,505,538,567,675,669,985,636],"next_num":10,"trial_type":"ticket-choose","trial_index":98,"time_elapsed":2700276,"internal_node_id":"0.0-98.0"},{"result":158,"points":2,"place":1,"phase":1,"sequence":14,"times":[525,512,512,852,622,620,984],"next_num":7,"trial_type":"ticket-choose","trial_index":99,"time_elapsed":2708005,"internal_node_id":"0.0-99.0"},{"result":185,"points":1,"place":4,"phase":1,"sequence":15,"times":[513,272,310,418,528,721,581,731,691,560],"next_num":10,"trial_type":"ticket-choose","trial_index":100,"time_elapsed":2716970,"internal_node_id":"0.0-100.0"},{"result":167,"points":2,"place":1,"phase":1,"sequence":16,"times":[409,264,588,280,504,294,1024],"next_num":7,"trial_type":"ticket-choose","trial_index":101,"time_elapsed":2723450,"internal_node_id":"0.0-101.0"},{"result":165,"points":1,"place":2,"phase":1,"sequence":17,"times":[999,1048,402,296,364,560,443,739],"next_num":8,"trial_type":"ticket-choose","trial_index":102,"time_elapsed":2734370,"internal_node_id":"0.0-102.0"},{"result":163,"points":2,"place":1,"phase":1,"sequence":18,"times":[688,978,418,272,364,892,846],"next_num":7,"trial_type":"ticket-choose","trial_index":103,"time_elapsed":2744917,"internal_node_id":"0.0-103.0"},{"result":195,"points":0,"place":7,"phase":1,"sequence":19,"times":[891,373,699,597,1213],"next_num":5,"trial_type":"ticket-choose","trial_index":104,"time_elapsed":2751459,"internal_node_id":"0.0-104.0"},{"result":161,"points":1,"place":2,"phase":1,"sequence":20,"times":[483,464,328,487,652,628,887],"next_num":7,"trial_type":"ticket-choose","trial_index":105,"time_elapsed":2758445,"internal_node_id":"0.0-105.0"},{"result":178,"points":1,"place":4,"phase":1,"sequence":21,"times":[470,225,505,652,715,505,1018],"next_num":7,"trial_type":"ticket-choose","trial_index":106,"time_elapsed":2766301,"internal_node_id":"0.0-106.0"},{"result":166,"points":1,"place":2,"phase":1,"sequence":22,"times":[432,228,581,341,335,505,567,704],"next_num":8,"trial_type":"ticket-choose","trial_index":107,"time_elapsed":2773276,"internal_node_id":"0.0-107.0"},{"result":176,"points":1,"place":4,"phase":1,"sequence":23,"times":[652,318,558,612,684,542,745],"next_num":7,"trial_type":"ticket-choose","trial_index":108,"time_elapsed":2780434,"internal_node_id":"0.0-108.0"},{"result":158,"points":2,"place":1,"phase":1,"sequence":24,"times":[525,216,529,544,629,551,1095],"next_num":7,"trial_type":"ticket-choose","trial_index":109,"time_elapsed":2787545,"internal_node_id":"0.0-109.0"},{"result":172,"points":1,"place":4,"phase":1,"sequence":25,"times":[446,226,598,262,396,411,763],"next_num":7,"trial_type":"ticket-choose","trial_index":110,"time_elapsed":2793722,"internal_node_id":"0.0-110.0"},{"result":156,"points":3,"place":0,"phase":1,"sequence":26,"times":[496,264,365,334,389,342,474,1018,668,613],"next_num":10,"trial_type":"ticket-choose","trial_index":111,"time_elapsed":2802349,"internal_node_id":"0.0-111.0"},{"result":167,"points":1,"place":2,"phase":1,"sequence":27,"times":[410,365,567,351,528,637,1256],"next_num":7,"trial_type":"ticket-choose","trial_index":112,"time_elapsed":2809554,"internal_node_id":"0.0-112.0"},{"result":154,"points":3,"place":0,"phase":1,"sequence":28,"times":[439,386,295,402,404,512,520,1631],"next_num":8,"trial_type":"ticket-choose","trial_index":113,"time_elapsed":2817370,"internal_node_id":"0.0-113.0"},{"result":176,"points":1,"place":4,"phase":1,"sequence":29,"times":[735,272,326,381,505,629,677,682,598,513],"next_num":10,"trial_type":"ticket-choose","trial_index":114,"time_elapsed":2826343,"internal_node_id":"0.0-114.0"},{"result":158,"points":2,"place":1,"phase":1,"sequence":30,"times":[411,325,348,413,552,518,1080],"next_num":7,"trial_type":"ticket-choose","trial_index":115,"time_elapsed":2833019,"internal_node_id":"0.0-115.0"},{"result":169,"points":1,"place":2,"phase":1,"sequence":31,"times":[512,287,443,504,551,256,583,715],"next_num":8,"trial_type":"ticket-choose","trial_index":116,"time_elapsed":2840124,"internal_node_id":"0.0-116.0"},{"result":148,"points":3,"place":0,"phase":1,"sequence":32,"times":[422,256,752,412,529,992],"next_num":6,"trial_type":"ticket-choose","trial_index":117,"time_elapsed":2846263,"internal_node_id":"0.0-117.0"},{"result":176,"points":1,"place":2,"phase":1,"sequence":33,"times":[635,219,341,249,319,302,631,1498,879],"next_num":9,"trial_type":"ticket-choose","trial_index":118,"time_elapsed":2854726,"internal_node_id":"0.0-118.0"},{"result":135,"points":3,"place":0,"phase":1,"sequence":34,"times":[409,273,271,318,854,1614,754,807],"next_num":8,"trial_type":"ticket-choose","trial_index":119,"time_elapsed":2863271,"internal_node_id":"0.0-119.0"},{"result":165,"points":1,"place":4,"phase":1,"sequence":35,"times":[426,755,341,405,627,653,1538,699,752,591],"next_num":10,"trial_type":"ticket-choose","trial_index":120,"time_elapsed":2873743,"internal_node_id":"0.0-120.0"},{"result":179,"points":1,"place":4,"phase":1,"sequence":36,"times":[519,281,327,426,434,714,738,744,666,449],"next_num":10,"trial_type":"ticket-choose","trial_index":121,"time_elapsed":2882825,"internal_node_id":"0.0-121.0"},{"result":158,"points":2,"place":1,"phase":1,"sequence":37,"times":[975,342,419,436,2725,543,932],"next_num":7,"trial_type":"ticket-choose","trial_index":122,"time_elapsed":2892256,"internal_node_id":"0.0-122.0"},{"result":174,"points":1,"place":2,"phase":1,"sequence":38,"times":[463,248,652,256,729,590,976],"next_num":7,"trial_type":"ticket-choose","trial_index":123,"time_elapsed":2899263,"internal_node_id":"0.0-123.0"},{"result":187,"points":0,"place":7,"phase":1,"sequence":39,"times":[408,242,629,691,537,1422],"next_num":6,"trial_type":"ticket-choose","trial_index":124,"time_elapsed":2906096,"internal_node_id":"0.0-124.0"},{"result":155,"points":1,"place":2,"phase":1,"sequence":40,"times":[993,482,481,1063,685,620,845],"next_num":7,"trial_type":"ticket-choose","trial_index":125,"time_elapsed":2914781,"internal_node_id":"0.0-125.0"},{"result":177,"points":1,"place":3,"phase":1,"sequence":41,"times":[681,388,458,480,970,373,863],"next_num":7,"trial_type":"ticket-choose","trial_index":126,"time_elapsed":2922062,"internal_node_id":"0.0-126.0"},{"result":178,"points":1,"place":4,"phase":1,"sequence":42,"times":[426,273,319,521,389,397,1008],"next_num":7,"trial_type":"ticket-choose","trial_index":127,"time_elapsed":2928414,"internal_node_id":"0.0-127.0"},{"result":166,"points":1,"place":2,"phase":1,"sequence":43,"times":[744,349,272,596,388,303,1134,728],"next_num":8,"trial_type":"ticket-choose","trial_index":128,"time_elapsed":2936197,"internal_node_id":"0.0-128.0"},{"result":163,"points":2,"place":1,"phase":1,"sequence":44,"times":[573,396,390,637,371,792,1661],"next_num":7,"trial_type":"ticket-choose","trial_index":129,"time_elapsed":2944102,"internal_node_id":"0.0-129.0"},{"result":163,"points":3,"place":0,"phase":1,"sequence":45,"times":[480,339,396,442,475,542,644,892],"next_num":8,"trial_type":"ticket-choose","trial_index":130,"time_elapsed":2951567,"internal_node_id":"0.0-130.0"},{"result":167,"points":2,"place":1,"phase":1,"sequence":46,"times":[535,356,496,488,490,529,901],"next_num":7,"trial_type":"ticket-choose","trial_index":131,"time_elapsed":2958422,"internal_node_id":"0.0-131.0"},{"result":168,"points":1,"place":2,"phase":1,"sequence":47,"times":[743,303,537,406,347,505,566,894],"next_num":8,"trial_type":"ticket-choose","trial_index":132,"time_elapsed":2965967,"internal_node_id":"0.0-132.0"},{"result":158,"points":2,"place":1,"phase":1,"sequence":48,"times":[980,542,389,434,436,442,1001],"next_num":7,"trial_type":"ticket-choose","trial_index":133,"time_elapsed":2973271,"internal_node_id":"0.0-133.0"},{"result":170,"points":2,"place":1,"phase":1,"sequence":49,"times":[765,225,429,769,481,561,567,666,946,529],"next_num":10,"trial_type":"ticket-choose","trial_index":134,"time_elapsed":2983532,"internal_node_id":"0.0-134.0"},{"responses":[{"value":2,"offby":2,"category":"$106 - $134","category_index":0},{"value":3,"offby":2,"category":"$135 - $150","category_index":1},{"value":4,"offby":1,"category":"$151 - $165","category_index":2},{"value":5,"offby":-1,"category":"$166 - $180","category_index":3},{"value":3,"offby":-3,"category":"$181 - $195","category_index":4},{"value":2,"offby":-1,"category":"$196 - $210","category_index":5},{"value":1,"offby":0,"category":"$211 - $225","category_index":6}],"phase":1,"number":1,"trial_type":"bar-choose","trial_index":135,"time_elapsed":3007245,"internal_node_id":"0.0-135.0"},{"special_comment":"Inoticed that there looked like a pattern of a low number first and then a couple of higher numbers and then the numbers would drop again to a lower amount.","trial_type":"special_sequence","trial_index":136,"time_elapsed":3074605,"internal_node_id":"0.0-136.0"},{"during":"Nothing","bonus":224,"trial_type":"final","trial_index":137,"time_elapsed":3127126,"internal_node_id":"0.0-137.0"}],"bonus":224}