{"start_time":"2017-02-24 17:28:11","end_time":"2017-02-24 17:45:46","points_phase0":113,"points_phase1":105,"phase_order":0,"age":66,"gender":"m","tries":1,"during":"Nothing","worker_id":"A3HESOWHVBQOEI","assignment_id":"3S96KQ6I9NXONB8TCEPWX72G8AHDTS","data":[{"rt":8169,"url":"\/tickets\/utils\/consent.html","trial_type":"html","trial_index":0,"time_elapsed":8255,"internal_node_id":"0.0-0.0"},{"age":66,"gender":"m","trial_type":"age","trial_index":1,"time_elapsed":11937,"internal_node_id":"0.0-1.0"},{"worker_id":"A3HESOWHVBQOEI","trial_type":"workerid","trial_index":2,"time_elapsed":18223,"internal_node_id":"0.0-2.0"},{"tries":1,"trial_type":"instructions_check","trial_index":3,"time_elapsed":34003,"internal_node_id":"0.0-3.0"},{"rt":3471,"url":"\/tickets\/utils\/start.html","trial_type":"html","trial_index":4,"time_elapsed":38618,"internal_node_id":"0.0-4.0"},{"trial_type":"number-animation","trial_index":5,"time_elapsed":47807,"internal_node_id":"0.0-5.0"},{"phase":0,"sequence":0,"avg":180,"response":178,"trial_type":"training_avg","trial_index":6,"time_elapsed":53800,"internal_node_id":"0.0-6.0"},{"trial_type":"number-animation","trial_index":7,"time_elapsed":61938,"internal_node_id":"0.0-7.0"},{"phase":0,"sequence":1,"avg":178,"response":177,"trial_type":"training_avg","trial_index":8,"time_elapsed":68285,"internal_node_id":"0.0-8.0"},{"trial_type":"number-animation","trial_index":9,"time_elapsed":76549,"internal_node_id":"0.0-9.0"},{"phase":0,"sequence":2,"avg":176,"response":172,"trial_type":"training_avg","trial_index":10,"time_elapsed":80728,"internal_node_id":"0.0-10.0"},{"trial_type":"number-animation","trial_index":11,"time_elapsed":90172,"internal_node_id":"0.0-11.0"},{"phase":0,"sequence":3,"avg":178,"response":175,"trial_type":"training_avg","trial_index":12,"time_elapsed":94798,"internal_node_id":"0.0-12.0"},{"trial_type":"number-animation","trial_index":13,"time_elapsed":102750,"internal_node_id":"0.0-13.0"},{"phase":0,"sequence":4,"avg":179,"response":175,"trial_type":"training_avg","trial_index":14,"time_elapsed":106859,"internal_node_id":"0.0-14.0"},{"responses":[{"value":0,"offby":0,"category":"$140 - $250","category_index":0},{"value":3,"offby":3,"category":"$151 - $160","category_index":1},{"value":5,"offby":1,"category":"$161 - $170","category_index":2},{"value":6,"offby":0,"category":"$171 - $180","category_index":3},{"value":5,"offby":-2,"category":"$181 - $190","category_index":4},{"value":1,"offby":-2,"category":"$191 - $200","category_index":5},{"value":0,"offby":0,"category":"$201 - $210","category_index":6}],"phase":0,"number":0,"trial_type":"bar-choose","trial_index":15,"time_elapsed":146291,"internal_node_id":"0.0-15.0"},{"rt":6290,"url":"\/tickets\/\/utils\/testing.html","trial_type":"html","trial_index":16,"time_elapsed":153801,"internal_node_id":"0.0-16.0"},{"phase":0,"order":[46,49,5,10,15,42,21,30,45,12,35,9,23,11,19,32,3,18,24,40,38,6,36,1,34,25,48,14,16,37,29,33,0,17,8,41,20,44,39,4,43,22,27,47,28,31,26,2,13,7],"trial_type":"store_order","trial_index":17,"time_elapsed":154805,"internal_node_id":"0.0-17.0"},{"result":165,"points":2,"place":1,"phase":0,"sequence":-1,"prices":[184,180,224,165,181,199,185,193,218,126],"times":[3366,683,571,936],"next_num":4,"trial_type":"ticket-choose","trial_index":18,"time_elapsed":163060,"internal_node_id":"0.0-18.0"},{"rt":10083,"url":"\/tickets\/utils\/testing_after.html","trial_type":"html","trial_index":19,"time_elapsed":174371,"internal_node_id":"0.0-19.0"},{"result":166,"points":3,"place":0,"phase":0,"sequence":0,"prices":[179,186,197,201,166,187,188,193,190,177],"times":[1127,687,612,509,985],"next_num":5,"trial_type":"ticket-choose","trial_index":20,"time_elapsed":181357,"internal_node_id":"0.0-20.0"},{"result":170,"points":2,"place":1,"phase":0,"sequence":1,"prices":[175,189,193,170,179,165,180,186,177,184],"times":[620,499,461,2079],"next_num":4,"trial_type":"ticket-choose","trial_index":21,"time_elapsed":187504,"internal_node_id":"0.0-21.0"},{"result":169,"points":2,"place":1,"phase":0,"sequence":2,"prices":[175,179,177,193,178,182,169,172,164,183],"times":[1024,526,440,480,509,520,1088],"next_num":7,"trial_type":"ticket-choose","trial_index":22,"time_elapsed":195309,"internal_node_id":"0.0-22.0"},{"result":166,"points":3,"place":0,"phase":0,"sequence":3,"prices":[175,180,170,195,179,184,178,174,166,185],"times":[507,449,434,550,457,688,736,620,871],"next_num":9,"trial_type":"ticket-choose","trial_index":23,"time_elapsed":204354,"internal_node_id":"0.0-23.0"},{"result":170,"points":2,"place":1,"phase":0,"sequence":4,"prices":[175,180,178,195,179,184,170,174,166,185],"times":[765,522,547,536,583,512,1107],"next_num":7,"trial_type":"ticket-choose","trial_index":24,"time_elapsed":212104,"internal_node_id":"0.0-24.0"},{"result":160,"points":3,"place":0,"phase":0,"sequence":5,"prices":[175,193,175,160,180,170,175,205,177,167],"times":[1221,456,597,979],"next_num":4,"trial_type":"ticket-choose","trial_index":25,"time_elapsed":217805,"internal_node_id":"0.0-25.0"},{"result":168,"points":2,"place":1,"phase":0,"sequence":6,"prices":[174,178,176,192,177,181,168,171,163,182],"times":[5651,507,533,495,628,639,994],"next_num":7,"trial_type":"ticket-choose","trial_index":26,"time_elapsed":230362,"internal_node_id":"0.0-26.0"},{"result":160,"points":3,"place":0,"phase":0,"sequence":7,"prices":[160,185,170,174,182,196,173,186,194,177],"times":[1692],"next_num":1,"trial_type":"ticket-choose","trial_index":27,"time_elapsed":233869,"internal_node_id":"0.0-27.0"},{"result":162,"points":3,"place":0,"phase":0,"sequence":8,"prices":[179,174,172,162,202,184,165,197,185,169],"times":[783,488,981,1809],"next_num":4,"trial_type":"ticket-choose","trial_index":28,"time_elapsed":240408,"internal_node_id":"0.0-28.0"},{"result":170,"points":2,"place":1,"phase":0,"sequence":9,"prices":[176,180,178,194,179,183,170,173,165,184],"times":[651,536,520,577,517,522,969],"next_num":7,"trial_type":"ticket-choose","trial_index":29,"time_elapsed":247836,"internal_node_id":"0.0-29.0"},{"result":154,"points":3,"place":0,"phase":0,"sequence":10,"prices":[188,179,154,183,173,170,177,160,169,175],"times":[550,527,1093],"next_num":3,"trial_type":"ticket-choose","trial_index":30,"time_elapsed":252507,"internal_node_id":"0.0-30.0"},{"result":170,"points":2,"place":1,"phase":0,"sequence":11,"prices":[176,180,170,194,179,183,178,173,165,184],"times":[1469,509,1045],"next_num":3,"trial_type":"ticket-choose","trial_index":31,"time_elapsed":257805,"internal_node_id":"0.0-31.0"},{"result":168,"points":2,"place":1,"phase":0,"sequence":12,"prices":[173,178,176,193,177,182,168,172,164,183],"times":[831,467,451,438,605,795,1026],"next_num":7,"trial_type":"ticket-choose","trial_index":32,"time_elapsed":265577,"internal_node_id":"0.0-32.0"},{"result":170,"points":2,"place":1,"phase":0,"sequence":13,"prices":[175,180,170,195,179,184,178,174,166,185],"times":[586,479,1251],"next_num":3,"trial_type":"ticket-choose","trial_index":33,"time_elapsed":270054,"internal_node_id":"0.0-33.0"},{"result":168,"points":2,"place":1,"phase":0,"sequence":14,"prices":[173,178,168,193,177,182,176,172,164,183],"times":[503,485,978],"next_num":3,"trial_type":"ticket-choose","trial_index":34,"time_elapsed":274295,"internal_node_id":"0.0-34.0"},{"result":175,"points":1,"place":4,"phase":0,"sequence":15,"prices":[171,180,172,174,179,188,173,183,186,175],"times":[1021,486,508,527,516,506,1059,529,696,766],"next_num":10,"trial_type":"ticket-choose","trial_index":35,"time_elapsed":284648,"internal_node_id":"0.0-35.0"},{"result":169,"points":2,"place":1,"phase":0,"sequence":16,"prices":[174,179,169,194,178,183,177,173,165,184],"times":[774,477,1084],"next_num":3,"trial_type":"ticket-choose","trial_index":36,"time_elapsed":289195,"internal_node_id":"0.0-36.0"},{"result":168,"points":2,"place":1,"phase":0,"sequence":17,"prices":[173,178,168,193,177,182,176,172,164,183],"times":[1643,495,1150],"next_num":3,"trial_type":"ticket-choose","trial_index":37,"time_elapsed":294983,"internal_node_id":"0.0-37.0"},{"result":170,"points":2,"place":1,"phase":0,"sequence":18,"prices":[161,180,170,174,178,198,173,182,188,176],"times":[827,754,1072],"next_num":3,"trial_type":"ticket-choose","trial_index":38,"time_elapsed":299803,"internal_node_id":"0.0-38.0"},{"result":167,"points":3,"place":0,"phase":0,"sequence":19,"prices":[179,174,199,178,196,167,170,184,177,190],"times":[539,500,570,505,531,933],"next_num":6,"trial_type":"ticket-choose","trial_index":39,"time_elapsed":306317,"internal_node_id":"0.0-39.0"},{"result":170,"points":3,"place":0,"phase":0,"sequence":20,"prices":[181,179,199,188,170,172,178,187,191,177],"times":[985,534,450,481,1101],"next_num":5,"trial_type":"ticket-choose","trial_index":40,"time_elapsed":312443,"internal_node_id":"0.0-40.0"},{"result":169,"points":2,"place":1,"phase":0,"sequence":21,"prices":[174,179,177,194,178,183,169,173,165,184],"times":[29488,795,677,547,597,534,666],"next_num":7,"trial_type":"ticket-choose","trial_index":41,"time_elapsed":348816,"internal_node_id":"0.0-41.0"},{"result":169,"points":1,"place":2,"phase":0,"sequence":22,"prices":[189,185,169,168,167,171,180,173,174,188],"times":[632,458,952],"next_num":3,"trial_type":"ticket-choose","trial_index":42,"time_elapsed":352970,"internal_node_id":"0.0-42.0"},{"result":169,"points":2,"place":1,"phase":0,"sequence":23,"prices":[175,179,169,193,178,182,177,172,164,183],"times":[447,465,1106],"next_num":3,"trial_type":"ticket-choose","trial_index":43,"time_elapsed":357205,"internal_node_id":"0.0-43.0"},{"result":165,"points":2,"place":1,"phase":0,"sequence":24,"prices":[181,180,191,186,165,197,159,167,194,185],"times":[542,448,445,591,953],"next_num":5,"trial_type":"ticket-choose","trial_index":44,"time_elapsed":362806,"internal_node_id":"0.0-44.0"},{"result":163,"points":3,"place":0,"phase":0,"sequence":25,"prices":[163,185,165,174,181,198,173,186,187,180],"times":[1085],"next_num":1,"trial_type":"ticket-choose","trial_index":45,"time_elapsed":365643,"internal_node_id":"0.0-45.0"},{"result":171,"points":3,"place":0,"phase":0,"sequence":26,"prices":[193,173,175,182,179,198,181,171,176,187],"times":[574,822,497,456,726,1138,569,795],"next_num":8,"trial_type":"ticket-choose","trial_index":46,"time_elapsed":374532,"internal_node_id":"0.0-46.0"},{"result":170,"points":2,"place":1,"phase":0,"sequence":27,"prices":[175,180,178,195,179,184,170,174,166,185],"times":[1072,456,490,435,475,452,945],"next_num":7,"trial_type":"ticket-choose","trial_index":47,"time_elapsed":381916,"internal_node_id":"0.0-47.0"},{"result":168,"points":2,"place":1,"phase":0,"sequence":28,"prices":[174,178,168,192,177,181,176,171,163,182],"times":[861,492,928],"next_num":3,"trial_type":"ticket-choose","trial_index":48,"time_elapsed":386438,"internal_node_id":"0.0-48.0"},{"result":168,"points":2,"place":1,"phase":0,"sequence":29,"prices":[181,175,182,168,183,173,153,170,193,179],"times":[468,572,483,965],"next_num":4,"trial_type":"ticket-choose","trial_index":49,"time_elapsed":391218,"internal_node_id":"0.0-49.0"},{"result":166,"points":3,"place":0,"phase":0,"sequence":30,"prices":[166,190,170,173,178,203,172,192,198,174],"times":[884],"next_num":1,"trial_type":"ticket-choose","trial_index":50,"time_elapsed":393812,"internal_node_id":"0.0-50.0"},{"result":170,"points":3,"place":0,"phase":0,"sequence":31,"prices":[170,183,172,175,180,189,174,187,188,179],"times":[962],"next_num":1,"trial_type":"ticket-choose","trial_index":51,"time_elapsed":396469,"internal_node_id":"0.0-51.0"},{"result":169,"points":2,"place":1,"phase":0,"sequence":32,"prices":[175,179,169,193,178,182,177,172,164,183],"times":[467,436,954],"next_num":3,"trial_type":"ticket-choose","trial_index":52,"time_elapsed":400452,"internal_node_id":"0.0-52.0"},{"result":168,"points":2,"place":1,"phase":0,"sequence":33,"prices":[174,178,168,192,177,181,176,171,163,182],"times":[755,585,882],"next_num":3,"trial_type":"ticket-choose","trial_index":53,"time_elapsed":404898,"internal_node_id":"0.0-53.0"},{"result":170,"points":2,"place":1,"phase":0,"sequence":34,"prices":[176,180,170,194,179,183,178,173,165,184],"times":[710,450,1069],"next_num":3,"trial_type":"ticket-choose","trial_index":54,"time_elapsed":409374,"internal_node_id":"0.0-54.0"},{"result":165,"points":3,"place":0,"phase":0,"sequence":35,"prices":[180,165,177,193,186,196,187,169,171,182],"times":[718,783],"next_num":2,"trial_type":"ticket-choose","trial_index":55,"time_elapsed":412842,"internal_node_id":"0.0-55.0"},{"result":168,"points":2,"place":1,"phase":0,"sequence":36,"prices":[174,178,176,192,177,181,168,171,163,182],"times":[538,483,421,500,487,486,748],"next_num":7,"trial_type":"ticket-choose","trial_index":56,"time_elapsed":419479,"internal_node_id":"0.0-56.0"},{"result":164,"points":1,"place":3,"phase":0,"sequence":37,"prices":[175,150,164,155,171,199,158,180,184,196],"times":[539,420,865],"next_num":3,"trial_type":"ticket-choose","trial_index":57,"time_elapsed":423624,"internal_node_id":"0.0-57.0"},{"result":171,"points":1,"place":2,"phase":0,"sequence":38,"prices":[195,177,197,179,171,173,175,156,163,204],"times":[528,1731,473,507,1156],"next_num":5,"trial_type":"ticket-choose","trial_index":58,"time_elapsed":430576,"internal_node_id":"0.0-58.0"},{"result":169,"points":2,"place":1,"phase":0,"sequence":39,"prices":[175,179,177,193,178,182,169,172,164,183],"times":[645,508,522,480,657,567,947],"next_num":7,"trial_type":"ticket-choose","trial_index":59,"time_elapsed":437992,"internal_node_id":"0.0-59.0"},{"result":157,"points":2,"place":1,"phase":0,"sequence":40,"prices":[188,191,179,157,181,164,166,156,175,182],"times":[1419,530,542,1047],"next_num":4,"trial_type":"ticket-choose","trial_index":60,"time_elapsed":443990,"internal_node_id":"0.0-60.0"},{"result":168,"points":2,"place":1,"phase":0,"sequence":41,"prices":[173,178,176,193,177,182,168,172,164,183],"times":[1143,434,492,490,525,509,844],"next_num":7,"trial_type":"ticket-choose","trial_index":61,"time_elapsed":451491,"internal_node_id":"0.0-61.0"},{"result":168,"points":3,"place":0,"phase":0,"sequence":42,"prices":[168,188,171,181,184,196,180,194,195,183],"times":[844],"next_num":1,"trial_type":"ticket-choose","trial_index":62,"time_elapsed":454130,"internal_node_id":"0.0-62.0"},{"result":174,"points":2,"place":1,"phase":0,"sequence":43,"prices":[180,175,173,177,191,190,184,196,174,181],"times":[453,507,454,444,537,694,492,479,1824],"next_num":9,"trial_type":"ticket-choose","trial_index":63,"time_elapsed":463397,"internal_node_id":"0.0-63.0"},{"result":159,"points":3,"place":0,"phase":0,"sequence":44,"prices":[159,178,170,174,176,194,173,182,185,175],"times":[1005],"next_num":1,"trial_type":"ticket-choose","trial_index":64,"time_elapsed":466647,"internal_node_id":"0.0-64.0"},{"result":157,"points":3,"place":0,"phase":0,"sequence":45,"prices":[157,184,163,174,181,190,168,187,189,177],"times":[1107],"next_num":1,"trial_type":"ticket-choose","trial_index":65,"time_elapsed":469466,"internal_node_id":"0.0-65.0"},{"result":165,"points":3,"place":0,"phase":0,"sequence":46,"prices":[165,187,173,177,186,196,176,191,192,181],"times":[997],"next_num":1,"trial_type":"ticket-choose","trial_index":66,"time_elapsed":472160,"internal_node_id":"0.0-66.0"},{"result":169,"points":2,"place":1,"phase":0,"sequence":47,"prices":[174,179,169,194,178,183,177,173,165,184],"times":[686,449,807],"next_num":3,"trial_type":"ticket-choose","trial_index":67,"time_elapsed":476222,"internal_node_id":"0.0-67.0"},{"result":170,"points":2,"place":1,"phase":0,"sequence":48,"prices":[176,180,178,194,179,183,170,173,165,184],"times":[657,492,453,493,789,499,807],"next_num":7,"trial_type":"ticket-choose","trial_index":68,"time_elapsed":483443,"internal_node_id":"0.0-68.0"},{"result":169,"points":2,"place":1,"phase":0,"sequence":49,"prices":[174,179,177,194,178,183,169,173,165,184],"times":[643,566,455,479,516,524,1329],"next_num":7,"trial_type":"ticket-choose","trial_index":69,"time_elapsed":491112,"internal_node_id":"0.0-69.0"},{"responses":[{"value":0,"offby":0,"category":"$140 - $250","category_index":0},{"value":1,"offby":1,"category":"$151 - $160","category_index":1},{"value":6,"offby":2,"category":"$161 - $170","category_index":2},{"value":7,"offby":1,"category":"$171 - $180","category_index":3},{"value":5,"offby":-2,"category":"$181 - $190","category_index":4},{"value":1,"offby":-2,"category":"$191 - $200","category_index":5},{"value":0,"offby":0,"category":"$201 - $210","category_index":6}],"phase":0,"number":1,"trial_type":"bar-choose","trial_index":70,"time_elapsed":553025,"internal_node_id":"0.0-70.0"},{"rt":4672,"url":"\/tickets\/utils\/start2.html","trial_type":"html","trial_index":71,"time_elapsed":558875,"internal_node_id":"0.0-71.0"},{"trial_type":"number-animation","trial_index":72,"time_elapsed":568609,"internal_node_id":"0.0-72.0"},{"phase":1,"sequence":0,"avg":166,"response":175,"trial_type":"training_avg","trial_index":73,"time_elapsed":577900,"internal_node_id":"0.0-73.0"},{"trial_type":"number-animation","trial_index":74,"time_elapsed":586108,"internal_node_id":"0.0-74.0"},{"phase":1,"sequence":1,"avg":198,"response":180,"trial_type":"training_avg","trial_index":75,"time_elapsed":593531,"internal_node_id":"0.0-75.0"},{"trial_type":"number-animation","trial_index":76,"time_elapsed":602217,"internal_node_id":"0.0-76.0"},{"phase":1,"sequence":2,"avg":177,"response":170,"trial_type":"training_avg","trial_index":77,"time_elapsed":608969,"internal_node_id":"0.0-77.0"},{"trial_type":"number-animation","trial_index":78,"time_elapsed":617341,"internal_node_id":"0.0-78.0"},{"phase":1,"sequence":3,"avg":190,"response":179,"trial_type":"training_avg","trial_index":79,"time_elapsed":623553,"internal_node_id":"0.0-79.0"},{"trial_type":"number-animation","trial_index":80,"time_elapsed":631583,"internal_node_id":"0.0-80.0"},{"phase":1,"sequence":4,"avg":201,"response":193,"trial_type":"training_avg","trial_index":81,"time_elapsed":638241,"internal_node_id":"0.0-81.0"},{"responses":[{"value":1,"offby":0,"category":"$30 - $75","category_index":0},{"value":2,"offby":0,"category":"$76 - $120","category_index":1},{"value":3,"offby":-1,"category":"$121 - $165","category_index":2},{"value":4,"offby":-2,"category":"$166 - $210","category_index":3},{"value":6,"offby":0,"category":"$211 - $255","category_index":4},{"value":4,"offby":3,"category":"$256 - $300","category_index":5},{"value":0,"offby":0,"category":"$301 - $345","category_index":6}],"phase":1,"number":0,"trial_type":"bar-choose","trial_index":82,"time_elapsed":681600,"internal_node_id":"0.0-82.0"},{"rt":3440,"url":"\/tickets\/utils\/testing2.html","trial_type":"html","trial_index":83,"time_elapsed":686239,"internal_node_id":"0.0-83.0"},{"phase":1,"order":[48,23,27,40,11,21,2,41,16,1,6,29,0,30,14,46,28,38,49,7,13,18,26,32,17,39,5,22,42,8,36,37,34,45,15,10,20,43,31,47,4,25,33,9,24,19,12,3,44,35],"trial_type":"store_order","trial_index":84,"time_elapsed":687244,"internal_node_id":"0.0-84.0"},{"result":145,"points":2,"place":1,"phase":1,"sequence":0,"prices":[246,145,155,191,176,270,185,136,160,215],"times":[1975,3029],"next_num":2,"trial_type":"ticket-choose","trial_index":85,"time_elapsed":694387,"internal_node_id":"0.0-85.0"},{"result":145,"points":1,"place":3,"phase":1,"sequence":1,"prices":[145,170,160,245,165,190,120,141,100,195],"times":[2170],"next_num":1,"trial_type":"ticket-choose","trial_index":86,"time_elapsed":698341,"internal_node_id":"0.0-86.0"},{"result":120,"points":3,"place":0,"phase":1,"sequence":2,"prices":[120,221,135,185,200,261,181,251,255,196],"times":[908],"next_num":1,"trial_type":"ticket-choose","trial_index":87,"time_elapsed":701099,"internal_node_id":"0.0-87.0"},{"result":176,"points":0,"place":5,"phase":1,"sequence":3,"prices":[176,150,276,171,261,116,130,201,166,231],"times":[1504],"next_num":1,"trial_type":"ticket-choose","trial_index":88,"time_elapsed":704592,"internal_node_id":"0.0-88.0"},{"result":156,"points":1,"place":3,"phase":1,"sequence":4,"prices":[156,181,130,255,175,200,170,150,111,205],"times":[1132],"next_num":1,"trial_type":"ticket-choose","trial_index":89,"time_elapsed":707481,"internal_node_id":"0.0-89.0"},{"result":150,"points":1,"place":3,"phase":1,"sequence":5,"prices":[150,170,160,241,166,186,120,136,96,191],"times":[1061],"next_num":1,"trial_type":"ticket-choose","trial_index":90,"time_elapsed":710333,"internal_node_id":"0.0-90.0"},{"result":151,"points":1,"place":3,"phase":1,"sequence":6,"prices":[151,176,126,251,170,196,165,145,105,201],"times":[936],"next_num":1,"trial_type":"ticket-choose","trial_index":91,"time_elapsed":713011,"internal_node_id":"0.0-91.0"},{"result":106,"points":3,"place":0,"phase":1,"sequence":7,"prices":[180,106,166,245,211,261,215,125,135,190],"times":[541,1111],"next_num":2,"trial_type":"ticket-choose","trial_index":92,"time_elapsed":716667,"internal_node_id":"0.0-92.0"},{"result":121,"points":2,"place":1,"phase":1,"sequence":8,"prices":[150,171,121,241,165,185,160,136,95,191],"times":[1137,475,880],"next_num":3,"trial_type":"ticket-choose","trial_index":93,"time_elapsed":721293,"internal_node_id":"0.0-93.0"},{"result":125,"points":2,"place":1,"phase":1,"sequence":9,"prices":[156,175,125,245,170,190,165,140,101,196],"times":[845,525,898],"next_num":3,"trial_type":"ticket-choose","trial_index":94,"time_elapsed":725752,"internal_node_id":"0.0-94.0"},{"result":126,"points":2,"place":1,"phase":1,"sequence":10,"prices":[150,175,166,251,170,196,126,145,105,201],"times":[1076,477,485,561,773,507,922],"next_num":7,"trial_type":"ticket-choose","trial_index":95,"time_elapsed":733520,"internal_node_id":"0.0-95.0"},{"result":111,"points":3,"place":0,"phase":1,"sequence":11,"prices":[111,231,131,146,171,295,141,241,271,150],"times":[809],"next_num":1,"trial_type":"ticket-choose","trial_index":96,"time_elapsed":736082,"internal_node_id":"0.0-96.0"},{"result":126,"points":2,"place":1,"phase":1,"sequence":12,"prices":[156,175,126,246,170,190,165,140,100,196],"times":[573,470,1031],"next_num":3,"trial_type":"ticket-choose","trial_index":97,"time_elapsed":740307,"internal_node_id":"0.0-97.0"},{"result":81,"points":3,"place":0,"phase":1,"sequence":13,"prices":[81,205,130,151,191,261,145,210,250,165],"times":[856],"next_num":1,"trial_type":"ticket-choose","trial_index":98,"time_elapsed":742838,"internal_node_id":"0.0-98.0"},{"result":130,"points":2,"place":1,"phase":1,"sequence":14,"prices":[155,181,170,255,176,200,130,150,110,205],"times":[658,500,447,498,485,517,820],"next_num":7,"trial_type":"ticket-choose","trial_index":99,"time_elapsed":749847,"internal_node_id":"0.0-99.0"},{"result":111,"points":3,"place":0,"phase":1,"sequence":15,"prices":[175,211,266,286,111,216,220,245,230,165],"times":[666,645,428,422,1102],"next_num":5,"trial_type":"ticket-choose","trial_index":100,"time_elapsed":755774,"internal_node_id":"0.0-100.0"},{"result":75,"points":3,"place":0,"phase":1,"sequence":16,"prices":[75,171,131,151,161,250,145,190,206,156],"times":[1171],"next_num":1,"trial_type":"ticket-choose","trial_index":101,"time_elapsed":758680,"internal_node_id":"0.0-101.0"},{"result":130,"points":3,"place":0,"phase":1,"sequence":17,"prices":[185,175,276,221,130,141,171,216,235,165],"times":[542,469,490,550,1308],"next_num":5,"trial_type":"ticket-choose","trial_index":102,"time_elapsed":764589,"internal_node_id":"0.0-102.0"},{"result":130,"points":2,"place":1,"phase":1,"sequence":18,"prices":[155,225,245,130,176,106,180,211,165,200],"times":[599,451,396,1034],"next_num":4,"trial_type":"ticket-choose","trial_index":103,"time_elapsed":769500,"internal_node_id":"0.0-103.0"},{"result":126,"points":2,"place":1,"phase":1,"sequence":19,"prices":[151,175,166,251,170,195,126,146,105,201],"times":[587,429,403,441,461,491,987],"next_num":7,"trial_type":"ticket-choose","trial_index":104,"time_elapsed":776250,"internal_node_id":"0.0-104.0"},{"result":131,"points":2,"place":1,"phase":1,"sequence":20,"prices":[160,180,170,251,176,195,131,146,105,200],"times":[464,453,445,592,503,727,781],"next_num":7,"trial_type":"ticket-choose","trial_index":105,"time_elapsed":783236,"internal_node_id":"0.0-105.0"},{"result":160,"points":1,"place":4,"phase":1,"sequence":21,"prices":[146,171,120,245,165,191,160,140,100,196],"times":[1645,459,464,466,2059,599,1249],"next_num":7,"trial_type":"ticket-choose","trial_index":106,"time_elapsed":793242,"internal_node_id":"0.0-106.0"},{"result":105,"points":3,"place":0,"phase":1,"sequence":22,"prices":[105,216,146,165,210,260,161,235,241,185],"times":[1141],"next_num":1,"trial_type":"ticket-choose","trial_index":107,"time_elapsed":796108,"internal_node_id":"0.0-107.0"},{"result":135,"points":3,"place":0,"phase":1,"sequence":23,"prices":[135,180,141,151,175,220,145,196,211,155],"times":[2395],"next_num":1,"trial_type":"ticket-choose","trial_index":108,"time_elapsed":800242,"internal_node_id":"0.0-108.0"},{"result":120,"points":2,"place":1,"phase":1,"sequence":24,"prices":[150,171,120,241,165,185,160,135,96,190],"times":[663,465,800],"next_num":3,"trial_type":"ticket-choose","trial_index":109,"time_elapsed":804358,"internal_node_id":"0.0-109.0"},{"result":136,"points":1,"place":2,"phase":1,"sequence":25,"prices":[255,166,266,175,136,145,155,61,96,301],"times":[498,650,476,592,881],"next_num":5,"trial_type":"ticket-choose","trial_index":110,"time_elapsed":809976,"internal_node_id":"0.0-110.0"},{"result":126,"points":2,"place":1,"phase":1,"sequence":26,"prices":[156,176,165,246,171,190,126,141,101,196],"times":[590,439,458,551,552,509,875],"next_num":7,"trial_type":"ticket-choose","trial_index":111,"time_elapsed":817117,"internal_node_id":"0.0-111.0"},{"result":120,"points":2,"place":1,"phase":1,"sequence":27,"prices":[145,171,161,245,165,191,120,140,100,196],"times":[539,428,470,534,760,536,1059],"next_num":7,"trial_type":"ticket-choose","trial_index":112,"time_elapsed":824600,"internal_node_id":"0.0-112.0"},{"result":81,"points":3,"place":0,"phase":1,"sequence":28,"prices":[155,245,155,81,180,130,156,306,166,115],"times":[968,447,1066,914],"next_num":4,"trial_type":"ticket-choose","trial_index":113,"time_elapsed":830326,"internal_node_id":"0.0-113.0"},{"result":131,"points":2,"place":1,"phase":1,"sequence":29,"prices":[161,180,131,251,175,196,171,146,105,201],"times":[706,431,827],"next_num":3,"trial_type":"ticket-choose","trial_index":114,"time_elapsed":834421,"internal_node_id":"0.0-114.0"},{"result":125,"points":1,"place":2,"phase":1,"sequence":30,"prices":[226,205,125,120,115,135,180,145,150,220],"times":[444,400,1049],"next_num":3,"trial_type":"ticket-choose","trial_index":115,"time_elapsed":838530,"internal_node_id":"0.0-115.0"},{"result":120,"points":2,"place":1,"phase":1,"sequence":31,"prices":[186,156,191,120,195,145,45,130,246,176],"times":[442,654,456,1424],"next_num":4,"trial_type":"ticket-choose","trial_index":116,"time_elapsed":843873,"internal_node_id":"0.0-116.0"},{"result":106,"points":2,"place":1,"phase":1,"sequence":32,"prices":[185,180,235,210,106,266,76,115,250,205],"times":[449,408,503,468,982],"next_num":5,"trial_type":"ticket-choose","trial_index":117,"time_elapsed":849218,"internal_node_id":"0.0-117.0"},{"result":141,"points":1,"place":3,"phase":1,"sequence":33,"prices":[176,150,141,91,290,201,106,266,206,126],"times":[700,1407,1085],"next_num":3,"trial_type":"ticket-choose","trial_index":118,"time_elapsed":854638,"internal_node_id":"0.0-118.0"},{"result":131,"points":2,"place":1,"phase":1,"sequence":34,"prices":[156,181,171,256,175,200,131,150,110,206],"times":[543,483,444,451,472,480,902],"next_num":7,"trial_type":"ticket-choose","trial_index":119,"time_elapsed":861474,"internal_node_id":"0.0-119.0"},{"result":131,"points":2,"place":1,"phase":1,"sequence":35,"prices":[156,181,131,256,176,200,171,151,111,206],"times":[1010,442,942],"next_num":3,"trial_type":"ticket-choose","trial_index":120,"time_elapsed":865958,"internal_node_id":"0.0-120.0"},{"result":121,"points":2,"place":1,"phase":1,"sequence":36,"prices":[150,170,160,240,166,185,121,136,95,191],"times":[464,427,443,456,493,448,870],"next_num":7,"trial_type":"ticket-choose","trial_index":121,"time_elapsed":872582,"internal_node_id":"0.0-121.0"},{"result":65,"points":2,"place":1,"phase":1,"sequence":37,"prices":[220,236,176,65,185,101,110,61,156,191],"times":[455,403,447,900],"next_num":4,"trial_type":"ticket-choose","trial_index":122,"time_elapsed":877528,"internal_node_id":"0.0-122.0"},{"result":66,"points":3,"place":0,"phase":1,"sequence":38,"prices":[66,201,96,150,185,230,121,216,225,165],"times":[820],"next_num":1,"trial_type":"ticket-choose","trial_index":123,"time_elapsed":880152,"internal_node_id":"0.0-123.0"},{"result":150,"points":2,"place":1,"phase":1,"sequence":39,"prices":[181,156,145,165,236,231,201,260,150,185],"times":[509,457,498,461,445,444,436,460,1219],"next_num":9,"trial_type":"ticket-choose","trial_index":124,"time_elapsed":888560,"internal_node_id":"0.0-124.0"},{"result":125,"points":2,"place":1,"phase":1,"sequence":40,"prices":[155,175,166,245,171,190,125,140,101,196],"times":[528,428,486,433,534,491,764],"next_num":7,"trial_type":"ticket-choose","trial_index":125,"time_elapsed":895270,"internal_node_id":"0.0-125.0"},{"result":95,"points":3,"place":0,"phase":1,"sequence":41,"prices":[95,205,106,151,186,271,145,210,215,181],"times":[880],"next_num":1,"trial_type":"ticket-choose","trial_index":126,"time_elapsed":897981,"internal_node_id":"0.0-126.0"},{"result":130,"points":3,"place":0,"phase":1,"sequence":42,"prices":[130,195,141,155,181,226,150,216,221,175],"times":[1124],"next_num":1,"trial_type":"ticket-choose","trial_index":127,"time_elapsed":900800,"internal_node_id":"0.0-127.0"},{"result":130,"points":2,"place":1,"phase":1,"sequence":43,"prices":[160,180,130,251,176,195,170,146,105,200],"times":[630,422,778],"next_num":3,"trial_type":"ticket-choose","trial_index":128,"time_elapsed":904870,"internal_node_id":"0.0-128.0"},{"result":86,"points":3,"place":0,"phase":1,"sequence":44,"prices":[86,180,130,151,170,271,145,191,220,160],"times":[855],"next_num":1,"trial_type":"ticket-choose","trial_index":129,"time_elapsed":907416,"internal_node_id":"0.0-129.0"},{"result":141,"points":1,"place":2,"phase":1,"sequence":45,"prices":[146,170,121,245,166,190,161,141,100,195],"times":[490,435,442,450,495,506,594,976],"next_num":8,"trial_type":"ticket-choose","trial_index":130,"time_elapsed":915072,"internal_node_id":"0.0-130.0"},{"result":131,"points":2,"place":1,"phase":1,"sequence":46,"prices":[161,180,171,250,176,195,131,146,105,201],"times":[501,466,490,478,473,476,665],"next_num":7,"trial_type":"ticket-choose","trial_index":131,"time_elapsed":921681,"internal_node_id":"0.0-131.0"},{"result":126,"points":2,"place":1,"phase":1,"sequence":47,"prices":[150,176,126,251,171,195,165,145,105,200],"times":[662,482,874],"next_num":3,"trial_type":"ticket-choose","trial_index":132,"time_elapsed":926042,"internal_node_id":"0.0-132.0"},{"result":30,"points":3,"place":0,"phase":1,"sequence":48,"prices":[155,30,101,55,136,276,70,181,200,261],"times":[637,1037],"next_num":2,"trial_type":"ticket-choose","trial_index":133,"time_elapsed":929674,"internal_node_id":"0.0-133.0"},{"result":51,"points":3,"place":0,"phase":1,"sequence":49,"prices":[221,175,51,196,146,130,166,80,126,156],"times":[530,478,908],"next_num":3,"trial_type":"ticket-choose","trial_index":134,"time_elapsed":934002,"internal_node_id":"0.0-134.0"},{"responses":[{"value":1,"offby":0,"category":"$30 - $75","category_index":0},{"value":2,"offby":0,"category":"$76 - $120","category_index":1},{"value":4,"offby":0,"category":"$121 - $165","category_index":2},{"value":7,"offby":1,"category":"$166 - $210","category_index":3},{"value":4,"offby":-2,"category":"$211 - $255","category_index":4},{"value":2,"offby":1,"category":"$256 - $300","category_index":5},{"value":0,"offby":0,"category":"$301 - $345","category_index":6}],"phase":1,"number":1,"trial_type":"bar-choose","trial_index":135,"time_elapsed":975984,"internal_node_id":"0.0-135.0"},{"special_comment":"Don'treally know. I guess the second one had a much broader range of prices than the first one. I thought that would make it harder to find the best price, but based on the score I don't know if that was the case.","trial_type":"special_sequence","trial_index":136,"time_elapsed":1034488,"internal_node_id":"0.0-136.0"},{"during":"Nothing","bonus":292,"trial_type":"final","trial_index":137,"time_elapsed":1049255,"internal_node_id":"0.0-137.0"}],"bonus":292}