{"start_time":"2017-02-27 11:29:39","end_time":"2017-02-27 11:55:01","points_phase0":106,"points_phase1":71,"phase_order":1,"age":24,"gender":"m","tries":1,"during":"Nothing","worker_id":"A3IF13XHP5UPO2","assignment_id":"3RJSC4XJ11NS3PW9Z6J3FKCJYQ6500","data":[{"rt":7526,"url":"\/tickets\/utils\/consent.html","trial_type":"html","trial_index":0,"time_elapsed":8514,"internal_node_id":"0.0-0.0"},{"age":24,"gender":"m","trial_type":"age","trial_index":1,"time_elapsed":18346,"internal_node_id":"0.0-1.0"},{"worker_id":"A3IF13XHP5UPO2","trial_type":"workerid","trial_index":2,"time_elapsed":40340,"internal_node_id":"0.0-2.0"},{"tries":1,"trial_type":"instructions_check","trial_index":3,"time_elapsed":106575,"internal_node_id":"0.0-3.0"},{"rt":23878,"url":"\/tickets\/utils\/start.html","trial_type":"html","trial_index":4,"time_elapsed":132498,"internal_node_id":"0.0-4.0"},{"trial_type":"number-animation","trial_index":5,"time_elapsed":153970,"internal_node_id":"0.0-5.0"},{"phase":0,"sequence":0,"avg":166,"response":135,"trial_type":"training_avg","trial_index":6,"time_elapsed":192171,"internal_node_id":"0.0-6.0"},{"trial_type":"number-animation","trial_index":7,"time_elapsed":259311,"internal_node_id":"0.0-7.0"},{"phase":0,"sequence":1,"avg":198,"response":185,"trial_type":"training_avg","trial_index":8,"time_elapsed":298236,"internal_node_id":"0.0-8.0"},{"trial_type":"number-animation","trial_index":9,"time_elapsed":311812,"internal_node_id":"0.0-9.0"},{"phase":0,"sequence":2,"avg":177,"response":165,"trial_type":"training_avg","trial_index":10,"time_elapsed":322291,"internal_node_id":"0.0-10.0"},{"trial_type":"number-animation","trial_index":11,"time_elapsed":333194,"internal_node_id":"0.0-11.0"},{"phase":0,"sequence":3,"avg":190,"response":185,"trial_type":"training_avg","trial_index":12,"time_elapsed":343139,"internal_node_id":"0.0-12.0"},{"trial_type":"number-animation","trial_index":13,"time_elapsed":351539,"internal_node_id":"0.0-13.0"},{"phase":0,"sequence":4,"avg":201,"response":185,"trial_type":"training_avg","trial_index":14,"time_elapsed":363674,"internal_node_id":"0.0-14.0"},{"responses":[{"value":0,"offby":-1,"category":"$30 - $75","category_index":0},{"value":2,"offby":0,"category":"$76 - $120","category_index":1},{"value":5,"offby":1,"category":"$121 - $165","category_index":2},{"value":8,"offby":2,"category":"$166 - $210","category_index":3},{"value":5,"offby":-1,"category":"$211 - $255","category_index":4},{"value":0,"offby":-1,"category":"$256 - $300","category_index":5},{"value":0,"offby":0,"category":"$301 - $345","category_index":6}],"phase":0,"number":0,"trial_type":"bar-choose","trial_index":15,"time_elapsed":504911,"internal_node_id":"0.0-15.0"},{"rt":26543,"url":"\/tickets\/\/utils\/testing.html","trial_type":"html","trial_index":16,"time_elapsed":533227,"internal_node_id":"0.0-16.0"},{"phase":0,"order":[30,31,49,48,0,47,17,42,23,2,41,38,5,13,8,32,43,27,37,15,46,6,22,1,26,28,9,21,14,11,40,45,33,35,25,4,39,24,18,16,44,19,7,3,34,10,36,20,29,12],"trial_type":"store_order","trial_index":17,"time_elapsed":534230,"internal_node_id":"0.0-17.0"},{"result":165,"points":2,"place":1,"phase":0,"sequence":-1,"prices":[184,180,224,165,181,199,185,193,218,126],"times":[4552,1439,721,1542],"next_num":4,"trial_type":"ticket-choose","trial_index":18,"time_elapsed":546616,"internal_node_id":"0.0-18.0"},{"rt":5633,"url":"\/tickets\/utils\/testing_after.html","trial_type":"html","trial_index":19,"time_elapsed":554018,"internal_node_id":"0.0-19.0"},{"result":156,"points":1,"place":4,"phase":0,"sequence":0,"prices":[186,156,191,120,195,145,45,130,246,176],"times":[3021,1025],"next_num":2,"trial_type":"ticket-choose","trial_index":20,"time_elapsed":560986,"internal_node_id":"0.0-20.0"},{"result":145,"points":1,"place":3,"phase":0,"sequence":1,"prices":[145,171,161,245,165,191,120,140,100,196],"times":[1671],"next_num":1,"trial_type":"ticket-choose","trial_index":21,"time_elapsed":565321,"internal_node_id":"0.0-21.0"},{"result":126,"points":2,"place":1,"phase":0,"sequence":2,"prices":[156,175,126,246,170,190,165,140,100,196],"times":[2041,527,1159],"next_num":3,"trial_type":"ticket-choose","trial_index":22,"time_elapsed":571870,"internal_node_id":"0.0-22.0"},{"result":130,"points":3,"place":0,"phase":0,"sequence":3,"prices":[130,195,141,155,181,226,150,216,221,175],"times":[1291],"next_num":1,"trial_type":"ticket-choose","trial_index":23,"time_elapsed":576224,"internal_node_id":"0.0-23.0"},{"result":120,"points":2,"place":1,"phase":0,"sequence":4,"prices":[146,171,120,245,165,191,160,140,100,196],"times":[1525,501,832],"next_num":3,"trial_type":"ticket-choose","trial_index":24,"time_elapsed":581614,"internal_node_id":"0.0-24.0"},{"result":106,"points":3,"place":0,"phase":0,"sequence":5,"prices":[180,106,166,245,211,261,215,125,135,190],"times":[1369,943],"next_num":2,"trial_type":"ticket-choose","trial_index":25,"time_elapsed":587048,"internal_node_id":"0.0-25.0"},{"result":130,"points":2,"place":1,"phase":0,"sequence":6,"prices":[156,181,130,255,175,200,170,150,111,205],"times":[1191,597,1324],"next_num":3,"trial_type":"ticket-choose","trial_index":26,"time_elapsed":592646,"internal_node_id":"0.0-26.0"},{"result":106,"points":2,"place":1,"phase":0,"sequence":7,"prices":[185,180,235,210,106,266,76,115,250,205],"times":[1012,541,725,683,932],"next_num":5,"trial_type":"ticket-choose","trial_index":27,"time_elapsed":599487,"internal_node_id":"0.0-27.0"},{"result":106,"points":3,"place":0,"phase":0,"sequence":8,"prices":[155,225,245,130,176,106,180,211,165,200],"times":[1362,516,503,661,589,1557],"next_num":6,"trial_type":"ticket-choose","trial_index":28,"time_elapsed":607815,"internal_node_id":"0.0-28.0"},{"result":51,"points":3,"place":0,"phase":0,"sequence":9,"prices":[221,175,51,196,146,130,166,80,126,156],"times":[966,533,1022],"next_num":3,"trial_type":"ticket-choose","trial_index":29,"time_elapsed":612847,"internal_node_id":"0.0-29.0"},{"result":81,"points":3,"place":0,"phase":0,"sequence":10,"prices":[81,205,130,151,191,261,145,210,250,165],"times":[1788],"next_num":1,"trial_type":"ticket-choose","trial_index":30,"time_elapsed":616744,"internal_node_id":"0.0-30.0"},{"result":75,"points":3,"place":0,"phase":0,"sequence":11,"prices":[75,171,131,151,161,250,145,190,206,156],"times":[1201],"next_num":1,"trial_type":"ticket-choose","trial_index":31,"time_elapsed":620472,"internal_node_id":"0.0-31.0"},{"result":105,"points":3,"place":0,"phase":0,"sequence":12,"prices":[150,176,126,251,171,195,165,145,105,200],"times":[1396,595,624,840,610,655,829,893,927],"next_num":9,"trial_type":"ticket-choose","trial_index":32,"time_elapsed":631744,"internal_node_id":"0.0-32.0"},{"result":145,"points":3,"place":0,"phase":0,"sequence":13,"prices":[181,156,145,165,236,231,201,260,150,185],"times":[1565,545,1068],"next_num":3,"trial_type":"ticket-choose","trial_index":33,"time_elapsed":637312,"internal_node_id":"0.0-33.0"},{"result":121,"points":2,"place":1,"phase":0,"sequence":14,"prices":[150,171,121,241,165,185,160,136,95,191],"times":[999,572,941],"next_num":3,"trial_type":"ticket-choose","trial_index":34,"time_elapsed":642206,"internal_node_id":"0.0-34.0"},{"result":120,"points":2,"place":1,"phase":0,"sequence":15,"prices":[145,170,160,245,165,190,120,141,100,195],"times":[834,540,948,565,846,692,945],"next_num":7,"trial_type":"ticket-choose","trial_index":35,"time_elapsed":650745,"internal_node_id":"0.0-35.0"},{"result":130,"points":2,"place":1,"phase":0,"sequence":16,"prices":[155,181,170,255,176,200,130,150,110,205],"times":[936,606,574,637,669,732,989],"next_num":7,"trial_type":"ticket-choose","trial_index":36,"time_elapsed":659037,"internal_node_id":"0.0-36.0"},{"result":131,"points":2,"place":1,"phase":0,"sequence":17,"prices":[156,181,131,256,176,200,171,151,111,206],"times":[1084,669,1141],"next_num":3,"trial_type":"ticket-choose","trial_index":37,"time_elapsed":664214,"internal_node_id":"0.0-37.0"},{"result":91,"points":3,"place":0,"phase":0,"sequence":18,"prices":[176,150,141,91,290,201,106,266,206,126],"times":[895,518,405,1027],"next_num":4,"trial_type":"ticket-choose","trial_index":38,"time_elapsed":669614,"internal_node_id":"0.0-38.0"},{"result":126,"points":2,"place":1,"phase":0,"sequence":19,"prices":[150,175,166,251,170,196,126,145,105,201],"times":[803,454,556,614,730,607,1019],"next_num":7,"trial_type":"ticket-choose","trial_index":39,"time_elapsed":677478,"internal_node_id":"0.0-39.0"},{"result":125,"points":1,"place":2,"phase":0,"sequence":20,"prices":[226,205,125,120,115,135,180,145,150,220],"times":[976,670,1056],"next_num":3,"trial_type":"ticket-choose","trial_index":40,"time_elapsed":682453,"internal_node_id":"0.0-40.0"},{"result":81,"points":3,"place":0,"phase":0,"sequence":21,"prices":[155,245,155,81,180,130,156,306,166,115],"times":[534,388,740,876],"next_num":4,"trial_type":"ticket-choose","trial_index":41,"time_elapsed":687526,"internal_node_id":"0.0-41.0"},{"result":95,"points":3,"place":0,"phase":0,"sequence":22,"prices":[95,205,106,151,186,271,145,210,215,181],"times":[887],"next_num":1,"trial_type":"ticket-choose","trial_index":42,"time_elapsed":690278,"internal_node_id":"0.0-42.0"},{"result":126,"points":2,"place":1,"phase":0,"sequence":23,"prices":[156,176,165,246,171,190,126,141,101,196],"times":[697,458,497,525,501,605,1036],"next_num":7,"trial_type":"ticket-choose","trial_index":43,"time_elapsed":697637,"internal_node_id":"0.0-43.0"},{"result":130,"points":2,"place":1,"phase":0,"sequence":24,"prices":[160,180,130,251,176,195,170,146,105,200],"times":[769,332,941],"next_num":3,"trial_type":"ticket-choose","trial_index":44,"time_elapsed":701974,"internal_node_id":"0.0-44.0"},{"result":125,"points":2,"place":1,"phase":0,"sequence":25,"prices":[155,175,166,245,171,190,125,140,101,196],"times":[1009,452,536,516,1037,518,966],"next_num":7,"trial_type":"ticket-choose","trial_index":45,"time_elapsed":709974,"internal_node_id":"0.0-45.0"},{"result":131,"points":2,"place":1,"phase":0,"sequence":26,"prices":[156,181,171,256,175,200,131,150,110,206],"times":[858,555,734,764,646,699,843],"next_num":7,"trial_type":"ticket-choose","trial_index":46,"time_elapsed":718190,"internal_node_id":"0.0-46.0"},{"result":131,"points":2,"place":1,"phase":0,"sequence":27,"prices":[160,180,170,251,176,195,131,146,105,200],"times":[1328,900,570,572,590,723,1149],"next_num":7,"trial_type":"ticket-choose","trial_index":47,"time_elapsed":727206,"internal_node_id":"0.0-47.0"},{"result":131,"points":2,"place":1,"phase":0,"sequence":28,"prices":[161,180,131,251,175,196,171,146,105,201],"times":[1237,350,1157],"next_num":3,"trial_type":"ticket-choose","trial_index":48,"time_elapsed":732109,"internal_node_id":"0.0-48.0"},{"result":161,"points":1,"place":3,"phase":0,"sequence":29,"prices":[161,180,171,250,176,195,131,146,105,201],"times":[1713],"next_num":1,"trial_type":"ticket-choose","trial_index":49,"time_elapsed":735590,"internal_node_id":"0.0-49.0"},{"result":126,"points":2,"place":1,"phase":0,"sequence":30,"prices":[151,175,166,251,170,195,126,146,105,201],"times":[1018,348,358,659,669,676,1036],"next_num":7,"trial_type":"ticket-choose","trial_index":50,"time_elapsed":743365,"internal_node_id":"0.0-50.0"},{"result":231,"points":0,"place":7,"phase":0,"sequence":31,"prices":[176,150,276,171,261,116,130,201,166,231],"times":[1201,1604,542,435,569,993,901,861,797,1717],"next_num":10,"trial_type":"ticket-choose","trial_index":51,"time_elapsed":757382,"internal_node_id":"0.0-51.0"},{"result":120,"points":2,"place":1,"phase":0,"sequence":32,"prices":[150,170,160,241,166,186,120,136,96,191],"times":[1029,548,1278,800,778,668,885],"next_num":7,"trial_type":"ticket-choose","trial_index":52,"time_elapsed":766455,"internal_node_id":"0.0-52.0"},{"result":136,"points":3,"place":0,"phase":0,"sequence":33,"prices":[246,145,155,191,176,270,185,136,160,215],"times":[855,500,572,626,601,566,708,1070],"next_num":8,"trial_type":"ticket-choose","trial_index":53,"time_elapsed":776048,"internal_node_id":"0.0-53.0"},{"result":121,"points":1,"place":2,"phase":0,"sequence":34,"prices":[66,201,96,150,185,230,121,216,225,165],"times":[996,1485,604,511,545,614,1708],"next_num":7,"trial_type":"ticket-choose","trial_index":54,"time_elapsed":785983,"internal_node_id":"0.0-54.0"},{"result":126,"points":2,"place":1,"phase":0,"sequence":35,"prices":[151,176,126,251,170,196,165,145,105,201],"times":[1040,733,804],"next_num":3,"trial_type":"ticket-choose","trial_index":55,"time_elapsed":790822,"internal_node_id":"0.0-55.0"},{"result":160,"points":1,"place":4,"phase":0,"sequence":36,"prices":[150,170,160,240,166,185,121,136,95,191],"times":[1061,533,1196],"next_num":3,"trial_type":"ticket-choose","trial_index":56,"time_elapsed":795752,"internal_node_id":"0.0-56.0"},{"result":105,"points":3,"place":0,"phase":0,"sequence":37,"prices":[105,216,146,165,210,260,161,235,241,185],"times":[922],"next_num":1,"trial_type":"ticket-choose","trial_index":57,"time_elapsed":798493,"internal_node_id":"0.0-57.0"},{"result":120,"points":3,"place":0,"phase":0,"sequence":38,"prices":[120,221,135,185,200,261,181,251,255,196],"times":[975],"next_num":1,"trial_type":"ticket-choose","trial_index":58,"time_elapsed":801239,"internal_node_id":"0.0-58.0"},{"result":125,"points":2,"place":1,"phase":0,"sequence":39,"prices":[156,175,125,245,170,190,165,140,101,196],"times":[1147,589,801],"next_num":3,"trial_type":"ticket-choose","trial_index":59,"time_elapsed":806037,"internal_node_id":"0.0-59.0"},{"result":30,"points":3,"place":0,"phase":0,"sequence":40,"prices":[155,30,101,55,136,276,70,181,200,261],"times":[1069,756],"next_num":2,"trial_type":"ticket-choose","trial_index":60,"time_elapsed":809895,"internal_node_id":"0.0-60.0"},{"result":166,"points":0,"place":5,"phase":0,"sequence":41,"prices":[255,166,266,175,136,145,155,61,96,301],"times":[659,1141],"next_num":2,"trial_type":"ticket-choose","trial_index":61,"time_elapsed":813653,"internal_node_id":"0.0-61.0"},{"result":135,"points":3,"place":0,"phase":0,"sequence":42,"prices":[135,180,141,151,175,220,145,196,211,155],"times":[987],"next_num":1,"trial_type":"ticket-choose","trial_index":62,"time_elapsed":816501,"internal_node_id":"0.0-62.0"},{"result":65,"points":2,"place":1,"phase":0,"sequence":43,"prices":[220,236,176,65,185,101,110,61,156,191],"times":[1059,581,623,772],"next_num":4,"trial_type":"ticket-choose","trial_index":63,"time_elapsed":822070,"internal_node_id":"0.0-63.0"},{"result":130,"points":3,"place":0,"phase":0,"sequence":44,"prices":[185,175,276,221,130,141,171,216,235,165],"times":[649,619,589,797,877],"next_num":5,"trial_type":"ticket-choose","trial_index":64,"time_elapsed":828166,"internal_node_id":"0.0-64.0"},{"result":120,"points":2,"place":1,"phase":0,"sequence":45,"prices":[150,171,120,241,165,185,160,135,96,190],"times":[896,517,879],"next_num":3,"trial_type":"ticket-choose","trial_index":65,"time_elapsed":832581,"internal_node_id":"0.0-65.0"},{"result":121,"points":2,"place":1,"phase":0,"sequence":46,"prices":[146,170,121,245,166,190,161,141,100,195],"times":[505,558,901],"next_num":3,"trial_type":"ticket-choose","trial_index":66,"time_elapsed":836660,"internal_node_id":"0.0-66.0"},{"result":160,"points":1,"place":4,"phase":0,"sequence":47,"prices":[86,180,130,151,170,271,145,191,220,160],"times":[686,724,551,765,612,605,814,859,927,757],"next_num":10,"trial_type":"ticket-choose","trial_index":67,"time_elapsed":847709,"internal_node_id":"0.0-67.0"},{"result":150,"points":1,"place":4,"phase":0,"sequence":48,"prices":[111,231,131,146,171,295,141,241,271,150],"times":[1094,522,1235,600,813,605,572,636,684,1053],"next_num":10,"trial_type":"ticket-choose","trial_index":68,"time_elapsed":859213,"internal_node_id":"0.0-68.0"},{"result":111,"points":3,"place":0,"phase":0,"sequence":49,"prices":[175,211,266,286,111,216,220,245,230,165],"times":[1270,532,557,620,829],"next_num":5,"trial_type":"ticket-choose","trial_index":69,"time_elapsed":865636,"internal_node_id":"0.0-69.0"},{"responses":[{"value":1,"offby":0,"category":"$30 - $75","category_index":0},{"value":3,"offby":1,"category":"$76 - $120","category_index":1},{"value":5,"offby":1,"category":"$121 - $165","category_index":2},{"value":9,"offby":3,"category":"$166 - $210","category_index":3},{"value":2,"offby":-4,"category":"$211 - $255","category_index":4},{"value":0,"offby":-1,"category":"$256 - $300","category_index":5},{"value":0,"offby":0,"category":"$301 - $345","category_index":6}],"phase":0,"number":1,"trial_type":"bar-choose","trial_index":70,"time_elapsed":923738,"internal_node_id":"0.0-70.0"},{"rt":97754,"url":"\/tickets\/utils\/start2.html","trial_type":"html","trial_index":71,"time_elapsed":1023231,"internal_node_id":"0.0-71.0"},{"trial_type":"number-animation","trial_index":72,"time_elapsed":1036487,"internal_node_id":"0.0-72.0"},{"phase":1,"sequence":0,"avg":180,"response":175,"trial_type":"training_avg","trial_index":73,"time_elapsed":1048212,"internal_node_id":"0.0-73.0"},{"trial_type":"number-animation","trial_index":74,"time_elapsed":1056613,"internal_node_id":"0.0-74.0"},{"phase":1,"sequence":1,"avg":178,"response":179,"trial_type":"training_avg","trial_index":75,"time_elapsed":1064102,"internal_node_id":"0.0-75.0"},{"trial_type":"number-animation","trial_index":76,"time_elapsed":1072277,"internal_node_id":"0.0-76.0"},{"phase":1,"sequence":2,"avg":176,"response":175,"trial_type":"training_avg","trial_index":77,"time_elapsed":1076627,"internal_node_id":"0.0-77.0"},{"trial_type":"number-animation","trial_index":78,"time_elapsed":1083268,"internal_node_id":"0.0-78.0"},{"phase":1,"sequence":3,"avg":178,"response":175,"trial_type":"training_avg","trial_index":79,"time_elapsed":1088111,"internal_node_id":"0.0-79.0"},{"trial_type":"number-animation","trial_index":80,"time_elapsed":1095397,"internal_node_id":"0.0-80.0"},{"phase":1,"sequence":4,"avg":179,"response":178,"trial_type":"training_avg","trial_index":81,"time_elapsed":1100348,"internal_node_id":"0.0-81.0"},{"responses":[{"value":0,"offby":0,"category":"$140 - $250","category_index":0},{"value":2,"offby":2,"category":"$151 - $160","category_index":1},{"value":5,"offby":1,"category":"$161 - $170","category_index":2},{"value":9,"offby":3,"category":"$171 - $180","category_index":3},{"value":4,"offby":-3,"category":"$181 - $190","category_index":4},{"value":0,"offby":-3,"category":"$191 - $200","category_index":5},{"value":0,"offby":0,"category":"$201 - $210","category_index":6}],"phase":1,"number":0,"trial_type":"bar-choose","trial_index":82,"time_elapsed":1172545,"internal_node_id":"0.0-82.0"},{"rt":4578,"url":"\/tickets\/utils\/testing2.html","trial_type":"html","trial_index":83,"time_elapsed":1179236,"internal_node_id":"0.0-83.0"},{"phase":1,"order":[37,22,0,33,18,41,11,34,49,35,30,28,3,47,16,23,14,10,45,6,36,42,25,5,9,4,15,13,8,12,7,40,21,48,31,2,20,26,27,1,44,39,32,43,38,17,19,24,29,46],"trial_type":"store_order","trial_index":84,"time_elapsed":1180239,"internal_node_id":"0.0-84.0"},{"result":177,"points":1,"place":4,"phase":1,"sequence":0,"prices":[160,185,170,174,182,196,173,186,194,177],"times":[4268,632,652,700,638,630,892,598,645,1670],"next_num":10,"trial_type":"ticket-choose","trial_index":85,"time_elapsed":1195572,"internal_node_id":"0.0-85.0"},{"result":157,"points":3,"place":0,"phase":1,"sequence":1,"prices":[157,184,163,174,181,190,168,187,189,177],"times":[1110],"next_num":1,"trial_type":"ticket-choose","trial_index":86,"time_elapsed":1198731,"internal_node_id":"0.0-86.0"},{"result":165,"points":3,"place":0,"phase":1,"sequence":2,"prices":[175,189,193,170,179,165,180,186,177,184],"times":[1582,543,556,1056,1148,1054],"next_num":6,"trial_type":"ticket-choose","trial_index":87,"time_elapsed":1207827,"internal_node_id":"0.0-87.0"},{"result":173,"points":2,"place":1,"phase":1,"sequence":3,"prices":[193,173,175,182,179,198,181,171,176,187],"times":[1142,862],"next_num":2,"trial_type":"ticket-choose","trial_index":88,"time_elapsed":1211796,"internal_node_id":"0.0-88.0"},{"result":175,"points":1,"place":3,"phase":1,"sequence":4,"prices":[175,179,169,193,178,182,177,172,164,183],"times":[905],"next_num":1,"trial_type":"ticket-choose","trial_index":89,"time_elapsed":1214427,"internal_node_id":"0.0-89.0"},{"result":175,"points":1,"place":2,"phase":1,"sequence":5,"prices":[180,175,173,177,191,190,184,196,174,181],"times":[1065,910],"next_num":2,"trial_type":"ticket-choose","trial_index":90,"time_elapsed":1218460,"internal_node_id":"0.0-90.0"},{"result":174,"points":1,"place":3,"phase":1,"sequence":6,"prices":[174,178,168,192,177,181,176,171,163,182],"times":[947],"next_num":1,"trial_type":"ticket-choose","trial_index":91,"time_elapsed":1221291,"internal_node_id":"0.0-91.0"},{"result":175,"points":1,"place":3,"phase":1,"sequence":7,"prices":[175,193,175,160,180,170,175,205,177,167],"times":[1029,582,1019],"next_num":3,"trial_type":"ticket-choose","trial_index":92,"time_elapsed":1226058,"internal_node_id":"0.0-92.0"},{"result":173,"points":1,"place":3,"phase":1,"sequence":8,"prices":[173,178,176,193,177,182,168,172,164,183],"times":[882],"next_num":1,"trial_type":"ticket-choose","trial_index":93,"time_elapsed":1228788,"internal_node_id":"0.0-93.0"},{"result":174,"points":1,"place":3,"phase":1,"sequence":9,"prices":[174,179,169,194,178,183,177,173,165,184],"times":[1008],"next_num":1,"trial_type":"ticket-choose","trial_index":94,"time_elapsed":1231693,"internal_node_id":"0.0-94.0"},{"result":165,"points":3,"place":0,"phase":1,"sequence":10,"prices":[180,165,177,193,186,196,187,169,171,182],"times":[903,817],"next_num":2,"trial_type":"ticket-choose","trial_index":95,"time_elapsed":1235409,"internal_node_id":"0.0-95.0"},{"result":179,"points":1,"place":4,"phase":1,"sequence":11,"prices":[181,179,199,188,170,172,178,187,191,177],"times":[807,816],"next_num":2,"trial_type":"ticket-choose","trial_index":96,"time_elapsed":1238946,"internal_node_id":"0.0-96.0"},{"result":175,"points":1,"place":3,"phase":1,"sequence":12,"prices":[175,179,177,193,178,182,169,172,164,183],"times":[903],"next_num":1,"trial_type":"ticket-choose","trial_index":97,"time_elapsed":1241725,"internal_node_id":"0.0-97.0"},{"result":176,"points":1,"place":3,"phase":1,"sequence":13,"prices":[176,180,178,194,179,183,170,173,165,184],"times":[857],"next_num":1,"trial_type":"ticket-choose","trial_index":98,"time_elapsed":1244459,"internal_node_id":"0.0-98.0"},{"result":170,"points":2,"place":1,"phase":1,"sequence":14,"prices":[176,180,170,194,179,183,178,173,165,184],"times":[1023,615,876],"next_num":3,"trial_type":"ticket-choose","trial_index":99,"time_elapsed":1249123,"internal_node_id":"0.0-99.0"},{"result":171,"points":3,"place":0,"phase":1,"sequence":15,"prices":[171,180,172,174,179,188,173,183,186,175],"times":[992],"next_num":1,"trial_type":"ticket-choose","trial_index":100,"time_elapsed":1251948,"internal_node_id":"0.0-100.0"},{"result":179,"points":0,"place":5,"phase":1,"sequence":16,"prices":[188,191,179,157,181,164,166,156,175,182],"times":[791,607,851],"next_num":3,"trial_type":"ticket-choose","trial_index":101,"time_elapsed":1256370,"internal_node_id":"0.0-101.0"},{"result":168,"points":3,"place":0,"phase":1,"sequence":17,"prices":[168,188,171,181,184,196,180,194,195,183],"times":[1173],"next_num":1,"trial_type":"ticket-choose","trial_index":102,"time_elapsed":1259354,"internal_node_id":"0.0-102.0"},{"result":175,"points":1,"place":4,"phase":1,"sequence":18,"prices":[181,175,182,168,183,173,153,170,193,179],"times":[923,1604],"next_num":2,"trial_type":"ticket-choose","trial_index":103,"time_elapsed":1263931,"internal_node_id":"0.0-103.0"},{"result":175,"points":1,"place":3,"phase":1,"sequence":19,"prices":[175,180,178,195,179,184,170,174,166,185],"times":[897],"next_num":1,"trial_type":"ticket-choose","trial_index":104,"time_elapsed":1266605,"internal_node_id":"0.0-104.0"},{"result":177,"points":2,"place":1,"phase":1,"sequence":20,"prices":[179,186,197,201,166,187,188,193,190,177],"times":[1105,528,484,541,429,1228,574,590,758,885],"next_num":10,"trial_type":"ticket-choose","trial_index":105,"time_elapsed":1277386,"internal_node_id":"0.0-105.0"},{"result":174,"points":1,"place":3,"phase":1,"sequence":21,"prices":[174,179,177,194,178,183,169,173,165,184],"times":[1244],"next_num":1,"trial_type":"ticket-choose","trial_index":106,"time_elapsed":1280426,"internal_node_id":"0.0-106.0"},{"result":173,"points":1,"place":3,"phase":1,"sequence":22,"prices":[173,178,176,193,177,182,168,172,164,183],"times":[1342],"next_num":1,"trial_type":"ticket-choose","trial_index":107,"time_elapsed":1283724,"internal_node_id":"0.0-107.0"},{"result":175,"points":1,"place":3,"phase":1,"sequence":23,"prices":[175,179,169,193,178,182,177,172,164,183],"times":[1256],"next_num":1,"trial_type":"ticket-choose","trial_index":108,"time_elapsed":1287043,"internal_node_id":"0.0-108.0"},{"result":165,"points":3,"place":0,"phase":1,"sequence":24,"prices":[165,187,173,177,186,196,176,191,192,181],"times":[1188],"next_num":1,"trial_type":"ticket-choose","trial_index":109,"time_elapsed":1290002,"internal_node_id":"0.0-109.0"},{"result":159,"points":3,"place":0,"phase":1,"sequence":25,"prices":[159,178,170,174,176,194,173,182,185,175],"times":[995],"next_num":1,"trial_type":"ticket-choose","trial_index":110,"time_elapsed":1293742,"internal_node_id":"0.0-110.0"},{"result":176,"points":1,"place":3,"phase":1,"sequence":26,"prices":[176,180,170,194,179,183,178,173,165,184],"times":[1202],"next_num":1,"trial_type":"ticket-choose","trial_index":111,"time_elapsed":1296913,"internal_node_id":"0.0-111.0"},{"result":174,"points":1,"place":3,"phase":1,"sequence":27,"prices":[174,178,176,192,177,181,168,171,163,182],"times":[1256],"next_num":1,"trial_type":"ticket-choose","trial_index":112,"time_elapsed":1300114,"internal_node_id":"0.0-112.0"},{"result":179,"points":0,"place":5,"phase":1,"sequence":28,"prices":[175,180,178,195,179,184,170,174,166,185],"times":[1405,707,815,635,974],"next_num":5,"trial_type":"ticket-choose","trial_index":113,"time_elapsed":1307338,"internal_node_id":"0.0-113.0"},{"result":175,"points":1,"place":3,"phase":1,"sequence":29,"prices":[175,180,170,195,179,184,178,174,166,185],"times":[1113],"next_num":1,"trial_type":"ticket-choose","trial_index":114,"time_elapsed":1310297,"internal_node_id":"0.0-114.0"},{"result":179,"points":0,"place":5,"phase":1,"sequence":30,"prices":[179,174,199,178,196,167,170,184,177,190],"times":[1554],"next_num":1,"trial_type":"ticket-choose","trial_index":115,"time_elapsed":1313817,"internal_node_id":"0.0-115.0"},{"result":179,"points":0,"place":5,"phase":1,"sequence":31,"prices":[179,174,172,162,202,184,165,197,185,169],"times":[1896],"next_num":1,"trial_type":"ticket-choose","trial_index":116,"time_elapsed":1317505,"internal_node_id":"0.0-116.0"},{"result":170,"points":3,"place":0,"phase":1,"sequence":32,"prices":[170,183,172,175,180,189,174,187,188,179],"times":[1211],"next_num":1,"trial_type":"ticket-choose","trial_index":117,"time_elapsed":1320682,"internal_node_id":"0.0-117.0"},{"result":179,"points":0,"place":7,"phase":1,"sequence":33,"prices":[188,179,154,183,173,170,177,160,169,175],"times":[990,886],"next_num":2,"trial_type":"ticket-choose","trial_index":118,"time_elapsed":1324571,"internal_node_id":"0.0-118.0"},{"result":163,"points":3,"place":0,"phase":1,"sequence":34,"prices":[163,185,165,174,181,198,173,186,187,180],"times":[2195],"next_num":1,"trial_type":"ticket-choose","trial_index":119,"time_elapsed":1328649,"internal_node_id":"0.0-119.0"},{"result":169,"points":2,"place":1,"phase":1,"sequence":35,"prices":[175,179,177,193,178,182,169,172,164,183],"times":[1742,643,716,757,549,597,1078],"next_num":7,"trial_type":"ticket-choose","trial_index":120,"time_elapsed":1337937,"internal_node_id":"0.0-120.0"},{"result":177,"points":0,"place":5,"phase":1,"sequence":36,"prices":[195,177,197,179,171,173,175,156,163,204],"times":[4287,1070],"next_num":2,"trial_type":"ticket-choose","trial_index":121,"time_elapsed":1345465,"internal_node_id":"0.0-121.0"},{"result":161,"points":3,"place":0,"phase":1,"sequence":37,"prices":[161,180,170,174,178,198,173,182,188,176],"times":[1017],"next_num":1,"trial_type":"ticket-choose","trial_index":122,"time_elapsed":1348441,"internal_node_id":"0.0-122.0"},{"result":173,"points":1,"place":3,"phase":1,"sequence":38,"prices":[173,178,168,193,177,182,176,172,164,183],"times":[1212],"next_num":1,"trial_type":"ticket-choose","trial_index":123,"time_elapsed":1351354,"internal_node_id":"0.0-123.0"},{"result":174,"points":1,"place":3,"phase":1,"sequence":39,"prices":[174,178,168,192,177,181,176,171,163,182],"times":[1593],"next_num":1,"trial_type":"ticket-choose","trial_index":124,"time_elapsed":1354657,"internal_node_id":"0.0-124.0"},{"result":175,"points":0,"place":5,"phase":1,"sequence":40,"prices":[175,150,164,155,171,199,158,180,184,196],"times":[1069],"next_num":1,"trial_type":"ticket-choose","trial_index":125,"time_elapsed":1357489,"internal_node_id":"0.0-125.0"},{"result":173,"points":1,"place":3,"phase":1,"sequence":41,"prices":[173,178,168,193,177,182,176,172,164,183],"times":[1513],"next_num":1,"trial_type":"ticket-choose","trial_index":126,"time_elapsed":1360809,"internal_node_id":"0.0-126.0"},{"result":174,"points":1,"place":3,"phase":1,"sequence":42,"prices":[174,179,177,194,178,183,169,173,165,184],"times":[16703],"next_num":1,"trial_type":"ticket-choose","trial_index":127,"time_elapsed":1379521,"internal_node_id":"0.0-127.0"},{"result":169,"points":2,"place":1,"phase":1,"sequence":43,"prices":[174,179,169,194,178,183,177,173,165,184],"times":[2633,2038,5742],"next_num":3,"trial_type":"ticket-choose","trial_index":128,"time_elapsed":1392361,"internal_node_id":"0.0-128.0"},{"result":165,"points":2,"place":1,"phase":1,"sequence":44,"prices":[181,180,191,186,165,197,159,167,194,185],"times":[2096,2620,1847,1597,1528],"next_num":5,"trial_type":"ticket-choose","trial_index":129,"time_elapsed":1405097,"internal_node_id":"0.0-129.0"},{"result":170,"points":2,"place":1,"phase":1,"sequence":45,"prices":[175,180,170,195,179,184,178,174,166,185],"times":[1815,669,1357],"next_num":3,"trial_type":"ticket-choose","trial_index":130,"time_elapsed":1411296,"internal_node_id":"0.0-130.0"},{"result":169,"points":1,"place":2,"phase":1,"sequence":46,"prices":[189,185,169,168,167,171,180,173,174,188],"times":[2139,523,944],"next_num":3,"trial_type":"ticket-choose","trial_index":131,"time_elapsed":1417360,"internal_node_id":"0.0-131.0"},{"result":177,"points":0,"place":5,"phase":1,"sequence":47,"prices":[174,178,176,192,177,181,168,171,163,182],"times":[1696,639,734,857,964],"next_num":5,"trial_type":"ticket-choose","trial_index":132,"time_elapsed":1425089,"internal_node_id":"0.0-132.0"},{"result":166,"points":3,"place":0,"phase":1,"sequence":48,"prices":[166,190,170,173,178,203,172,192,198,174],"times":[3066],"next_num":1,"trial_type":"ticket-choose","trial_index":133,"time_elapsed":1430056,"internal_node_id":"0.0-133.0"},{"result":176,"points":1,"place":3,"phase":1,"sequence":49,"prices":[176,180,178,194,179,183,170,173,165,184],"times":[1181],"next_num":1,"trial_type":"ticket-choose","trial_index":134,"time_elapsed":1433842,"internal_node_id":"0.0-134.0"},{"responses":[{"value":0,"offby":0,"category":"$140 - $250","category_index":0},{"value":1,"offby":1,"category":"$151 - $160","category_index":1},{"value":2,"offby":-2,"category":"$161 - $170","category_index":2},{"value":8,"offby":2,"category":"$171 - $180","category_index":3},{"value":5,"offby":-2,"category":"$181 - $190","category_index":4},{"value":2,"offby":-1,"category":"$191 - $200","category_index":5},{"value":0,"offby":0,"category":"$201 - $210","category_index":6}],"phase":1,"number":1,"trial_type":"bar-choose","trial_index":135,"time_elapsed":1475398,"internal_node_id":"0.0-135.0"},{"special_comment":"No","trial_type":"special_sequence","trial_index":136,"time_elapsed":1487838,"internal_node_id":"0.0-136.0"},{"during":"Nothing","bonus":236,"trial_type":"final","trial_index":137,"time_elapsed":1514985,"internal_node_id":"0.0-137.0"}],"bonus":236}