{"start_time":"2017-02-24 14:40:06","end_time":"2017-02-24 15:17:55","points_phase0":102,"points_phase1":93,"phase_order":0,"age":42,"gender":"m","tries":1,"during":"Nothing","worker_id":"A3J5UWZM4ZZ1D6","assignment_id":"34J10VATJGRS36WNNOWCJZ76G8QIQL","data":[{"rt":47391,"url":"\/tickets\/utils\/consent.html","trial_type":"html","trial_index":0,"time_elapsed":47969,"internal_node_id":"0.0-0.0"},{"age":42,"gender":"m","trial_type":"age","trial_index":1,"time_elapsed":55306,"internal_node_id":"0.0-1.0"},{"worker_id":"A3J5UWZM4ZZ1D6","trial_type":"workerid","trial_index":2,"time_elapsed":61170,"internal_node_id":"0.0-2.0"},{"tries":1,"trial_type":"instructions_check","trial_index":3,"time_elapsed":318898,"internal_node_id":"0.0-3.0"},{"rt":31932,"url":"\/tickets\/utils\/start.html","trial_type":"html","trial_index":4,"time_elapsed":351987,"internal_node_id":"0.0-4.0"},{"trial_type":"number-animation","trial_index":5,"time_elapsed":483826,"internal_node_id":"0.0-5.0"},{"phase":0,"sequence":0,"avg":180,"response":170,"trial_type":"training_avg","trial_index":6,"time_elapsed":560085,"internal_node_id":"0.0-6.0"},{"trial_type":"number-animation","trial_index":7,"time_elapsed":624486,"internal_node_id":"0.0-7.0"},{"phase":0,"sequence":1,"avg":178,"response":175,"trial_type":"training_avg","trial_index":8,"time_elapsed":640926,"internal_node_id":"0.0-8.0"},{"trial_type":"number-animation","trial_index":9,"time_elapsed":654909,"internal_node_id":"0.0-9.0"},{"phase":0,"sequence":2,"avg":176,"response":172,"trial_type":"training_avg","trial_index":10,"time_elapsed":662062,"internal_node_id":"0.0-10.0"},{"trial_type":"number-animation","trial_index":11,"time_elapsed":683533,"internal_node_id":"0.0-11.0"},{"phase":0,"sequence":3,"avg":178,"response":173,"trial_type":"training_avg","trial_index":12,"time_elapsed":691215,"internal_node_id":"0.0-12.0"},{"trial_type":"number-animation","trial_index":13,"time_elapsed":702526,"internal_node_id":"0.0-13.0"},{"phase":0,"sequence":4,"avg":179,"response":174,"trial_type":"training_avg","trial_index":14,"time_elapsed":711000,"internal_node_id":"0.0-14.0"},{"responses":[{"value":2,"offby":2,"category":"$140 - $250","category_index":0},{"value":6,"offby":6,"category":"$151 - $160","category_index":1},{"value":4,"offby":0,"category":"$161 - $170","category_index":2},{"value":5,"offby":-1,"category":"$171 - $180","category_index":3},{"value":1,"offby":-6,"category":"$181 - $190","category_index":4},{"value":1,"offby":-2,"category":"$191 - $200","category_index":5},{"value":1,"offby":1,"category":"$201 - $210","category_index":6}],"phase":0,"number":0,"trial_type":"bar-choose","trial_index":15,"time_elapsed":941752,"internal_node_id":"0.0-15.0"},{"rt":171546,"url":"\/tickets\/\/utils\/testing.html","trial_type":"html","trial_index":16,"time_elapsed":1114560,"internal_node_id":"0.0-16.0"},{"phase":0,"order":[19,15,2,21,40,12,32,31,6,41,34,38,37,0,29,35,9,4,22,3,39,17,25,27,23,45,1,36,49,48,11,30,5,33,44,8,10,24,13,28,43,46,16,14,20,47,26,18,42,7],"trial_type":"store_order","trial_index":17,"time_elapsed":1115579,"internal_node_id":"0.0-17.0"},{"result":126,"points":3,"place":0,"phase":0,"sequence":-1,"prices":[184,180,224,165,181,199,185,193,218,126],"times":[2422,3388,816,763,904,629,596,700,745,2731],"next_num":10,"trial_type":"ticket-choose","trial_index":18,"time_elapsed":1134347,"internal_node_id":"0.0-18.0"},{"rt":42321,"url":"\/tickets\/utils\/testing_after.html","trial_type":"html","trial_index":19,"time_elapsed":1177865,"internal_node_id":"0.0-19.0"},{"result":183,"points":0,"place":8,"phase":0,"sequence":0,"prices":[173,178,168,193,177,182,176,172,164,183],"times":[8506,791,1580,539,611,782,730,731,811,1916],"next_num":10,"trial_type":"ticket-choose","trial_index":20,"time_elapsed":1200039,"internal_node_id":"0.0-20.0"},{"result":166,"points":3,"place":0,"phase":0,"sequence":1,"prices":[175,180,178,195,179,184,170,174,166,185],"times":[1147,593,1368,866,805,873,992,909,1756],"next_num":9,"trial_type":"ticket-choose","trial_index":21,"time_elapsed":1215952,"internal_node_id":"0.0-21.0"},{"result":174,"points":1,"place":3,"phase":0,"sequence":2,"prices":[174,179,169,194,178,183,177,173,165,184],"times":[1634],"next_num":1,"trial_type":"ticket-choose","trial_index":22,"time_elapsed":1222091,"internal_node_id":"0.0-22.0"},{"result":168,"points":2,"place":1,"phase":0,"sequence":3,"prices":[174,178,176,192,177,181,168,171,163,182],"times":[1475,560,604,609,668,631,1565],"next_num":7,"trial_type":"ticket-choose","trial_index":23,"time_elapsed":1232170,"internal_node_id":"0.0-23.0"},{"result":190,"points":0,"place":7,"phase":0,"sequence":4,"prices":[179,174,199,178,196,167,170,184,177,190],"times":[2808,544,563,572,583,2283,792,776,710,1241],"next_num":10,"trial_type":"ticket-choose","trial_index":24,"time_elapsed":1247504,"internal_node_id":"0.0-24.0"},{"result":170,"points":2,"place":1,"phase":0,"sequence":5,"prices":[176,180,178,194,179,183,170,173,165,184],"times":[1918,533,529,622,852,787,3489],"next_num":7,"trial_type":"ticket-choose","trial_index":25,"time_elapsed":1259978,"internal_node_id":"0.0-25.0"},{"result":175,"points":1,"place":4,"phase":0,"sequence":6,"prices":[171,180,172,174,179,188,173,183,186,175],"times":[1283,586,2013,507,661,764,842,679,631,1491],"next_num":10,"trial_type":"ticket-choose","trial_index":26,"time_elapsed":1274050,"internal_node_id":"0.0-26.0"},{"result":157,"points":3,"place":0,"phase":0,"sequence":7,"prices":[157,184,163,174,181,190,168,187,189,177],"times":[2246],"next_num":1,"trial_type":"ticket-choose","trial_index":27,"time_elapsed":1279233,"internal_node_id":"0.0-27.0"},{"result":174,"points":1,"place":3,"phase":0,"sequence":8,"prices":[174,179,177,194,178,183,169,173,165,184],"times":[1834],"next_num":1,"trial_type":"ticket-choose","trial_index":28,"time_elapsed":1284577,"internal_node_id":"0.0-28.0"},{"result":165,"points":3,"place":0,"phase":0,"sequence":9,"prices":[180,165,177,193,186,196,187,169,171,182],"times":[1479,1611],"next_num":2,"trial_type":"ticket-choose","trial_index":29,"time_elapsed":1290628,"internal_node_id":"0.0-29.0"},{"result":165,"points":2,"place":1,"phase":0,"sequence":10,"prices":[181,180,191,186,165,197,159,167,194,185],"times":[779,599,584,605,1454],"next_num":5,"trial_type":"ticket-choose","trial_index":30,"time_elapsed":1298061,"internal_node_id":"0.0-30.0"},{"result":177,"points":1,"place":2,"phase":0,"sequence":11,"prices":[181,179,199,188,170,172,178,187,191,177],"times":[3739,450,380,400,587,567,955,539,537,1316],"next_num":10,"trial_type":"ticket-choose","trial_index":31,"time_elapsed":1311970,"internal_node_id":"0.0-31.0"},{"result":183,"points":0,"place":8,"phase":0,"sequence":12,"prices":[181,175,182,168,183,173,153,170,193,179],"times":[13743,1112,591,3639,3736],"next_num":5,"trial_type":"ticket-choose","trial_index":32,"time_elapsed":1335755,"internal_node_id":"0.0-32.0"},{"result":169,"points":2,"place":1,"phase":0,"sequence":13,"prices":[175,179,169,193,178,182,177,172,164,183],"times":[4328,462,3826],"next_num":3,"trial_type":"ticket-choose","trial_index":33,"time_elapsed":1347491,"internal_node_id":"0.0-33.0"},{"result":174,"points":1,"place":4,"phase":0,"sequence":14,"prices":[166,190,170,173,178,203,172,192,198,174],"times":[2110,421,383,493,530,474,625,766,657,2386],"next_num":10,"trial_type":"ticket-choose","trial_index":34,"time_elapsed":1361059,"internal_node_id":"0.0-34.0"},{"result":154,"points":3,"place":0,"phase":0,"sequence":15,"prices":[188,179,154,183,173,170,177,160,169,175],"times":[1491,598,2684],"next_num":3,"trial_type":"ticket-choose","trial_index":35,"time_elapsed":1368770,"internal_node_id":"0.0-35.0"},{"result":165,"points":3,"place":0,"phase":0,"sequence":16,"prices":[176,180,170,194,179,183,178,173,165,184],"times":[1396,475,337,1052,408,405,414,461,2341],"next_num":9,"trial_type":"ticket-choose","trial_index":36,"time_elapsed":1380310,"internal_node_id":"0.0-36.0"},{"result":169,"points":2,"place":1,"phase":0,"sequence":17,"prices":[175,179,177,193,178,182,169,172,164,183],"times":[1818,413,394,431,749,525,1609],"next_num":7,"trial_type":"ticket-choose","trial_index":37,"time_elapsed":1389821,"internal_node_id":"0.0-37.0"},{"result":168,"points":2,"place":1,"phase":0,"sequence":18,"prices":[173,178,176,193,177,182,168,172,164,183],"times":[815,485,500,476,903,395,1550],"next_num":7,"trial_type":"ticket-choose","trial_index":38,"time_elapsed":1399067,"internal_node_id":"0.0-38.0"},{"result":169,"points":2,"place":1,"phase":0,"sequence":19,"prices":[174,179,169,194,178,183,177,173,165,184],"times":[916,434,1565],"next_num":3,"trial_type":"ticket-choose","trial_index":39,"time_elapsed":1404978,"internal_node_id":"0.0-39.0"},{"result":156,"points":3,"place":0,"phase":0,"sequence":20,"prices":[195,177,197,179,171,173,175,156,163,204],"times":[840,567,576,559,508,627,637,1720],"next_num":8,"trial_type":"ticket-choose","trial_index":40,"time_elapsed":1416515,"internal_node_id":"0.0-40.0"},{"result":168,"points":2,"place":1,"phase":0,"sequence":21,"prices":[174,178,168,192,177,181,176,171,163,182],"times":[690,424,1366],"next_num":3,"trial_type":"ticket-choose","trial_index":41,"time_elapsed":1422034,"internal_node_id":"0.0-41.0"},{"result":163,"points":3,"place":0,"phase":0,"sequence":22,"prices":[163,185,165,174,181,198,173,186,187,180],"times":[1457],"next_num":1,"trial_type":"ticket-choose","trial_index":42,"time_elapsed":1426060,"internal_node_id":"0.0-42.0"},{"result":168,"points":3,"place":0,"phase":0,"sequence":23,"prices":[168,188,171,181,184,196,180,194,195,183],"times":[1758],"next_num":1,"trial_type":"ticket-choose","trial_index":43,"time_elapsed":1431066,"internal_node_id":"0.0-43.0"},{"result":173,"points":1,"place":3,"phase":0,"sequence":24,"prices":[173,178,176,193,177,182,168,172,164,183],"times":[1981],"next_num":1,"trial_type":"ticket-choose","trial_index":44,"time_elapsed":1435483,"internal_node_id":"0.0-44.0"},{"result":162,"points":3,"place":0,"phase":0,"sequence":25,"prices":[179,174,172,162,202,184,165,197,185,169],"times":[699,484,419,1175],"next_num":4,"trial_type":"ticket-choose","trial_index":45,"time_elapsed":1441233,"internal_node_id":"0.0-45.0"},{"result":169,"points":2,"place":1,"phase":0,"sequence":26,"prices":[175,179,169,193,178,182,177,172,164,183],"times":[739,405,1938],"next_num":3,"trial_type":"ticket-choose","trial_index":46,"time_elapsed":1447506,"internal_node_id":"0.0-46.0"},{"result":169,"points":1,"place":2,"phase":0,"sequence":27,"prices":[189,185,169,168,167,171,180,173,174,188],"times":[899,461,982],"next_num":3,"trial_type":"ticket-choose","trial_index":47,"time_elapsed":1452870,"internal_node_id":"0.0-47.0"},{"result":165,"points":3,"place":0,"phase":0,"sequence":28,"prices":[175,189,193,170,179,165,180,186,177,184],"times":[597,486,505,450,497,1415],"next_num":6,"trial_type":"ticket-choose","trial_index":48,"time_elapsed":1460669,"internal_node_id":"0.0-48.0"},{"result":171,"points":3,"place":0,"phase":0,"sequence":29,"prices":[193,173,175,182,179,198,181,171,176,187],"times":[545,449,478,483,519,549,504,1630],"next_num":8,"trial_type":"ticket-choose","trial_index":49,"time_elapsed":1469572,"internal_node_id":"0.0-49.0"},{"result":170,"points":2,"place":1,"phase":0,"sequence":30,"prices":[175,180,170,195,179,184,178,174,166,185],"times":[1425,575,1379],"next_num":3,"trial_type":"ticket-choose","trial_index":50,"time_elapsed":1475601,"internal_node_id":"0.0-50.0"},{"result":177,"points":1,"place":4,"phase":0,"sequence":31,"prices":[160,185,170,174,182,196,173,186,194,177],"times":[1108,1381,422,470,549,582,486,560,863,1318],"next_num":10,"trial_type":"ticket-choose","trial_index":51,"time_elapsed":1487741,"internal_node_id":"0.0-51.0"},{"result":169,"points":2,"place":1,"phase":0,"sequence":32,"prices":[175,179,177,193,178,182,169,172,164,183],"times":[2283,470,489,627,450,674,1353],"next_num":7,"trial_type":"ticket-choose","trial_index":52,"time_elapsed":1498180,"internal_node_id":"0.0-52.0"},{"result":179,"points":1,"place":4,"phase":0,"sequence":33,"prices":[170,183,172,175,180,189,174,187,188,179],"times":[1847,410,385,444,472,802,668,831,774,1636],"next_num":10,"trial_type":"ticket-choose","trial_index":53,"time_elapsed":1510804,"internal_node_id":"0.0-53.0"},{"result":150,"points":3,"place":0,"phase":0,"sequence":34,"prices":[175,150,164,155,171,199,158,180,184,196],"times":[2312,1684],"next_num":2,"trial_type":"ticket-choose","trial_index":54,"time_elapsed":1517565,"internal_node_id":"0.0-54.0"},{"result":173,"points":1,"place":2,"phase":0,"sequence":35,"prices":[176,180,170,194,179,183,178,173,165,184],"times":[818,579,476,452,490,583,933,1433],"next_num":8,"trial_type":"ticket-choose","trial_index":55,"time_elapsed":1527446,"internal_node_id":"0.0-55.0"},{"result":166,"points":3,"place":0,"phase":0,"sequence":36,"prices":[175,180,170,195,179,184,178,174,166,185],"times":[632,488,424,466,474,567,584,1426,1476],"next_num":9,"trial_type":"ticket-choose","trial_index":56,"time_elapsed":1538173,"internal_node_id":"0.0-56.0"},{"result":161,"points":3,"place":0,"phase":0,"sequence":37,"prices":[161,180,170,174,178,198,173,182,188,176],"times":[2299],"next_num":1,"trial_type":"ticket-choose","trial_index":57,"time_elapsed":1542701,"internal_node_id":"0.0-57.0"},{"result":176,"points":1,"place":3,"phase":0,"sequence":38,"prices":[176,180,178,194,179,183,170,173,165,184],"times":[1525],"next_num":1,"trial_type":"ticket-choose","trial_index":58,"time_elapsed":1546679,"internal_node_id":"0.0-58.0"},{"result":159,"points":3,"place":0,"phase":0,"sequence":39,"prices":[159,178,170,174,176,194,173,182,185,175],"times":[1480],"next_num":1,"trial_type":"ticket-choose","trial_index":59,"time_elapsed":1550487,"internal_node_id":"0.0-59.0"},{"result":157,"points":2,"place":1,"phase":0,"sequence":40,"prices":[188,191,179,157,181,164,166,156,175,182],"times":[885,684,605,1481],"next_num":4,"trial_type":"ticket-choose","trial_index":60,"time_elapsed":1557166,"internal_node_id":"0.0-60.0"},{"result":166,"points":3,"place":0,"phase":0,"sequence":41,"prices":[179,186,197,201,166,187,188,193,190,177],"times":[1043,496,401,672,1629],"next_num":5,"trial_type":"ticket-choose","trial_index":61,"time_elapsed":1564814,"internal_node_id":"0.0-61.0"},{"result":168,"points":2,"place":1,"phase":0,"sequence":42,"prices":[174,178,168,192,177,181,176,171,163,182],"times":[649,442,1375],"next_num":3,"trial_type":"ticket-choose","trial_index":62,"time_elapsed":1569902,"internal_node_id":"0.0-62.0"},{"result":166,"points":3,"place":0,"phase":0,"sequence":43,"prices":[175,180,178,195,179,184,170,174,166,185],"times":[564,437,442,470,434,470,495,452,1410],"next_num":9,"trial_type":"ticket-choose","trial_index":63,"time_elapsed":1578946,"internal_node_id":"0.0-63.0"},{"result":168,"points":2,"place":1,"phase":0,"sequence":44,"prices":[174,178,176,192,177,181,168,171,163,182],"times":[1531,461,553,500,500,578,1658],"next_num":7,"trial_type":"ticket-choose","trial_index":64,"time_elapsed":1588278,"internal_node_id":"0.0-64.0"},{"result":174,"points":2,"place":1,"phase":0,"sequence":45,"prices":[180,175,173,177,191,190,184,196,174,181],"times":[958,590,493,511,547,540,711,781,1878],"next_num":9,"trial_type":"ticket-choose","trial_index":65,"time_elapsed":1599495,"internal_node_id":"0.0-65.0"},{"result":165,"points":3,"place":0,"phase":0,"sequence":46,"prices":[165,187,173,177,186,196,176,191,192,181],"times":[1814],"next_num":1,"trial_type":"ticket-choose","trial_index":66,"time_elapsed":1603701,"internal_node_id":"0.0-66.0"},{"result":168,"points":2,"place":1,"phase":0,"sequence":47,"prices":[173,178,168,193,177,182,176,172,164,183],"times":[1169,374,1254],"next_num":3,"trial_type":"ticket-choose","trial_index":67,"time_elapsed":1609117,"internal_node_id":"0.0-67.0"},{"result":160,"points":3,"place":0,"phase":0,"sequence":48,"prices":[175,193,175,160,180,170,175,205,177,167],"times":[640,418,408,1367],"next_num":4,"trial_type":"ticket-choose","trial_index":68,"time_elapsed":1614877,"internal_node_id":"0.0-68.0"},{"result":169,"points":2,"place":1,"phase":0,"sequence":49,"prices":[174,179,177,194,178,183,169,173,165,184],"times":[820,465,470,549,486,579,1820],"next_num":7,"trial_type":"ticket-choose","trial_index":69,"time_elapsed":1623762,"internal_node_id":"0.0-69.0"},{"responses":[{"value":1,"offby":1,"category":"$140 - $250","category_index":0},{"value":8,"offby":8,"category":"$151 - $160","category_index":1},{"value":4,"offby":0,"category":"$161 - $170","category_index":2},{"value":4,"offby":-2,"category":"$171 - $180","category_index":3},{"value":1,"offby":-6,"category":"$181 - $190","category_index":4},{"value":1,"offby":-2,"category":"$191 - $200","category_index":5},{"value":1,"offby":1,"category":"$201 - $210","category_index":6}],"phase":0,"number":1,"trial_type":"bar-choose","trial_index":70,"time_elapsed":1675667,"internal_node_id":"0.0-70.0"},{"rt":8916,"url":"\/tickets\/utils\/start2.html","trial_type":"html","trial_index":71,"time_elapsed":1685728,"internal_node_id":"0.0-71.0"},{"trial_type":"number-animation","trial_index":72,"time_elapsed":1696909,"internal_node_id":"0.0-72.0"},{"phase":1,"sequence":0,"avg":166,"response":134,"trial_type":"training_avg","trial_index":73,"time_elapsed":1713186,"internal_node_id":"0.0-73.0"},{"trial_type":"number-animation","trial_index":74,"time_elapsed":1722430,"internal_node_id":"0.0-74.0"},{"phase":1,"sequence":1,"avg":198,"response":177,"trial_type":"training_avg","trial_index":75,"time_elapsed":1734771,"internal_node_id":"0.0-75.0"},{"trial_type":"number-animation","trial_index":76,"time_elapsed":1743212,"internal_node_id":"0.0-76.0"},{"phase":1,"sequence":2,"avg":177,"response":183,"trial_type":"training_avg","trial_index":77,"time_elapsed":1752640,"internal_node_id":"0.0-77.0"},{"trial_type":"number-animation","trial_index":78,"time_elapsed":1761553,"internal_node_id":"0.0-78.0"},{"phase":1,"sequence":3,"avg":190,"response":173,"trial_type":"training_avg","trial_index":79,"time_elapsed":1771026,"internal_node_id":"0.0-79.0"},{"trial_type":"number-animation","trial_index":80,"time_elapsed":1778789,"internal_node_id":"0.0-80.0"},{"phase":1,"sequence":4,"avg":201,"response":194,"trial_type":"training_avg","trial_index":81,"time_elapsed":1789409,"internal_node_id":"0.0-81.0"},{"responses":[{"value":0,"offby":-1,"category":"$30 - $75","category_index":0},{"value":2,"offby":0,"category":"$76 - $120","category_index":1},{"value":4,"offby":0,"category":"$121 - $165","category_index":2},{"value":7,"offby":1,"category":"$166 - $210","category_index":3},{"value":4,"offby":-2,"category":"$211 - $255","category_index":4},{"value":3,"offby":2,"category":"$256 - $300","category_index":5},{"value":0,"offby":0,"category":"$301 - $345","category_index":6}],"phase":1,"number":0,"trial_type":"bar-choose","trial_index":82,"time_elapsed":1836402,"internal_node_id":"0.0-82.0"},{"rt":5403,"url":"\/tickets\/utils\/testing2.html","trial_type":"html","trial_index":83,"time_elapsed":1842939,"internal_node_id":"0.0-83.0"},{"phase":1,"order":[23,43,14,46,11,35,1,38,26,42,24,41,22,2,40,4,3,37,12,5,8,6,20,9,33,36,10,27,48,39,25,31,21,45,32,0,16,13,30,19,7,17,28,15,47,34,29,44,49,18],"trial_type":"store_order","trial_index":84,"time_elapsed":1843943,"internal_node_id":"0.0-84.0"},{"result":195,"points":0,"place":8,"phase":1,"sequence":0,"prices":[145,170,160,245,165,190,120,141,100,195],"times":[3616,586,228,432,404,439,439,495,778,1679],"next_num":10,"trial_type":"ticket-choose","trial_index":85,"time_elapsed":1857191,"internal_node_id":"0.0-85.0"},{"result":101,"points":1,"place":2,"phase":1,"sequence":1,"prices":[220,236,176,65,185,101,110,61,156,191],"times":[1616,338,263,387,536,889],"next_num":6,"trial_type":"ticket-choose","trial_index":86,"time_elapsed":1864770,"internal_node_id":"0.0-86.0"},{"result":150,"points":1,"place":2,"phase":1,"sequence":2,"prices":[155,181,170,255,176,200,130,150,110,205],"times":[2167,497,470,416,541,476,469,891],"next_num":8,"trial_type":"ticket-choose","trial_index":87,"time_elapsed":1874585,"internal_node_id":"0.0-87.0"},{"result":111,"points":3,"place":0,"phase":1,"sequence":3,"prices":[175,211,266,286,111,216,220,245,230,165],"times":[3516,538,412,482,802],"next_num":5,"trial_type":"ticket-choose","trial_index":88,"time_elapsed":1883278,"internal_node_id":"0.0-88.0"},{"result":156,"points":1,"place":3,"phase":1,"sequence":4,"prices":[156,181,130,255,175,200,170,150,111,205],"times":[1327],"next_num":1,"trial_type":"ticket-choose","trial_index":89,"time_elapsed":1886970,"internal_node_id":"0.0-89.0"},{"result":51,"points":3,"place":0,"phase":1,"sequence":5,"prices":[221,175,51,196,146,130,166,80,126,156],"times":[1344,822,2120],"next_num":3,"trial_type":"ticket-choose","trial_index":90,"time_elapsed":1893676,"internal_node_id":"0.0-90.0"},{"result":156,"points":1,"place":3,"phase":1,"sequence":6,"prices":[156,175,125,245,170,190,165,140,101,196],"times":[1465],"next_num":1,"trial_type":"ticket-choose","trial_index":91,"time_elapsed":1897476,"internal_node_id":"0.0-91.0"},{"result":165,"points":1,"place":2,"phase":1,"sequence":7,"prices":[185,175,276,221,130,141,171,216,235,165],"times":[3688,345,418,365,373,380,467,590,492,898],"next_num":10,"trial_type":"ticket-choose","trial_index":92,"time_elapsed":1909228,"internal_node_id":"0.0-92.0"},{"result":105,"points":3,"place":0,"phase":1,"sequence":8,"prices":[105,216,146,165,210,260,161,235,241,185],"times":[820],"next_num":1,"trial_type":"ticket-choose","trial_index":93,"time_elapsed":1912310,"internal_node_id":"0.0-93.0"},{"result":155,"points":1,"place":3,"phase":1,"sequence":9,"prices":[155,245,155,81,180,130,156,306,166,115],"times":[849],"next_num":1,"trial_type":"ticket-choose","trial_index":94,"time_elapsed":1915268,"internal_node_id":"0.0-94.0"},{"result":86,"points":3,"place":0,"phase":1,"sequence":10,"prices":[86,180,130,151,170,271,145,191,220,160],"times":[814],"next_num":1,"trial_type":"ticket-choose","trial_index":95,"time_elapsed":1918158,"internal_node_id":"0.0-95.0"},{"result":135,"points":1,"place":2,"phase":1,"sequence":11,"prices":[180,106,166,245,211,261,215,125,135,190],"times":[1208,413,384,435,532,422,388,487,825],"next_num":9,"trial_type":"ticket-choose","trial_index":96,"time_elapsed":1926881,"internal_node_id":"0.0-96.0"},{"result":145,"points":1,"place":3,"phase":1,"sequence":12,"prices":[145,171,161,245,165,191,120,140,100,196],"times":[1491],"next_num":1,"trial_type":"ticket-choose","trial_index":97,"time_elapsed":1930552,"internal_node_id":"0.0-97.0"},{"result":151,"points":1,"place":3,"phase":1,"sequence":13,"prices":[151,176,126,251,170,196,165,145,105,201],"times":[1128],"next_num":1,"trial_type":"ticket-choose","trial_index":98,"time_elapsed":1934628,"internal_node_id":"0.0-98.0"},{"result":150,"points":1,"place":2,"phase":1,"sequence":14,"prices":[176,150,276,171,261,116,130,201,166,231],"times":[1002,1361],"next_num":2,"trial_type":"ticket-choose","trial_index":99,"time_elapsed":1939573,"internal_node_id":"0.0-99.0"},{"result":155,"points":1,"place":3,"phase":1,"sequence":15,"prices":[155,175,166,245,171,190,125,140,101,196],"times":[2194],"next_num":1,"trial_type":"ticket-choose","trial_index":100,"time_elapsed":1943975,"internal_node_id":"0.0-100.0"},{"result":126,"points":2,"place":1,"phase":1,"sequence":16,"prices":[150,176,126,251,171,195,165,145,105,200],"times":[1326,488,824],"next_num":3,"trial_type":"ticket-choose","trial_index":101,"time_elapsed":1948879,"internal_node_id":"0.0-101.0"},{"result":156,"points":1,"place":4,"phase":1,"sequence":17,"prices":[186,156,191,120,195,145,45,130,246,176],"times":[854,1245],"next_num":2,"trial_type":"ticket-choose","trial_index":102,"time_elapsed":1953109,"internal_node_id":"0.0-102.0"},{"result":131,"points":2,"place":1,"phase":1,"sequence":18,"prices":[161,180,171,250,176,195,131,146,105,201],"times":[761,400,455,435,522,486,1069],"next_num":7,"trial_type":"ticket-choose","trial_index":103,"time_elapsed":1960314,"internal_node_id":"0.0-103.0"},{"result":126,"points":2,"place":1,"phase":1,"sequence":19,"prices":[156,176,165,246,171,190,126,141,101,196],"times":[1065,422,564,424,581,469,1131],"next_num":7,"trial_type":"ticket-choose","trial_index":104,"time_elapsed":1968010,"internal_node_id":"0.0-104.0"},{"result":161,"points":1,"place":3,"phase":1,"sequence":20,"prices":[161,180,131,251,175,196,171,146,105,201],"times":[1211],"next_num":1,"trial_type":"ticket-choose","trial_index":105,"time_elapsed":1971244,"internal_node_id":"0.0-105.0"},{"result":126,"points":2,"place":1,"phase":1,"sequence":21,"prices":[150,175,166,251,170,196,126,145,105,201],"times":[811,529,664,465,469,464,903],"next_num":7,"trial_type":"ticket-choose","trial_index":106,"time_elapsed":1978752,"internal_node_id":"0.0-106.0"},{"result":121,"points":2,"place":1,"phase":1,"sequence":22,"prices":[150,170,160,240,166,185,121,136,95,191],"times":[1071,437,446,495,719,519,828],"next_num":7,"trial_type":"ticket-choose","trial_index":107,"time_elapsed":1986384,"internal_node_id":"0.0-107.0"},{"result":105,"points":3,"place":0,"phase":1,"sequence":23,"prices":[160,180,130,251,176,195,170,146,105,200],"times":[1662,535,439,350,471,437,765,540,904],"next_num":9,"trial_type":"ticket-choose","trial_index":108,"time_elapsed":1996238,"internal_node_id":"0.0-108.0"},{"result":175,"points":1,"place":4,"phase":1,"sequence":24,"prices":[130,195,141,155,181,226,150,216,221,175],"times":[755,445,484,568,497,625,585,559,570,838],"next_num":10,"trial_type":"ticket-choose","trial_index":109,"time_elapsed":2006054,"internal_node_id":"0.0-109.0"},{"result":125,"points":1,"place":2,"phase":1,"sequence":25,"prices":[226,205,125,120,115,135,180,145,150,220],"times":[494,512,857],"next_num":3,"trial_type":"ticket-choose","trial_index":110,"time_elapsed":2010252,"internal_node_id":"0.0-110.0"},{"result":111,"points":3,"place":0,"phase":1,"sequence":26,"prices":[156,181,131,256,176,200,171,151,111,206],"times":[915,364,477,513,463,451,674,580,806],"next_num":9,"trial_type":"ticket-choose","trial_index":111,"time_elapsed":2018943,"internal_node_id":"0.0-111.0"},{"result":120,"points":3,"place":0,"phase":1,"sequence":27,"prices":[120,221,135,185,200,261,181,251,255,196],"times":[1109],"next_num":1,"trial_type":"ticket-choose","trial_index":112,"time_elapsed":2022119,"internal_node_id":"0.0-112.0"},{"result":136,"points":3,"place":0,"phase":1,"sequence":28,"prices":[246,145,155,191,176,270,185,136,160,215],"times":[1099,333,509,488,437,453,443,821],"next_num":8,"trial_type":"ticket-choose","trial_index":113,"time_elapsed":2030167,"internal_node_id":"0.0-113.0"},{"result":136,"points":1,"place":2,"phase":1,"sequence":29,"prices":[255,166,266,175,136,145,155,61,96,301],"times":[799,353,386,448,826],"next_num":5,"trial_type":"ticket-choose","trial_index":114,"time_elapsed":2035867,"internal_node_id":"0.0-114.0"},{"result":95,"points":3,"place":0,"phase":1,"sequence":30,"prices":[95,205,106,151,186,271,145,210,215,181],"times":[1105],"next_num":1,"trial_type":"ticket-choose","trial_index":115,"time_elapsed":2039229,"internal_node_id":"0.0-115.0"},{"result":66,"points":3,"place":0,"phase":1,"sequence":31,"prices":[66,201,96,150,185,230,121,216,225,165],"times":[1325],"next_num":1,"trial_type":"ticket-choose","trial_index":116,"time_elapsed":2042592,"internal_node_id":"0.0-116.0"},{"result":120,"points":2,"place":1,"phase":1,"sequence":32,"prices":[150,170,160,241,166,186,120,136,96,191],"times":[2880,655,1057,479,578,461,918],"next_num":7,"trial_type":"ticket-choose","trial_index":117,"time_elapsed":2052901,"internal_node_id":"0.0-117.0"},{"result":91,"points":3,"place":0,"phase":1,"sequence":33,"prices":[176,150,141,91,290,201,106,266,206,126],"times":[707,520,528,772],"next_num":4,"trial_type":"ticket-choose","trial_index":118,"time_elapsed":2057901,"internal_node_id":"0.0-118.0"},{"result":155,"points":1,"place":4,"phase":1,"sequence":34,"prices":[135,180,141,151,175,220,145,196,211,155],"times":[765,407,363,488,499,434,531,459,593,853],"next_num":10,"trial_type":"ticket-choose","trial_index":119,"time_elapsed":2067485,"internal_node_id":"0.0-119.0"},{"result":100,"points":3,"place":0,"phase":1,"sequence":35,"prices":[156,175,126,246,170,190,165,140,100,196],"times":[1112,426,444,469,451,454,597,533,928],"next_num":9,"trial_type":"ticket-choose","trial_index":120,"time_elapsed":2076447,"internal_node_id":"0.0-120.0"},{"result":136,"points":1,"place":2,"phase":1,"sequence":36,"prices":[150,171,121,241,165,185,160,136,95,191],"times":[800,351,373,399,361,435,602,1306],"next_num":8,"trial_type":"ticket-choose","trial_index":121,"time_elapsed":2084668,"internal_node_id":"0.0-121.0"},{"result":131,"points":2,"place":1,"phase":1,"sequence":37,"prices":[160,180,170,251,176,195,131,146,105,200],"times":[1057,1342,472,594,609,718,1047],"next_num":7,"trial_type":"ticket-choose","trial_index":122,"time_elapsed":2093745,"internal_node_id":"0.0-122.0"},{"result":81,"points":3,"place":0,"phase":1,"sequence":38,"prices":[81,205,130,151,191,261,145,210,250,165],"times":[1021],"next_num":1,"trial_type":"ticket-choose","trial_index":123,"time_elapsed":2096614,"internal_node_id":"0.0-123.0"},{"result":121,"points":2,"place":1,"phase":1,"sequence":39,"prices":[146,170,121,245,166,190,161,141,100,195],"times":[1643,404,687],"next_num":3,"trial_type":"ticket-choose","trial_index":124,"time_elapsed":2101738,"internal_node_id":"0.0-124.0"},{"result":126,"points":2,"place":1,"phase":1,"sequence":40,"prices":[151,175,166,251,170,195,126,146,105,201],"times":[972,354,502,432,506,415,903],"next_num":7,"trial_type":"ticket-choose","trial_index":125,"time_elapsed":2109427,"internal_node_id":"0.0-125.0"},{"result":120,"points":2,"place":1,"phase":1,"sequence":41,"prices":[150,171,120,241,165,185,160,135,96,190],"times":[552,539,905],"next_num":3,"trial_type":"ticket-choose","trial_index":126,"time_elapsed":2113725,"internal_node_id":"0.0-126.0"},{"result":75,"points":3,"place":0,"phase":1,"sequence":42,"prices":[75,171,131,151,161,250,145,190,206,156],"times":[692],"next_num":1,"trial_type":"ticket-choose","trial_index":127,"time_elapsed":2116433,"internal_node_id":"0.0-127.0"},{"result":131,"points":2,"place":1,"phase":1,"sequence":43,"prices":[156,181,171,256,175,200,131,150,110,206],"times":[927,403,408,479,459,519,750],"next_num":7,"trial_type":"ticket-choose","trial_index":128,"time_elapsed":2123628,"internal_node_id":"0.0-128.0"},{"result":150,"points":2,"place":1,"phase":1,"sequence":44,"prices":[181,156,145,165,236,231,201,260,150,185],"times":[1038,485,404,563,2320,776,501,498,923],"next_num":9,"trial_type":"ticket-choose","trial_index":129,"time_elapsed":2134881,"internal_node_id":"0.0-129.0"},{"result":106,"points":2,"place":1,"phase":1,"sequence":45,"prices":[185,180,235,210,106,266,76,115,250,205],"times":[651,547,381,570,862],"next_num":5,"trial_type":"ticket-choose","trial_index":130,"time_elapsed":2140546,"internal_node_id":"0.0-130.0"},{"result":111,"points":3,"place":0,"phase":1,"sequence":46,"prices":[111,231,131,146,171,295,141,241,271,150],"times":[890],"next_num":1,"trial_type":"ticket-choose","trial_index":131,"time_elapsed":2144310,"internal_node_id":"0.0-131.0"},{"result":30,"points":3,"place":0,"phase":1,"sequence":47,"prices":[155,30,101,55,136,276,70,181,200,261],"times":[1051,778],"next_num":2,"trial_type":"ticket-choose","trial_index":132,"time_elapsed":2148442,"internal_node_id":"0.0-132.0"},{"result":200,"points":0,"place":6,"phase":1,"sequence":48,"prices":[155,225,245,130,176,106,180,211,165,200],"times":[818,382,404,465,444,541,411,490,343,650],"next_num":11,"trial_type":"ticket-choose","trial_index":133,"time_elapsed":2157322,"internal_node_id":"0.0-133.0"},{"result":146,"points":1,"place":3,"phase":1,"sequence":49,"prices":[146,171,120,245,165,191,160,140,100,196],"times":[1132],"next_num":1,"trial_type":"ticket-choose","trial_index":134,"time_elapsed":2160560,"internal_node_id":"0.0-134.0"},{"responses":[{"value":1,"offby":0,"category":"$30 - $75","category_index":0},{"value":2,"offby":0,"category":"$76 - $120","category_index":1},{"value":4,"offby":0,"category":"$121 - $165","category_index":2},{"value":5,"offby":-1,"category":"$166 - $210","category_index":3},{"value":5,"offby":-1,"category":"$211 - $255","category_index":4},{"value":3,"offby":2,"category":"$256 - $300","category_index":5},{"value":0,"offby":0,"category":"$301 - $345","category_index":6}],"phase":1,"number":1,"trial_type":"bar-choose","trial_index":135,"time_elapsed":2229906,"internal_node_id":"0.0-135.0"},{"special_comment":"no","trial_type":"special_sequence","trial_index":136,"time_elapsed":2236272,"internal_node_id":"0.0-136.0"},{"during":"Nothing","bonus":260,"trial_type":"final","trial_index":137,"time_elapsed":2263239,"internal_node_id":"0.0-137.0"}],"bonus":260}