{"start_time":"2017-02-24 14:41:30","end_time":"2017-02-24 15:12:48","points_phase0":114,"points_phase1":115,"phase_order":1,"age":26,"gender":"m","tries":2,"during":"Watching TV","worker_id":"A3KX8PBHVFQZ3U","assignment_id":"3MYYFCXHJ407IA3UZ3PWVKTL53GG49","data":[{"rt":116610,"url":"\/tickets\/utils\/consent.html","trial_type":"html","trial_index":0,"time_elapsed":116718,"internal_node_id":"0.0-0.0"},{"age":26,"gender":"m","trial_type":"age","trial_index":1,"time_elapsed":123967,"internal_node_id":"0.0-1.0"},{"worker_id":"A3KX8PBHVFQZ3U","trial_type":"workerid","trial_index":2,"time_elapsed":131967,"internal_node_id":"0.0-2.0"},{"tries":2,"trial_type":"instructions_check","trial_index":3,"time_elapsed":300621,"internal_node_id":"0.0-3.0"},{"rt":13864,"url":"\/tickets\/utils\/start.html","trial_type":"html","trial_index":4,"time_elapsed":315613,"internal_node_id":"0.0-4.0"},{"trial_type":"number-animation","trial_index":5,"time_elapsed":335841,"internal_node_id":"0.0-5.0"},{"phase":0,"sequence":0,"avg":166,"response":145,"trial_type":"training_avg","trial_index":6,"time_elapsed":349971,"internal_node_id":"0.0-6.0"},{"trial_type":"number-animation","trial_index":7,"time_elapsed":368073,"internal_node_id":"0.0-7.0"},{"phase":0,"sequence":1,"avg":198,"response":205,"trial_type":"training_avg","trial_index":8,"time_elapsed":377188,"internal_node_id":"0.0-8.0"},{"trial_type":"number-animation","trial_index":9,"time_elapsed":399654,"internal_node_id":"0.0-9.0"},{"phase":0,"sequence":2,"avg":177,"response":190,"trial_type":"training_avg","trial_index":10,"time_elapsed":409020,"internal_node_id":"0.0-10.0"},{"trial_type":"number-animation","trial_index":11,"time_elapsed":425572,"internal_node_id":"0.0-11.0"},{"phase":0,"sequence":3,"avg":190,"response":185,"trial_type":"training_avg","trial_index":12,"time_elapsed":434622,"internal_node_id":"0.0-12.0"},{"trial_type":"number-animation","trial_index":13,"time_elapsed":479743,"internal_node_id":"0.0-13.0"},{"phase":0,"sequence":4,"avg":201,"response":201,"trial_type":"training_avg","trial_index":14,"time_elapsed":488135,"internal_node_id":"0.0-14.0"},{"responses":[{"value":0,"offby":-1,"category":"$30 - $75","category_index":0},{"value":2,"offby":0,"category":"$76 - $120","category_index":1},{"value":4,"offby":0,"category":"$121 - $165","category_index":2},{"value":8,"offby":2,"category":"$166 - $210","category_index":3},{"value":4,"offby":-2,"category":"$211 - $255","category_index":4},{"value":2,"offby":1,"category":"$256 - $300","category_index":5},{"value":0,"offby":0,"category":"$301 - $345","category_index":6}],"phase":0,"number":0,"trial_type":"bar-choose","trial_index":15,"time_elapsed":596413,"internal_node_id":"0.0-15.0"},{"rt":28304,"url":"\/tickets\/\/utils\/testing.html","trial_type":"html","trial_index":16,"time_elapsed":625844,"internal_node_id":"0.0-16.0"},{"phase":0,"order":[7,11,34,30,47,16,21,5,9,20,49,12,6,46,13,19,48,2,4,32,45,3,0,27,38,26,39,10,25,44,40,35,17,14,18,42,36,8,22,28,31,41,29,15,24,33,43,37,23,1],"trial_type":"store_order","trial_index":17,"time_elapsed":626846,"internal_node_id":"0.0-17.0"},{"result":126,"points":3,"place":0,"phase":0,"sequence":-1,"prices":[184,180,224,165,181,199,185,193,218,126],"times":[2100,1323,1117,2022,1161,1162,1687,1211,1393,1511],"next_num":10,"trial_type":"ticket-choose","trial_index":18,"time_elapsed":646495,"internal_node_id":"0.0-18.0"},{"rt":27283,"url":"\/tickets\/utils\/testing_after.html","trial_type":"html","trial_index":19,"time_elapsed":674895,"internal_node_id":"0.0-19.0"},{"result":150,"points":1,"place":3,"phase":0,"sequence":0,"prices":[150,176,126,251,171,195,165,145,105,200],"times":[4803],"next_num":1,"trial_type":"ticket-choose","trial_index":20,"time_elapsed":682949,"internal_node_id":"0.0-20.0"},{"result":66,"points":3,"place":0,"phase":0,"sequence":1,"prices":[66,201,96,150,185,230,121,216,225,165],"times":[1831],"next_num":1,"trial_type":"ticket-choose","trial_index":21,"time_elapsed":689079,"internal_node_id":"0.0-21.0"},{"result":81,"points":3,"place":0,"phase":0,"sequence":2,"prices":[81,205,130,151,191,261,145,210,250,165],"times":[1427],"next_num":1,"trial_type":"ticket-choose","trial_index":22,"time_elapsed":692930,"internal_node_id":"0.0-22.0"},{"result":120,"points":3,"place":0,"phase":0,"sequence":3,"prices":[120,221,135,185,200,261,181,251,255,196],"times":[2408],"next_num":1,"trial_type":"ticket-choose","trial_index":23,"time_elapsed":697645,"internal_node_id":"0.0-23.0"},{"result":131,"points":2,"place":1,"phase":0,"sequence":4,"prices":[161,180,131,251,175,196,171,146,105,201],"times":[1370,887,1306],"next_num":3,"trial_type":"ticket-choose","trial_index":24,"time_elapsed":703893,"internal_node_id":"0.0-24.0"},{"result":105,"points":3,"place":0,"phase":0,"sequence":5,"prices":[105,216,146,165,210,260,161,235,241,185],"times":[2484],"next_num":1,"trial_type":"ticket-choose","trial_index":25,"time_elapsed":708411,"internal_node_id":"0.0-25.0"},{"result":136,"points":1,"place":2,"phase":0,"sequence":6,"prices":[255,166,266,175,136,145,155,61,96,301],"times":[1024,613,639,794,1010],"next_num":5,"trial_type":"ticket-choose","trial_index":26,"time_elapsed":715355,"internal_node_id":"0.0-26.0"},{"result":120,"points":2,"place":1,"phase":0,"sequence":7,"prices":[145,171,161,245,165,191,120,140,100,196],"times":[1800,644,803,549,612,785,895],"next_num":7,"trial_type":"ticket-choose","trial_index":27,"time_elapsed":724712,"internal_node_id":"0.0-27.0"},{"result":120,"points":2,"place":1,"phase":0,"sequence":8,"prices":[150,171,120,241,165,185,160,135,96,190],"times":[1342,631,1470],"next_num":3,"trial_type":"ticket-choose","trial_index":28,"time_elapsed":730571,"internal_node_id":"0.0-28.0"},{"result":86,"points":3,"place":0,"phase":0,"sequence":9,"prices":[86,180,130,151,170,271,145,191,220,160],"times":[1289],"next_num":1,"trial_type":"ticket-choose","trial_index":29,"time_elapsed":735013,"internal_node_id":"0.0-29.0"},{"result":131,"points":2,"place":1,"phase":0,"sequence":10,"prices":[160,180,170,251,176,195,131,146,105,200],"times":[1597,887,604,594,592,603,3382],"next_num":7,"trial_type":"ticket-choose","trial_index":30,"time_elapsed":746501,"internal_node_id":"0.0-30.0"},{"result":126,"points":2,"place":1,"phase":0,"sequence":11,"prices":[151,175,166,251,170,195,126,146,105,201],"times":[1131,518,541,541,631,677,941],"next_num":7,"trial_type":"ticket-choose","trial_index":31,"time_elapsed":754738,"internal_node_id":"0.0-31.0"},{"result":135,"points":3,"place":0,"phase":0,"sequence":12,"prices":[135,180,141,151,175,220,145,196,211,155],"times":[2209],"next_num":1,"trial_type":"ticket-choose","trial_index":32,"time_elapsed":758984,"internal_node_id":"0.0-32.0"},{"result":125,"points":1,"place":2,"phase":0,"sequence":13,"prices":[226,205,125,120,115,135,180,145,150,220],"times":[1201,740,898],"next_num":3,"trial_type":"ticket-choose","trial_index":33,"time_elapsed":764205,"internal_node_id":"0.0-33.0"},{"result":106,"points":2,"place":1,"phase":0,"sequence":14,"prices":[185,180,235,210,106,266,76,115,250,205],"times":[1434,558,586,603,907],"next_num":5,"trial_type":"ticket-choose","trial_index":34,"time_elapsed":771043,"internal_node_id":"0.0-34.0"},{"result":120,"points":2,"place":1,"phase":0,"sequence":15,"prices":[145,170,160,245,165,190,120,141,100,195],"times":[1318,704,632,634,602,635,911],"next_num":7,"trial_type":"ticket-choose","trial_index":35,"time_elapsed":779652,"internal_node_id":"0.0-35.0"},{"result":130,"points":3,"place":0,"phase":0,"sequence":16,"prices":[185,175,276,221,130,141,171,216,235,165],"times":[1054,696,641,676,1641],"next_num":5,"trial_type":"ticket-choose","trial_index":36,"time_elapsed":787551,"internal_node_id":"0.0-36.0"},{"result":75,"points":3,"place":0,"phase":0,"sequence":17,"prices":[75,171,131,151,161,250,145,190,206,156],"times":[1057],"next_num":1,"trial_type":"ticket-choose","trial_index":37,"time_elapsed":790780,"internal_node_id":"0.0-37.0"},{"result":130,"points":2,"place":1,"phase":0,"sequence":18,"prices":[156,181,130,255,175,200,170,150,111,205],"times":[1243,898,21168],"next_num":3,"trial_type":"ticket-choose","trial_index":38,"time_elapsed":816490,"internal_node_id":"0.0-38.0"},{"result":125,"points":2,"place":1,"phase":0,"sequence":19,"prices":[156,175,125,245,170,190,165,140,101,196],"times":[2821,2174,1131],"next_num":3,"trial_type":"ticket-choose","trial_index":39,"time_elapsed":825816,"internal_node_id":"0.0-39.0"},{"result":121,"points":2,"place":1,"phase":0,"sequence":20,"prices":[150,170,160,240,166,185,121,136,95,191],"times":[1492,629,610,776,1451,898,1308],"next_num":7,"trial_type":"ticket-choose","trial_index":40,"time_elapsed":836315,"internal_node_id":"0.0-40.0"},{"result":106,"points":3,"place":0,"phase":0,"sequence":21,"prices":[180,106,166,245,211,261,215,125,135,190],"times":[2029,966],"next_num":2,"trial_type":"ticket-choose","trial_index":41,"time_elapsed":850122,"internal_node_id":"0.0-41.0"},{"result":120,"points":2,"place":1,"phase":0,"sequence":22,"prices":[150,170,160,241,166,186,120,136,96,191],"times":[1358,662,622,645,645,617,1211],"next_num":7,"trial_type":"ticket-choose","trial_index":42,"time_elapsed":859121,"internal_node_id":"0.0-42.0"},{"result":65,"points":2,"place":1,"phase":0,"sequence":23,"prices":[220,236,176,65,185,101,110,61,156,191],"times":[4729,2559,946,895],"next_num":4,"trial_type":"ticket-choose","trial_index":43,"time_elapsed":871155,"internal_node_id":"0.0-43.0"},{"result":81,"points":3,"place":0,"phase":0,"sequence":24,"prices":[155,245,155,81,180,130,156,306,166,115],"times":[1318,711,3666,884],"next_num":4,"trial_type":"ticket-choose","trial_index":44,"time_elapsed":880290,"internal_node_id":"0.0-44.0"},{"result":105,"points":3,"place":0,"phase":0,"sequence":25,"prices":[160,180,130,251,176,195,170,146,105,200],"times":[3193,977,1070,947,994,725,1005,2748,1014],"next_num":9,"trial_type":"ticket-choose","trial_index":45,"time_elapsed":896839,"internal_node_id":"0.0-45.0"},{"result":130,"points":2,"place":1,"phase":0,"sequence":26,"prices":[155,225,245,130,176,106,180,211,165,200],"times":[1115,1032,955,3055],"next_num":4,"trial_type":"ticket-choose","trial_index":46,"time_elapsed":910328,"internal_node_id":"0.0-46.0"},{"result":126,"points":2,"place":1,"phase":0,"sequence":27,"prices":[156,176,165,246,171,190,126,141,101,196],"times":[1155,728,800,766,796,723,955],"next_num":7,"trial_type":"ticket-choose","trial_index":47,"time_elapsed":919342,"internal_node_id":"0.0-47.0"},{"result":120,"points":2,"place":1,"phase":0,"sequence":28,"prices":[146,171,120,245,165,191,160,140,100,196],"times":[1082,980,1715],"next_num":3,"trial_type":"ticket-choose","trial_index":48,"time_elapsed":925532,"internal_node_id":"0.0-48.0"},{"result":121,"points":2,"place":1,"phase":0,"sequence":29,"prices":[146,170,121,245,166,190,161,141,100,195],"times":[2793,624,922],"next_num":3,"trial_type":"ticket-choose","trial_index":49,"time_elapsed":932249,"internal_node_id":"0.0-49.0"},{"result":111,"points":3,"place":0,"phase":0,"sequence":30,"prices":[111,231,131,146,171,295,141,241,271,150],"times":[1055],"next_num":1,"trial_type":"ticket-choose","trial_index":50,"time_elapsed":935306,"internal_node_id":"0.0-50.0"},{"result":131,"points":2,"place":1,"phase":0,"sequence":31,"prices":[156,181,171,256,175,200,131,150,110,206],"times":[919,6209,992,924,1240,717,1232],"next_num":7,"trial_type":"ticket-choose","trial_index":51,"time_elapsed":950741,"internal_node_id":"0.0-51.0"},{"result":185,"points":0,"place":5,"phase":0,"sequence":32,"prices":[181,156,145,165,236,231,201,260,150,185],"times":[869,1334,947,850,693,807,819,819,1582,850],"next_num":10,"trial_type":"ticket-choose","trial_index":52,"time_elapsed":964434,"internal_node_id":"0.0-52.0"},{"result":121,"points":2,"place":1,"phase":0,"sequence":33,"prices":[150,171,121,241,165,185,160,136,95,191],"times":[1233,960,1053],"next_num":3,"trial_type":"ticket-choose","trial_index":53,"time_elapsed":970044,"internal_node_id":"0.0-53.0"},{"result":111,"points":3,"place":0,"phase":0,"sequence":34,"prices":[156,181,131,256,176,200,171,151,111,206],"times":[1663,759,1446,620,664,806,635,949,1039],"next_num":9,"trial_type":"ticket-choose","trial_index":54,"time_elapsed":982257,"internal_node_id":"0.0-54.0"},{"result":126,"points":2,"place":1,"phase":0,"sequence":35,"prices":[150,175,166,251,170,196,126,145,105,201],"times":[2680,706,1080,1077,736,670,1074],"next_num":7,"trial_type":"ticket-choose","trial_index":55,"time_elapsed":993457,"internal_node_id":"0.0-55.0"},{"result":131,"points":2,"place":1,"phase":0,"sequence":36,"prices":[161,180,171,250,176,195,131,146,105,201],"times":[779,1384,1222,643,644,710,1753],"next_num":7,"trial_type":"ticket-choose","trial_index":56,"time_elapsed":1004335,"internal_node_id":"0.0-56.0"},{"result":95,"points":3,"place":0,"phase":0,"sequence":37,"prices":[95,205,106,151,186,271,145,210,215,181],"times":[1118],"next_num":1,"trial_type":"ticket-choose","trial_index":57,"time_elapsed":1007416,"internal_node_id":"0.0-57.0"},{"result":126,"points":2,"place":1,"phase":0,"sequence":38,"prices":[156,175,126,246,170,190,165,140,100,196],"times":[1109,648,2278],"next_num":3,"trial_type":"ticket-choose","trial_index":58,"time_elapsed":1013891,"internal_node_id":"0.0-58.0"},{"result":125,"points":2,"place":1,"phase":0,"sequence":39,"prices":[155,175,166,245,171,190,125,140,101,196],"times":[1188,603,571,580,705,638,910],"next_num":7,"trial_type":"ticket-choose","trial_index":59,"time_elapsed":1022354,"internal_node_id":"0.0-59.0"},{"result":136,"points":3,"place":0,"phase":0,"sequence":40,"prices":[246,145,155,191,176,270,185,136,160,215],"times":[781,656,586,732,570,608,780,1978],"next_num":8,"trial_type":"ticket-choose","trial_index":60,"time_elapsed":1032620,"internal_node_id":"0.0-60.0"},{"result":130,"points":2,"place":1,"phase":0,"sequence":41,"prices":[155,181,170,255,176,200,130,150,110,205],"times":[1126,644,594,613,675,993,1031],"next_num":7,"trial_type":"ticket-choose","trial_index":61,"time_elapsed":1041555,"internal_node_id":"0.0-61.0"},{"result":30,"points":3,"place":0,"phase":0,"sequence":42,"prices":[155,30,101,55,136,276,70,181,200,261],"times":[1357,975],"next_num":2,"trial_type":"ticket-choose","trial_index":62,"time_elapsed":1046223,"internal_node_id":"0.0-62.0"},{"result":51,"points":3,"place":0,"phase":0,"sequence":43,"prices":[221,175,51,196,146,130,166,80,126,156],"times":[9107,1103,1185],"next_num":3,"trial_type":"ticket-choose","trial_index":63,"time_elapsed":1060076,"internal_node_id":"0.0-63.0"},{"result":116,"points":3,"place":0,"phase":0,"sequence":44,"prices":[176,150,276,171,261,116,130,201,166,231],"times":[845,673,620,612,624,1186],"next_num":6,"trial_type":"ticket-choose","trial_index":64,"time_elapsed":1067865,"internal_node_id":"0.0-64.0"},{"result":126,"points":2,"place":1,"phase":0,"sequence":45,"prices":[151,176,126,251,170,196,165,145,105,201],"times":[1440,572,1050],"next_num":3,"trial_type":"ticket-choose","trial_index":65,"time_elapsed":1073474,"internal_node_id":"0.0-65.0"},{"result":120,"points":2,"place":1,"phase":0,"sequence":46,"prices":[186,156,191,120,195,145,45,130,246,176],"times":[1597,1002,840,1284],"next_num":4,"trial_type":"ticket-choose","trial_index":66,"time_elapsed":1080862,"internal_node_id":"0.0-66.0"},{"result":91,"points":3,"place":0,"phase":0,"sequence":47,"prices":[176,150,141,91,290,201,106,266,206,126],"times":[1782,764,1108,870],"next_num":4,"trial_type":"ticket-choose","trial_index":67,"time_elapsed":1105440,"internal_node_id":"0.0-67.0"},{"result":175,"points":1,"place":4,"phase":0,"sequence":48,"prices":[130,195,141,155,181,226,150,216,221,175],"times":[1245,795,683,970,712,772,889,925,1077,1096],"next_num":10,"trial_type":"ticket-choose","trial_index":68,"time_elapsed":1119814,"internal_node_id":"0.0-68.0"},{"result":111,"points":3,"place":0,"phase":0,"sequence":49,"prices":[175,211,266,286,111,216,220,245,230,165],"times":[2689,748,563,831,1093],"next_num":5,"trial_type":"ticket-choose","trial_index":69,"time_elapsed":1128900,"internal_node_id":"0.0-69.0"},{"responses":[{"value":1,"offby":0,"category":"$30 - $75","category_index":0},{"value":1,"offby":-1,"category":"$76 - $120","category_index":1},{"value":3,"offby":-1,"category":"$121 - $165","category_index":2},{"value":7,"offby":1,"category":"$166 - $210","category_index":3},{"value":6,"offby":0,"category":"$211 - $255","category_index":4},{"value":2,"offby":1,"category":"$256 - $300","category_index":5},{"value":0,"offby":0,"category":"$301 - $345","category_index":6}],"phase":0,"number":1,"trial_type":"bar-choose","trial_index":70,"time_elapsed":1182905,"internal_node_id":"0.0-70.0"},{"rt":7146,"url":"\/tickets\/utils\/start2.html","trial_type":"html","trial_index":71,"time_elapsed":1191177,"internal_node_id":"0.0-71.0"},{"trial_type":"number-animation","trial_index":72,"time_elapsed":1201618,"internal_node_id":"0.0-72.0"},{"phase":1,"sequence":0,"avg":180,"response":180,"trial_type":"training_avg","trial_index":73,"time_elapsed":1208436,"internal_node_id":"0.0-73.0"},{"trial_type":"number-animation","trial_index":74,"time_elapsed":1220326,"internal_node_id":"0.0-74.0"},{"phase":1,"sequence":1,"avg":178,"response":180,"trial_type":"training_avg","trial_index":75,"time_elapsed":1226152,"internal_node_id":"0.0-75.0"},{"trial_type":"number-animation","trial_index":76,"time_elapsed":1236886,"internal_node_id":"0.0-76.0"},{"phase":1,"sequence":2,"avg":176,"response":175,"trial_type":"training_avg","trial_index":77,"time_elapsed":1241679,"internal_node_id":"0.0-77.0"},{"trial_type":"number-animation","trial_index":78,"time_elapsed":1264117,"internal_node_id":"0.0-78.0"},{"phase":1,"sequence":3,"avg":178,"response":175,"trial_type":"training_avg","trial_index":79,"time_elapsed":1304961,"internal_node_id":"0.0-79.0"},{"trial_type":"number-animation","trial_index":80,"time_elapsed":1318170,"internal_node_id":"0.0-80.0"},{"phase":1,"sequence":4,"avg":179,"response":178,"trial_type":"training_avg","trial_index":81,"time_elapsed":1327994,"internal_node_id":"0.0-81.0"},{"responses":[{"value":0,"offby":0,"category":"$140 - $250","category_index":0},{"value":2,"offby":2,"category":"$151 - $160","category_index":1},{"value":5,"offby":1,"category":"$161 - $170","category_index":2},{"value":9,"offby":3,"category":"$171 - $180","category_index":3},{"value":4,"offby":-3,"category":"$181 - $190","category_index":4},{"value":0,"offby":-3,"category":"$191 - $200","category_index":5},{"value":0,"offby":0,"category":"$201 - $210","category_index":6}],"phase":1,"number":0,"trial_type":"bar-choose","trial_index":82,"time_elapsed":1358232,"internal_node_id":"0.0-82.0"},{"rt":28254,"url":"\/tickets\/utils\/testing2.html","trial_type":"html","trial_index":83,"time_elapsed":1387609,"internal_node_id":"0.0-83.0"},{"phase":1,"order":[3,31,30,27,8,26,39,22,17,24,13,7,32,36,34,23,38,28,11,1,20,41,21,43,42,9,49,5,18,19,29,15,47,16,10,6,12,25,0,4,48,14,44,35,40,2,37,45,33,46],"trial_type":"store_order","trial_index":84,"time_elapsed":1388611,"internal_node_id":"0.0-84.0"},{"result":169,"points":2,"place":1,"phase":1,"sequence":0,"prices":[174,179,177,194,178,183,169,173,165,184],"times":[1375,713,660,889,749,794,1193],"next_num":7,"trial_type":"ticket-choose","trial_index":85,"time_elapsed":1398506,"internal_node_id":"0.0-85.0"},{"result":170,"points":2,"place":1,"phase":1,"sequence":1,"prices":[175,180,170,195,179,184,178,174,166,185],"times":[953,617,1057],"next_num":3,"trial_type":"ticket-choose","trial_index":86,"time_elapsed":1403691,"internal_node_id":"0.0-86.0"},{"result":165,"points":2,"place":1,"phase":1,"sequence":2,"prices":[181,180,191,186,165,197,159,167,194,185],"times":[740,555,598,601,948],"next_num":5,"trial_type":"ticket-choose","trial_index":87,"time_elapsed":1409818,"internal_node_id":"0.0-87.0"},{"result":160,"points":3,"place":0,"phase":1,"sequence":3,"prices":[160,185,170,174,182,196,173,186,194,177],"times":[960],"next_num":1,"trial_type":"ticket-choose","trial_index":88,"time_elapsed":1412604,"internal_node_id":"0.0-88.0"},{"result":174,"points":2,"place":1,"phase":1,"sequence":4,"prices":[180,175,173,177,191,190,184,196,174,181],"times":[721,1440,876,642,586,749,610,844,1214],"next_num":9,"trial_type":"ticket-choose","trial_index":89,"time_elapsed":1423692,"internal_node_id":"0.0-89.0"},{"result":168,"points":2,"place":1,"phase":1,"sequence":5,"prices":[174,178,168,192,177,181,176,171,163,182],"times":[1128,622,1056],"next_num":3,"trial_type":"ticket-choose","trial_index":90,"time_elapsed":1428753,"internal_node_id":"0.0-90.0"},{"result":168,"points":2,"place":1,"phase":1,"sequence":6,"prices":[174,178,176,192,177,181,168,171,163,182],"times":[582,584,651,655,995,672,930],"next_num":7,"trial_type":"ticket-choose","trial_index":91,"time_elapsed":1437102,"internal_node_id":"0.0-91.0"},{"result":169,"points":2,"place":1,"phase":1,"sequence":7,"prices":[175,179,177,193,178,182,169,172,164,183],"times":[6127,12976,635,694,786,705,1003],"next_num":7,"trial_type":"ticket-choose","trial_index":92,"time_elapsed":1463207,"internal_node_id":"0.0-92.0"},{"result":170,"points":2,"place":1,"phase":1,"sequence":8,"prices":[176,180,170,194,179,183,178,173,165,184],"times":[1334,1134,1006],"next_num":3,"trial_type":"ticket-choose","trial_index":93,"time_elapsed":1468824,"internal_node_id":"0.0-93.0"},{"result":168,"points":2,"place":1,"phase":1,"sequence":9,"prices":[174,178,176,192,177,181,168,171,163,182],"times":[926,782,900,684,1208,862,1213],"next_num":7,"trial_type":"ticket-choose","trial_index":94,"time_elapsed":1478572,"internal_node_id":"0.0-94.0"},{"result":170,"points":2,"place":1,"phase":1,"sequence":10,"prices":[175,189,193,170,179,165,180,186,177,184],"times":[560,1358,716,1632],"next_num":4,"trial_type":"ticket-choose","trial_index":95,"time_elapsed":1485931,"internal_node_id":"0.0-95.0"},{"result":170,"points":2,"place":1,"phase":1,"sequence":11,"prices":[176,180,178,194,179,183,170,173,165,184],"times":[10213,1003,2197,813,858,1108,973],"next_num":7,"trial_type":"ticket-choose","trial_index":96,"time_elapsed":1506179,"internal_node_id":"0.0-96.0"},{"result":169,"points":2,"place":1,"phase":1,"sequence":12,"prices":[174,179,177,194,178,183,169,173,165,184],"times":[1075,1138,796,750,862,818,964],"next_num":7,"trial_type":"ticket-choose","trial_index":97,"time_elapsed":1515589,"internal_node_id":"0.0-97.0"},{"result":166,"points":3,"place":0,"phase":1,"sequence":13,"prices":[179,186,197,201,166,187,188,193,190,177],"times":[943,860,667,686,971],"next_num":5,"trial_type":"ticket-choose","trial_index":98,"time_elapsed":1523496,"internal_node_id":"0.0-98.0"},{"result":170,"points":2,"place":1,"phase":1,"sequence":14,"prices":[176,180,178,194,179,183,170,173,165,184],"times":[12971,718,628,911,747,730,1010],"next_num":7,"trial_type":"ticket-choose","trial_index":99,"time_elapsed":1544576,"internal_node_id":"0.0-99.0"},{"result":168,"points":2,"place":1,"phase":1,"sequence":15,"prices":[173,178,168,193,177,182,176,172,164,183],"times":[1042,690,1112],"next_num":3,"trial_type":"ticket-choose","trial_index":100,"time_elapsed":1549674,"internal_node_id":"0.0-100.0"},{"result":171,"points":3,"place":0,"phase":1,"sequence":16,"prices":[193,173,175,182,179,198,181,171,176,187],"times":[754,699,610,567,540,794,876,1809],"next_num":8,"trial_type":"ticket-choose","trial_index":101,"time_elapsed":1559825,"internal_node_id":"0.0-101.0"},{"result":169,"points":2,"place":1,"phase":1,"sequence":17,"prices":[174,179,169,194,178,183,177,173,165,184],"times":[1244,688,1002],"next_num":3,"trial_type":"ticket-choose","trial_index":102,"time_elapsed":1564988,"internal_node_id":"0.0-102.0"},{"result":169,"points":2,"place":1,"phase":1,"sequence":18,"prices":[175,179,177,193,178,182,169,172,164,183],"times":[1570,682,658,856,1004,901,859],"next_num":7,"trial_type":"ticket-choose","trial_index":103,"time_elapsed":1574610,"internal_node_id":"0.0-103.0"},{"result":175,"points":1,"place":4,"phase":1,"sequence":19,"prices":[171,180,172,174,179,188,173,183,186,175],"times":[1906,608,776,665,959,896,2148,638,928,884],"next_num":10,"trial_type":"ticket-choose","trial_index":104,"time_elapsed":1588977,"internal_node_id":"0.0-104.0"},{"result":162,"points":3,"place":0,"phase":1,"sequence":20,"prices":[179,174,172,162,202,184,165,197,185,169],"times":[2104,978,981,1068],"next_num":4,"trial_type":"ticket-choose","trial_index":105,"time_elapsed":1596686,"internal_node_id":"0.0-105.0"},{"result":169,"points":2,"place":1,"phase":1,"sequence":21,"prices":[174,179,169,194,178,183,177,173,165,184],"times":[7110,798,1107],"next_num":3,"trial_type":"ticket-choose","trial_index":106,"time_elapsed":1607896,"internal_node_id":"0.0-106.0"},{"result":169,"points":2,"place":1,"phase":1,"sequence":22,"prices":[175,179,169,193,178,182,177,172,164,183],"times":[970,587,878],"next_num":3,"trial_type":"ticket-choose","trial_index":107,"time_elapsed":1612547,"internal_node_id":"0.0-107.0"},{"result":168,"points":3,"place":0,"phase":1,"sequence":23,"prices":[168,188,171,181,184,196,180,194,195,183],"times":[1360],"next_num":1,"trial_type":"ticket-choose","trial_index":108,"time_elapsed":1615811,"internal_node_id":"0.0-108.0"},{"result":170,"points":3,"place":0,"phase":1,"sequence":24,"prices":[181,179,199,188,170,172,178,187,191,177],"times":[826,769,684,862,1889],"next_num":5,"trial_type":"ticket-choose","trial_index":109,"time_elapsed":1623531,"internal_node_id":"0.0-109.0"},{"result":165,"points":3,"place":0,"phase":1,"sequence":25,"prices":[165,187,173,177,186,196,176,191,192,181],"times":[974],"next_num":1,"trial_type":"ticket-choose","trial_index":110,"time_elapsed":1626318,"internal_node_id":"0.0-110.0"},{"result":171,"points":1,"place":2,"phase":1,"sequence":26,"prices":[195,177,197,179,171,173,175,156,163,204],"times":[816,1350,749,1009,1786],"next_num":5,"trial_type":"ticket-choose","trial_index":111,"time_elapsed":1634818,"internal_node_id":"0.0-111.0"},{"result":170,"points":2,"place":1,"phase":1,"sequence":27,"prices":[175,180,170,195,179,184,178,174,166,185],"times":[3848,654,1057],"next_num":3,"trial_type":"ticket-choose","trial_index":112,"time_elapsed":1642927,"internal_node_id":"0.0-112.0"},{"result":163,"points":3,"place":0,"phase":1,"sequence":28,"prices":[163,185,165,174,181,198,173,186,187,180],"times":[1047],"next_num":1,"trial_type":"ticket-choose","trial_index":113,"time_elapsed":1645956,"internal_node_id":"0.0-113.0"},{"result":150,"points":3,"place":0,"phase":1,"sequence":29,"prices":[175,150,164,155,171,199,158,180,184,196],"times":[1526,1041],"next_num":2,"trial_type":"ticket-choose","trial_index":114,"time_elapsed":1650607,"internal_node_id":"0.0-114.0"},{"result":167,"points":3,"place":0,"phase":1,"sequence":30,"prices":[179,174,199,178,196,167,170,184,177,190],"times":[813,618,680,829,732,1118],"next_num":6,"trial_type":"ticket-choose","trial_index":115,"time_elapsed":1658332,"internal_node_id":"0.0-115.0"},{"result":154,"points":3,"place":0,"phase":1,"sequence":31,"prices":[188,179,154,183,173,170,177,160,169,175],"times":[8437,795,1099],"next_num":3,"trial_type":"ticket-choose","trial_index":116,"time_elapsed":1671126,"internal_node_id":"0.0-116.0"},{"result":168,"points":2,"place":1,"phase":1,"sequence":32,"prices":[174,178,168,192,177,181,176,171,163,182],"times":[864,861,1432],"next_num":3,"trial_type":"ticket-choose","trial_index":117,"time_elapsed":1676495,"internal_node_id":"0.0-117.0"},{"result":170,"points":2,"place":1,"phase":1,"sequence":33,"prices":[175,180,178,195,179,184,170,174,166,185],"times":[4572,4519,1378,706,831,635,996],"next_num":7,"trial_type":"ticket-choose","trial_index":118,"time_elapsed":1693317,"internal_node_id":"0.0-118.0"},{"result":168,"points":2,"place":1,"phase":1,"sequence":34,"prices":[173,178,168,193,177,182,176,172,164,183],"times":[1421,636,1032],"next_num":3,"trial_type":"ticket-choose","trial_index":119,"time_elapsed":1698658,"internal_node_id":"0.0-119.0"},{"result":160,"points":3,"place":0,"phase":1,"sequence":35,"prices":[175,193,175,160,180,170,175,205,177,167],"times":[10653,694,934,1118],"next_num":4,"trial_type":"ticket-choose","trial_index":120,"time_elapsed":1714599,"internal_node_id":"0.0-120.0"},{"result":169,"points":1,"place":2,"phase":1,"sequence":36,"prices":[189,185,169,168,167,171,180,173,174,188],"times":[1967,699,1248],"next_num":3,"trial_type":"ticket-choose","trial_index":121,"time_elapsed":1720837,"internal_node_id":"0.0-121.0"},{"result":170,"points":2,"place":1,"phase":1,"sequence":37,"prices":[176,180,170,194,179,183,178,173,165,184],"times":[663,636,1164],"next_num":3,"trial_type":"ticket-choose","trial_index":122,"time_elapsed":1725578,"internal_node_id":"0.0-122.0"},{"result":168,"points":2,"place":1,"phase":1,"sequence":38,"prices":[173,178,176,193,177,182,168,172,164,183],"times":[1108,627,615,643,857,820,984],"next_num":7,"trial_type":"ticket-choose","trial_index":123,"time_elapsed":1734508,"internal_node_id":"0.0-123.0"},{"result":159,"points":3,"place":0,"phase":1,"sequence":39,"prices":[159,178,170,174,176,194,173,182,185,175],"times":[8210],"next_num":1,"trial_type":"ticket-choose","trial_index":124,"time_elapsed":1744889,"internal_node_id":"0.0-124.0"},{"result":157,"points":3,"place":0,"phase":1,"sequence":40,"prices":[157,184,163,174,181,190,168,187,189,177],"times":[1175],"next_num":1,"trial_type":"ticket-choose","trial_index":125,"time_elapsed":1747923,"internal_node_id":"0.0-125.0"},{"result":165,"points":3,"place":0,"phase":1,"sequence":41,"prices":[180,165,177,193,186,196,187,169,171,182],"times":[906,899],"next_num":2,"trial_type":"ticket-choose","trial_index":126,"time_elapsed":1751694,"internal_node_id":"0.0-126.0"},{"result":166,"points":3,"place":0,"phase":1,"sequence":42,"prices":[166,190,170,173,178,203,172,192,198,174],"times":[1128],"next_num":1,"trial_type":"ticket-choose","trial_index":127,"time_elapsed":1754553,"internal_node_id":"0.0-127.0"},{"result":170,"points":2,"place":1,"phase":1,"sequence":43,"prices":[175,180,178,195,179,184,170,174,166,185],"times":[1521,656,618,603,680,618,1338],"next_num":7,"trial_type":"ticket-choose","trial_index":128,"time_elapsed":1763686,"internal_node_id":"0.0-128.0"},{"result":161,"points":3,"place":0,"phase":1,"sequence":44,"prices":[161,180,170,174,178,198,173,182,188,176],"times":[996],"next_num":1,"trial_type":"ticket-choose","trial_index":129,"time_elapsed":1766423,"internal_node_id":"0.0-129.0"},{"result":170,"points":3,"place":0,"phase":1,"sequence":45,"prices":[170,183,172,175,180,189,174,187,188,179],"times":[2205],"next_num":1,"trial_type":"ticket-choose","trial_index":130,"time_elapsed":1770485,"internal_node_id":"0.0-130.0"},{"result":157,"points":2,"place":1,"phase":1,"sequence":46,"prices":[188,191,179,157,181,164,166,156,175,182],"times":[966,579,668,963],"next_num":4,"trial_type":"ticket-choose","trial_index":131,"time_elapsed":1776297,"internal_node_id":"0.0-131.0"},{"result":168,"points":2,"place":1,"phase":1,"sequence":47,"prices":[181,175,182,168,183,173,153,170,193,179],"times":[3266,736,573,877],"next_num":4,"trial_type":"ticket-choose","trial_index":132,"time_elapsed":1784423,"internal_node_id":"0.0-132.0"},{"result":168,"points":2,"place":1,"phase":1,"sequence":48,"prices":[173,178,176,193,177,182,168,172,164,183],"times":[2695,640,749,709,2060,1092,929],"next_num":7,"trial_type":"ticket-choose","trial_index":133,"time_elapsed":1796316,"internal_node_id":"0.0-133.0"},{"result":169,"points":2,"place":1,"phase":1,"sequence":49,"prices":[175,179,169,193,178,182,177,172,164,183],"times":[1234,1206,993],"next_num":3,"trial_type":"ticket-choose","trial_index":134,"time_elapsed":1801984,"internal_node_id":"0.0-134.0"},{"responses":[{"value":0,"offby":0,"category":"$140 - $250","category_index":0},{"value":2,"offby":2,"category":"$151 - $160","category_index":1},{"value":3,"offby":-1,"category":"$161 - $170","category_index":2},{"value":7,"offby":1,"category":"$171 - $180","category_index":3},{"value":5,"offby":-2,"category":"$181 - $190","category_index":4},{"value":3,"offby":0,"category":"$191 - $200","category_index":5},{"value":0,"offby":0,"category":"$201 - $210","category_index":6}],"phase":1,"number":1,"trial_type":"bar-choose","trial_index":135,"time_elapsed":1824367,"internal_node_id":"0.0-135.0"},{"special_comment":"no","trial_type":"special_sequence","trial_index":136,"time_elapsed":1833756,"internal_node_id":"0.0-136.0"},{"during":"Watching TV","bonus":304,"trial_type":"final","trial_index":137,"time_elapsed":1876735,"internal_node_id":"0.0-137.0"}],"bonus":304}