{"start_time":"2017-02-22 09:58:34","end_time":"2017-02-22 10:16:55","points_phase0":56,"points_phase1":99,"phase_order":0,"age":62,"gender":"f","tries":1,"during":"Nothing","worker_id":"A3LECJA9RVQQKZ","assignment_id":"3YGXWBAF71AU1YNPXHTD5T867Y24CB","data":[{"rt":46575,"url":"\/tickets\/utils\/consent.html","trial_type":"html","trial_index":0,"time_elapsed":46743,"internal_node_id":"0.0-0.0"},{"age":62,"gender":"f","trial_type":"age","trial_index":1,"time_elapsed":54759,"internal_node_id":"0.0-1.0"},{"worker_id":"A3LECJA9RVQQKZ","trial_type":"workerid","trial_index":2,"time_elapsed":64990,"internal_node_id":"0.0-2.0"},{"tries":1,"trial_type":"instructions_check","trial_index":3,"time_elapsed":103350,"internal_node_id":"0.0-3.0"},{"rt":16145,"url":"\/tickets\/utils\/start.html","trial_type":"html","trial_index":4,"time_elapsed":120594,"internal_node_id":"0.0-4.0"},{"trial_type":"number-animation","trial_index":5,"time_elapsed":139989,"internal_node_id":"0.0-5.0"},{"phase":0,"sequence":0,"avg":181,"response":190,"trial_type":"training_avg","trial_index":6,"time_elapsed":155526,"internal_node_id":"0.0-6.0"},{"trial_type":"number-animation","trial_index":7,"time_elapsed":168446,"internal_node_id":"0.0-7.0"},{"phase":0,"sequence":1,"avg":188,"response":191,"trial_type":"training_avg","trial_index":8,"time_elapsed":177726,"internal_node_id":"0.0-8.0"},{"trial_type":"number-animation","trial_index":9,"time_elapsed":189134,"internal_node_id":"0.0-9.0"},{"phase":0,"sequence":2,"avg":188,"response":186,"trial_type":"training_avg","trial_index":10,"time_elapsed":198174,"internal_node_id":"0.0-10.0"},{"trial_type":"number-animation","trial_index":11,"time_elapsed":209590,"internal_node_id":"0.0-11.0"},{"phase":0,"sequence":3,"avg":177,"response":181,"trial_type":"training_avg","trial_index":12,"time_elapsed":217917,"internal_node_id":"0.0-12.0"},{"trial_type":"number-animation","trial_index":13,"time_elapsed":237677,"internal_node_id":"0.0-13.0"},{"phase":0,"sequence":4,"avg":182,"response":168,"trial_type":"training_avg","trial_index":14,"time_elapsed":256973,"internal_node_id":"0.0-14.0"},{"responses":[{"value":0,"offby":0,"category":"$106 - $134","category_index":0},{"value":1,"offby":0,"category":"$135 - $150","category_index":1},{"value":1,"offby":-2,"category":"$151 - $165","category_index":2},{"value":1,"offby":-5,"category":"$166 - $180","category_index":3},{"value":7,"offby":1,"category":"$181 - $195","category_index":4},{"value":8,"offby":5,"category":"$196 - $210","category_index":5},{"value":2,"offby":1,"category":"$211 - $225","category_index":6}],"phase":0,"number":0,"trial_type":"bar-choose","trial_index":15,"time_elapsed":329823,"internal_node_id":"0.0-15.0"},{"rt":23801,"url":"\/tickets\/\/utils\/testing.html","trial_type":"html","trial_index":16,"time_elapsed":354726,"internal_node_id":"0.0-16.0"},{"phase":0,"order":[13,24,9,30,7,3,20,45,1,5,49,25,16,28,2,38,23,22,0,39,21,17,14,32,35,37,31,6,43,44,41,47,27,26,29,46,19,34,42,4,40,33,36,11,18,15,10,8,48,12],"trial_type":"store_order","trial_index":17,"time_elapsed":355727,"internal_node_id":"0.0-17.0"},{"result":184,"points":1,"place":4,"phase":0,"sequence":-1,"prices":[184,180,224,165,181,199,185,193,218,126],"times":[8545],"next_num":1,"trial_type":"ticket-choose","trial_index":18,"time_elapsed":367437,"internal_node_id":"0.0-18.0"},{"rt":25745,"url":"\/tickets\/utils\/testing_after.html","trial_type":"html","trial_index":19,"time_elapsed":394286,"internal_node_id":"0.0-19.0"},{"result":175,"points":1,"place":3,"phase":0,"sequence":0,"prices":[175,185,178,215,181,186,167,168,208,156],"times":[9807],"next_num":1,"trial_type":"ticket-choose","trial_index":20,"time_elapsed":407732,"internal_node_id":"0.0-20.0"},{"result":161,"points":3,"place":0,"phase":0,"sequence":1,"prices":[161,193,175,181,185,224,180,199,218,184],"times":[1490],"next_num":1,"trial_type":"ticket-choose","trial_index":21,"time_elapsed":411948,"internal_node_id":"0.0-21.0"},{"result":175,"points":1,"place":3,"phase":0,"sequence":2,"prices":[175,185,167,224,181,186,178,168,208,156],"times":[2314],"next_num":1,"trial_type":"ticket-choose","trial_index":22,"time_elapsed":416924,"internal_node_id":"0.0-22.0"},{"result":157,"points":3,"place":0,"phase":0,"sequence":3,"prices":[157,191,165,175,182,203,170,195,200,176],"times":[1544],"next_num":1,"trial_type":"ticket-choose","trial_index":23,"time_elapsed":421236,"internal_node_id":"0.0-23.0"},{"result":175,"points":1,"place":3,"phase":0,"sequence":4,"prices":[175,186,176,224,179,187,163,165,153,210],"times":[1626],"next_num":1,"trial_type":"ticket-choose","trial_index":24,"time_elapsed":425316,"internal_node_id":"0.0-24.0"},{"result":175,"points":1,"place":3,"phase":0,"sequence":5,"prices":[175,186,163,211,179,187,176,165,153,210],"times":[1682],"next_num":1,"trial_type":"ticket-choose","trial_index":25,"time_elapsed":429612,"internal_node_id":"0.0-25.0"},{"result":175,"points":1,"place":3,"phase":0,"sequence":6,"prices":[175,186,177,221,180,187,158,166,209,153],"times":[1570],"next_num":1,"trial_type":"ticket-choose","trial_index":26,"time_elapsed":433828,"internal_node_id":"0.0-26.0"},{"result":212,"points":0,"place":9,"phase":0,"sequence":7,"prices":[212,192,188,184,167,193,189,164,176,170],"times":[1706],"next_num":1,"trial_type":"ticket-choose","trial_index":27,"time_elapsed":438580,"internal_node_id":"0.0-27.0"},{"result":175,"points":1,"place":3,"phase":0,"sequence":8,"prices":[175,187,163,209,180,188,176,165,154,208],"times":[1314],"next_num":1,"trial_type":"ticket-choose","trial_index":28,"time_elapsed":442300,"internal_node_id":"0.0-28.0"},{"result":175,"points":1,"place":3,"phase":0,"sequence":9,"prices":[175,187,176,209,180,188,163,165,154,208],"times":[1074],"next_num":1,"trial_type":"ticket-choose","trial_index":29,"time_elapsed":445684,"internal_node_id":"0.0-29.0"},{"result":183,"points":0,"place":6,"phase":0,"sequence":10,"prices":[183,163,185,180,166,148,160,186,176,184],"times":[1418],"next_num":1,"trial_type":"ticket-choose","trial_index":30,"time_elapsed":448932,"internal_node_id":"0.0-30.0"},{"result":156,"points":3,"place":0,"phase":0,"sequence":11,"prices":[156,201,162,166,185,214,165,202,204,179],"times":[801],"next_num":1,"trial_type":"ticket-choose","trial_index":31,"time_elapsed":451588,"internal_node_id":"0.0-31.0"},{"result":175,"points":1,"place":3,"phase":0,"sequence":12,"prices":[175,186,158,211,180,187,177,166,209,153],"times":[658],"next_num":1,"trial_type":"ticket-choose","trial_index":32,"time_elapsed":454283,"internal_node_id":"0.0-32.0"},{"result":169,"points":3,"place":0,"phase":0,"sequence":13,"prices":[169,196,170,184,187,211,171,201,202,185],"times":[779],"next_num":1,"trial_type":"ticket-choose","trial_index":33,"time_elapsed":456884,"internal_node_id":"0.0-33.0"},{"result":174,"points":1,"place":3,"phase":0,"sequence":14,"prices":[174,186,163,212,181,187,176,166,153,209],"times":[706],"next_num":1,"trial_type":"ticket-choose","trial_index":34,"time_elapsed":459372,"internal_node_id":"0.0-34.0"},{"result":168,"points":1,"place":2,"phase":0,"sequence":15,"prices":[168,199,196,198,185,195,227,163,177,166],"times":[577],"next_num":1,"trial_type":"ticket-choose","trial_index":35,"time_elapsed":461932,"internal_node_id":"0.0-35.0"},{"result":176,"points":1,"place":3,"phase":0,"sequence":16,"prices":[176,185,177,218,180,186,158,166,209,154],"times":[755],"next_num":1,"trial_type":"ticket-choose","trial_index":36,"time_elapsed":464644,"internal_node_id":"0.0-36.0"},{"result":176,"points":1,"place":3,"phase":0,"sequence":17,"prices":[176,187,177,225,181,187,158,165,208,153],"times":[764],"next_num":1,"trial_type":"ticket-choose","trial_index":37,"time_elapsed":467348,"internal_node_id":"0.0-37.0"},{"result":176,"points":1,"place":3,"phase":0,"sequence":18,"prices":[176,186,163,214,179,187,176,166,153,208],"times":[890],"next_num":1,"trial_type":"ticket-choose","trial_index":38,"time_elapsed":470092,"internal_node_id":"0.0-38.0"},{"result":189,"points":0,"place":7,"phase":0,"sequence":19,"prices":[189,167,180,197,165,168,172,213,178,171],"times":[858],"next_num":1,"trial_type":"ticket-choose","trial_index":39,"time_elapsed":472732,"internal_node_id":"0.0-39.0"},{"result":175,"points":1,"place":3,"phase":0,"sequence":20,"prices":[175,186,177,209,181,188,158,167,208,154],"times":[1073],"next_num":1,"trial_type":"ticket-choose","trial_index":40,"time_elapsed":475692,"internal_node_id":"0.0-40.0"},{"result":175,"points":1,"place":3,"phase":0,"sequence":21,"prices":[175,186,158,209,181,188,177,167,208,154],"times":[986],"next_num":1,"trial_type":"ticket-choose","trial_index":41,"time_elapsed":478436,"internal_node_id":"0.0-41.0"},{"result":175,"points":1,"place":3,"phase":0,"sequence":22,"prices":[175,186,178,212,179,187,167,169,209,153],"times":[594],"next_num":1,"trial_type":"ticket-choose","trial_index":42,"time_elapsed":480660,"internal_node_id":"0.0-42.0"},{"result":161,"points":3,"place":0,"phase":0,"sequence":23,"prices":[161,193,167,187,190,224,174,194,195,188],"times":[530],"next_num":1,"trial_type":"ticket-choose","trial_index":43,"time_elapsed":483172,"internal_node_id":"0.0-43.0"},{"result":168,"points":1,"place":2,"phase":0,"sequence":24,"prices":[168,154,172,185,195,144,184,211,177,227],"times":[707],"next_num":1,"trial_type":"ticket-choose","trial_index":44,"time_elapsed":485611,"internal_node_id":"0.0-44.0"},{"result":198,"points":0,"place":8,"phase":0,"sequence":25,"prices":[198,193,169,163,202,182,152,164,177,171],"times":[761],"next_num":1,"trial_type":"ticket-choose","trial_index":45,"time_elapsed":488260,"internal_node_id":"0.0-45.0"},{"result":148,"points":3,"place":0,"phase":0,"sequence":26,"prices":[148,171,150,163,167,220,162,186,187,165],"times":[1130],"next_num":1,"trial_type":"ticket-choose","trial_index":46,"time_elapsed":491444,"internal_node_id":"0.0-46.0"},{"result":174,"points":1,"place":3,"phase":0,"sequence":27,"prices":[174,186,176,217,181,187,163,166,153,209],"times":[1170],"next_num":1,"trial_type":"ticket-choose","trial_index":47,"time_elapsed":494652,"internal_node_id":"0.0-47.0"},{"result":201,"points":0,"place":9,"phase":0,"sequence":28,"prices":[201,187,157,184,198,179,188,185,178,170],"times":[636],"next_num":1,"trial_type":"ticket-choose","trial_index":48,"time_elapsed":497172,"internal_node_id":"0.0-48.0"},{"result":180,"points":0,"place":7,"phase":0,"sequence":29,"prices":[180,159,149,175,185,141,163,174,178,207],"times":[690],"next_num":1,"trial_type":"ticket-choose","trial_index":49,"time_elapsed":499564,"internal_node_id":"0.0-49.0"},{"result":201,"points":0,"place":8,"phase":0,"sequence":30,"prices":[201,207,155,158,156,165,167,135,178,177],"times":[746],"next_num":1,"trial_type":"ticket-choose","trial_index":50,"time_elapsed":502028,"internal_node_id":"0.0-50.0"},{"result":200,"points":0,"place":8,"phase":0,"sequence":31,"prices":[200,181,203,152,175,171,160,154,176,191],"times":[713],"next_num":1,"trial_type":"ticket-choose","trial_index":51,"time_elapsed":504500,"internal_node_id":"0.0-51.0"},{"result":168,"points":3,"place":0,"phase":0,"sequence":32,"prices":[168,192,171,178,188,217,172,195,197,186],"times":[786],"next_num":1,"trial_type":"ticket-choose","trial_index":52,"time_elapsed":507099,"internal_node_id":"0.0-52.0"},{"result":152,"points":3,"place":0,"phase":0,"sequence":33,"prices":[152,200,158,173,182,207,161,202,204,180],"times":[907],"next_num":1,"trial_type":"ticket-choose","trial_index":53,"time_elapsed":510060,"internal_node_id":"0.0-53.0"},{"result":150,"points":3,"place":0,"phase":0,"sequence":34,"prices":[150,185,154,161,173,199,155,188,191,168],"times":[546],"next_num":1,"trial_type":"ticket-choose","trial_index":54,"time_elapsed":512556,"internal_node_id":"0.0-54.0"},{"result":210,"points":0,"place":7,"phase":0,"sequence":35,"prices":[210,184,226,193,215,158,199,175,176,208],"times":[1391],"next_num":1,"trial_type":"ticket-choose","trial_index":55,"time_elapsed":515900,"internal_node_id":"0.0-55.0"},{"result":176,"points":1,"place":3,"phase":0,"sequence":36,"prices":[176,185,158,217,180,186,177,166,209,154],"times":[667],"next_num":1,"trial_type":"ticket-choose","trial_index":56,"time_elapsed":518412,"internal_node_id":"0.0-56.0"},{"result":181,"points":0,"place":6,"phase":0,"sequence":37,"prices":[181,155,148,161,168,187,172,199,176,194],"times":[802],"next_num":1,"trial_type":"ticket-choose","trial_index":57,"time_elapsed":521181,"internal_node_id":"0.0-57.0"},{"result":222,"points":0,"place":9,"phase":0,"sequence":38,"prices":[222,173,202,197,143,205,198,183,178,186],"times":[522],"next_num":1,"trial_type":"ticket-choose","trial_index":58,"time_elapsed":523419,"internal_node_id":"0.0-58.0"},{"result":176,"points":1,"place":3,"phase":0,"sequence":39,"prices":[176,186,176,210,179,187,163,166,153,208],"times":[731],"next_num":1,"trial_type":"ticket-choose","trial_index":59,"time_elapsed":525941,"internal_node_id":"0.0-59.0"},{"result":189,"points":0,"place":6,"phase":0,"sequence":40,"prices":[189,150,175,160,188,207,158,194,178,199],"times":[667],"next_num":1,"trial_type":"ticket-choose","trial_index":60,"time_elapsed":528492,"internal_node_id":"0.0-60.0"},{"result":159,"points":3,"place":0,"phase":0,"sequence":41,"prices":[159,183,166,168,173,205,167,187,191,170],"times":[1485],"next_num":1,"trial_type":"ticket-choose","trial_index":61,"time_elapsed":531780,"internal_node_id":"0.0-61.0"},{"result":188,"points":0,"place":7,"phase":0,"sequence":42,"prices":[188,200,165,172,198,174,177,154,177,180],"times":[731],"next_num":1,"trial_type":"ticket-choose","trial_index":62,"time_elapsed":534389,"internal_node_id":"0.0-62.0"},{"result":175,"points":1,"place":3,"phase":0,"sequence":43,"prices":[175,187,167,212,179,187,178,169,208,153],"times":[1114],"next_num":1,"trial_type":"ticket-choose","trial_index":63,"time_elapsed":537532,"internal_node_id":"0.0-63.0"},{"result":176,"points":1,"place":3,"phase":0,"sequence":44,"prices":[176,187,158,210,181,187,177,165,208,153],"times":[850],"next_num":1,"trial_type":"ticket-choose","trial_index":64,"time_elapsed":540101,"internal_node_id":"0.0-64.0"},{"result":175,"points":1,"place":3,"phase":0,"sequence":45,"prices":[175,187,178,209,179,187,167,169,208,153],"times":[513],"next_num":1,"trial_type":"ticket-choose","trial_index":65,"time_elapsed":542653,"internal_node_id":"0.0-65.0"},{"result":175,"points":1,"place":3,"phase":0,"sequence":46,"prices":[175,186,167,225,179,187,178,169,209,153],"times":[521],"next_num":1,"trial_type":"ticket-choose","trial_index":66,"time_elapsed":545028,"internal_node_id":"0.0-66.0"},{"result":174,"points":1,"place":3,"phase":0,"sequence":47,"prices":[174,186,167,211,181,188,178,168,208,156],"times":[706],"next_num":1,"trial_type":"ticket-choose","trial_index":67,"time_elapsed":547638,"internal_node_id":"0.0-67.0"},{"result":181,"points":0,"place":5,"phase":0,"sequence":48,"prices":[181,215,169,147,182,193,177,184,176,179],"times":[864],"next_num":1,"trial_type":"ticket-choose","trial_index":68,"time_elapsed":550389,"internal_node_id":"0.0-68.0"},{"result":174,"points":1,"place":3,"phase":0,"sequence":49,"prices":[174,186,178,217,181,188,167,168,208,156],"times":[857],"next_num":1,"trial_type":"ticket-choose","trial_index":69,"time_elapsed":553205,"internal_node_id":"0.0-69.0"},{"responses":[{"value":0,"offby":0,"category":"$106 - $134","category_index":0},{"value":1,"offby":0,"category":"$135 - $150","category_index":1},{"value":3,"offby":0,"category":"$151 - $165","category_index":2},{"value":5,"offby":-1,"category":"$166 - $180","category_index":3},{"value":6,"offby":0,"category":"$181 - $195","category_index":4},{"value":3,"offby":0,"category":"$196 - $210","category_index":5},{"value":2,"offby":1,"category":"$211 - $225","category_index":6}],"phase":0,"number":1,"trial_type":"bar-choose","trial_index":70,"time_elapsed":588278,"internal_node_id":"0.0-70.0"},{"rt":4724,"url":"\/tickets\/utils\/start2.html","trial_type":"html","trial_index":71,"time_elapsed":594109,"internal_node_id":"0.0-71.0"},{"trial_type":"number-animation","trial_index":72,"time_elapsed":609471,"internal_node_id":"0.0-72.0"},{"phase":1,"sequence":0,"avg":182,"response":190,"trial_type":"training_avg","trial_index":73,"time_elapsed":618965,"internal_node_id":"0.0-73.0"},{"trial_type":"number-animation","trial_index":74,"time_elapsed":627396,"internal_node_id":"0.0-74.0"},{"phase":1,"sequence":1,"avg":188,"response":186,"trial_type":"training_avg","trial_index":75,"time_elapsed":636132,"internal_node_id":"0.0-75.0"},{"trial_type":"number-animation","trial_index":76,"time_elapsed":644275,"internal_node_id":"0.0-76.0"},{"phase":1,"sequence":2,"avg":176,"response":184,"trial_type":"training_avg","trial_index":77,"time_elapsed":654123,"internal_node_id":"0.0-77.0"},{"trial_type":"number-animation","trial_index":78,"time_elapsed":662067,"internal_node_id":"0.0-78.0"},{"phase":1,"sequence":3,"avg":180,"response":168,"trial_type":"training_avg","trial_index":79,"time_elapsed":670707,"internal_node_id":"0.0-79.0"},{"trial_type":"number-animation","trial_index":80,"time_elapsed":677785,"internal_node_id":"0.0-80.0"},{"phase":1,"sequence":4,"avg":174,"response":185,"trial_type":"training_avg","trial_index":81,"time_elapsed":688444,"internal_node_id":"0.0-81.0"},{"responses":[{"value":0,"offby":-1,"category":"$90 - $120","category_index":0},{"value":3,"offby":0,"category":"$121 - $145","category_index":1},{"value":3,"offby":0,"category":"$146 - $170","category_index":2},{"value":5,"offby":-1,"category":"$171 - $195","category_index":3},{"value":6,"offby":2,"category":"$196 - $220","category_index":4},{"value":2,"offby":0,"category":"$221 - $245","category_index":5},{"value":1,"offby":0,"category":"$246 - $270","category_index":6}],"phase":1,"number":0,"trial_type":"bar-choose","trial_index":82,"time_elapsed":719109,"internal_node_id":"0.0-82.0"},{"rt":12601,"url":"\/tickets\/utils\/testing2.html","trial_type":"html","trial_index":83,"time_elapsed":732812,"internal_node_id":"0.0-83.0"},{"phase":1,"order":[25,45,5,29,41,12,46,19,47,48,33,7,9,17,34,2,40,3,4,6,35,32,15,24,11,38,31,1,8,20,16,21,22,0,30,37,44,18,43,28,10,36,39,49,27,23,42,13,14,26],"trial_type":"store_order","trial_index":84,"time_elapsed":733814,"internal_node_id":"0.0-84.0"},{"result":132,"points":3,"place":0,"phase":1,"sequence":0,"prices":[132,222,144,153,190,248,151,224,228,179],"times":[1977],"next_num":1,"trial_type":"ticket-choose","trial_index":85,"time_elapsed":739268,"internal_node_id":"0.0-85.0"},{"result":154,"points":2,"place":1,"phase":1,"sequence":1,"prices":[244,203,196,189,154,206,197,149,171,159],"times":[2289,806,854,670,1199],"next_num":5,"trial_type":"ticket-choose","trial_index":86,"time_elapsed":748492,"internal_node_id":"0.0-86.0"},{"result":150,"points":1,"place":2,"phase":1,"sequence":2,"prices":[171,195,172,242,179,196,146,150,128,235],"times":[1297,655,622,663,695,635,535,1711],"next_num":8,"trial_type":"ticket-choose","trial_index":87,"time_elapsed":758924,"internal_node_id":"0.0-87.0"},{"result":121,"points":3,"place":0,"phase":1,"sequence":3,"prices":[121,191,128,141,166,217,129,196,202,157],"times":[1258],"next_num":1,"trial_type":"ticket-choose","trial_index":88,"time_elapsed":762347,"internal_node_id":"0.0-88.0"},{"result":136,"points":1,"place":3,"phase":1,"sequence":4,"prices":[221,234,131,136,132,149,154,90,176,173],"times":[1347,654,559,1671],"next_num":4,"trial_type":"ticket-choose","trial_index":89,"time_elapsed":769459,"internal_node_id":"0.0-89.0"},{"result":168,"points":1,"place":3,"phase":1,"sequence":5,"prices":[168,192,176,242,183,197,154,156,237,132],"times":[2932],"next_num":1,"trial_type":"ticket-choose","trial_index":90,"time_elapsed":774587,"internal_node_id":"0.0-90.0"},{"result":136,"points":3,"place":0,"phase":1,"sequence":6,"prices":[240,188,273,207,250,136,217,170,171,236],"times":[1053,868,687,590,647,1119],"next_num":6,"trial_type":"ticket-choose","trial_index":91,"time_elapsed":782707,"internal_node_id":"0.0-91.0"},{"result":129,"points":3,"place":0,"phase":1,"sequence":7,"prices":[172,190,136,270,179,192,174,152,237,129],"times":[1320,430,439,1781,599,654,663,639,663,550],"next_num":11,"trial_type":"ticket-choose","trial_index":92,"time_elapsed":796563,"internal_node_id":"0.0-92.0"},{"result":201,"points":0,"place":7,"phase":1,"sequence":8,"prices":[219,183,227,124,176,161,140,129,171,201],"times":[1777,502,471,382,390,359,287,246,319,367],"next_num":11,"trial_type":"ticket-choose","trial_index":93,"time_elapsed":806499,"internal_node_id":"0.0-93.0"},{"result":159,"points":2,"place":1,"phase":1,"sequence":9,"prices":[182,249,159,114,184,205,175,189,172,178],"times":[1466,687,1351],"next_num":3,"trial_type":"ticket-choose","trial_index":94,"time_elapsed":812306,"internal_node_id":"0.0-94.0"},{"result":137,"points":3,"place":0,"phase":1,"sequence":10,"prices":[137,187,152,156,166,231,155,194,202,160],"times":[1065],"next_num":1,"trial_type":"ticket-choose","trial_index":95,"time_elapsed":815330,"internal_node_id":"0.0-95.0"},{"result":146,"points":2,"place":1,"phase":1,"sequence":11,"prices":[171,191,172,268,179,194,146,150,127,239],"times":[970,679,696,1247,663,759,1084],"next_num":7,"trial_type":"ticket-choose","trial_index":96,"time_elapsed":824850,"internal_node_id":"0.0-96.0"},{"result":154,"points":2,"place":1,"phase":1,"sequence":12,"prices":[169,191,154,268,183,197,176,155,236,133],"times":[2016,735,1031],"next_num":3,"trial_type":"ticket-choose","trial_index":97,"time_elapsed":830962,"internal_node_id":"0.0-97.0"},{"result":136,"points":2,"place":1,"phase":1,"sequence":13,"prices":[171,192,136,243,182,195,174,154,236,128],"times":[801,646,983],"next_num":3,"trial_type":"ticket-choose","trial_index":98,"time_elapsed":835626,"internal_node_id":"0.0-98.0"},{"result":130,"points":2,"place":1,"phase":1,"sequence":14,"prices":[181,130,116,142,157,193,165,218,173,207],"times":[740,999],"next_num":2,"trial_type":"ticket-choose","trial_index":99,"time_elapsed":839683,"internal_node_id":"0.0-99.0"},{"result":146,"points":2,"place":1,"phase":1,"sequence":15,"prices":[168,191,146,252,183,193,172,153,126,238],"times":[975,751,1046],"next_num":3,"trial_type":"ticket-choose","trial_index":100,"time_elapsed":844659,"internal_node_id":"0.0-100.0"},{"result":119,"points":3,"place":0,"phase":1,"sequence":16,"prices":[198,119,169,141,195,233,136,208,177,217],"times":[973,1012],"next_num":2,"trial_type":"ticket-choose","trial_index":101,"time_elapsed":849051,"internal_node_id":"0.0-101.0"},{"result":146,"points":2,"place":1,"phase":1,"sequence":17,"prices":[170,193,146,268,178,195,172,149,126,241],"times":[1186,1951,1288],"next_num":3,"trial_type":"ticket-choose","trial_index":102,"time_elapsed":855850,"internal_node_id":"0.0-102.0"},{"result":146,"points":2,"place":1,"phase":1,"sequence":18,"prices":[172,191,176,272,179,194,146,152,126,235],"times":[1169,710,743,663,831,951,1031],"next_num":7,"trial_type":"ticket-choose","trial_index":103,"time_elapsed":865203,"internal_node_id":"0.0-103.0"},{"result":146,"points":2,"place":1,"phase":1,"sequence":19,"prices":[168,191,172,240,183,193,146,151,125,238],"times":[1009,671,632,735,863,775,1024],"next_num":7,"trial_type":"ticket-choose","trial_index":104,"time_elapsed":874131,"internal_node_id":"0.0-104.0"},{"result":155,"points":1,"place":2,"phase":1,"sequence":20,"prices":[155,129,164,189,210,108,187,241,174,275],"times":[1433],"next_num":1,"trial_type":"ticket-choose","trial_index":105,"time_elapsed":877475,"internal_node_id":"0.0-105.0"},{"result":143,"points":3,"place":0,"phase":1,"sequence":21,"prices":[143,206,153,194,201,267,168,208,210,196],"times":[1104],"next_num":1,"trial_type":"ticket-choose","trial_index":106,"time_elapsed":880362,"internal_node_id":"0.0-106.0"},{"result":154,"points":2,"place":1,"phase":1,"sequence":22,"prices":[170,193,176,245,178,194,154,159,236,126],"times":[1062,715,655,664,688,727,1221],"next_num":7,"trial_type":"ticket-choose","trial_index":107,"time_elapsed":889138,"internal_node_id":"0.0-107.0"},{"result":142,"points":3,"place":0,"phase":1,"sequence":23,"prices":[142,207,171,182,190,269,180,218,256,188],"times":[1202],"next_num":1,"trial_type":"ticket-choose","trial_index":108,"time_elapsed":892346,"internal_node_id":"0.0-108.0"},{"result":158,"points":1,"place":2,"phase":1,"sequence":24,"prices":[169,194,154,271,178,201,176,158,236,127],"times":[1130,480,535,872,639,671,703,1048],"next_num":8,"trial_type":"ticket-choose","trial_index":109,"time_elapsed":901850,"internal_node_id":"0.0-109.0"},{"result":156,"points":1,"place":2,"phase":1,"sequence":25,"prices":[156,218,212,216,191,210,275,146,174,152],"times":[1001],"next_num":1,"trial_type":"ticket-choose","trial_index":110,"time_elapsed":904618,"internal_node_id":"0.0-110.0"},{"result":117,"points":3,"place":0,"phase":1,"sequence":26,"prices":[117,161,120,147,153,259,144,191,195,149],"times":[1089],"next_num":1,"trial_type":"ticket-choose","trial_index":111,"time_elapsed":907426,"internal_node_id":"0.0-111.0"},{"result":146,"points":2,"place":1,"phase":1,"sequence":27,"prices":[169,193,146,237,180,196,172,150,129,236],"times":[1571,839,1063],"next_num":3,"trial_type":"ticket-choose","trial_index":112,"time_elapsed":913122,"internal_node_id":"0.0-112.0"},{"result":154,"points":2,"place":1,"phase":1,"sequence":28,"prices":[168,192,154,237,182,196,176,156,235,133],"times":[1034,686,1007],"next_num":3,"trial_type":"ticket-choose","trial_index":113,"time_elapsed":918290,"internal_node_id":"0.0-113.0"},{"result":136,"points":2,"place":1,"phase":1,"sequence":29,"prices":[169,192,174,246,180,195,136,152,238,126],"times":[1217,679,687,723,1038,735,1016],"next_num":7,"trial_type":"ticket-choose","trial_index":114,"time_elapsed":927435,"internal_node_id":"0.0-114.0"},{"result":136,"points":2,"place":1,"phase":1,"sequence":30,"prices":[171,192,136,265,180,194,174,152,239,127],"times":[2384,751,967],"next_num":3,"trial_type":"ticket-choose","trial_index":115,"time_elapsed":933954,"internal_node_id":"0.0-115.0"},{"result":136,"points":2,"place":1,"phase":1,"sequence":31,"prices":[170,192,174,242,181,196,136,153,236,128],"times":[1634,718,726,743,814,988,1279],"next_num":7,"trial_type":"ticket-choose","trial_index":116,"time_elapsed":944058,"internal_node_id":"0.0-116.0"},{"result":136,"points":2,"place":1,"phase":1,"sequence":32,"prices":[172,194,174,243,182,193,136,150,237,126],"times":[976,686,686,679,662,671,997],"next_num":7,"trial_type":"ticket-choose","trial_index":117,"time_elapsed":952435,"internal_node_id":"0.0-117.0"},{"result":126,"points":3,"place":0,"phase":1,"sequence":33,"prices":[173,191,146,242,178,194,172,152,126,235],"times":[1017,534,543,615,519,702,798,1062,1311],"next_num":9,"trial_type":"ticket-choose","trial_index":118,"time_elapsed":963082,"internal_node_id":"0.0-118.0"},{"result":135,"points":3,"place":0,"phase":1,"sequence":34,"prices":[135,202,150,169,183,225,160,211,220,172],"times":[1225],"next_num":1,"trial_type":"ticket-choose","trial_index":119,"time_elapsed":966306,"internal_node_id":"0.0-119.0"},{"result":158,"points":1,"place":3,"phase":1,"sequence":35,"prices":[216,206,158,145,224,185,124,149,175,162],"times":[1032,686,1086],"next_num":3,"trial_type":"ticket-choose","trial_index":120,"time_elapsed":971314,"internal_node_id":"0.0-120.0"},{"result":138,"points":1,"place":2,"phase":1,"sequence":36,"prices":[181,138,118,170,190,101,146,169,175,233],"times":[889,974],"next_num":2,"trial_type":"ticket-choose","trial_index":121,"time_elapsed":975170,"internal_node_id":"0.0-121.0"},{"result":136,"points":2,"place":1,"phase":1,"sequence":37,"prices":[173,194,136,239,182,200,174,150,236,127],"times":[849,647,975],"next_num":3,"trial_type":"ticket-choose","trial_index":122,"time_elapsed":979762,"internal_node_id":"0.0-122.0"},{"result":135,"points":3,"place":0,"phase":1,"sequence":38,"prices":[221,193,135,188,217,179,196,190,175,159],"times":[737,703,1021],"next_num":3,"trial_type":"ticket-choose","trial_index":123,"time_elapsed":984338,"internal_node_id":"0.0-123.0"},{"result":157,"points":3,"place":0,"phase":1,"sequence":39,"prices":[157,213,159,187,194,242,161,222,225,189],"times":[1417],"next_num":1,"trial_type":"ticket-choose","trial_index":124,"time_elapsed":987546,"internal_node_id":"0.0-124.0"},{"result":154,"points":2,"place":1,"phase":1,"sequence":40,"prices":[169,193,154,255,178,194,176,158,239,126],"times":[1239,830,1055],"next_num":3,"trial_type":"ticket-choose","trial_index":125,"time_elapsed":992890,"internal_node_id":"0.0-125.0"},{"result":149,"points":2,"place":1,"phase":1,"sequence":41,"prices":[196,221,149,164,216,167,175,128,176,181],"times":[919,655,1079],"next_num":3,"trial_type":"ticket-choose","trial_index":126,"time_elapsed":997874,"internal_node_id":"0.0-126.0"},{"result":153,"points":2,"place":1,"phase":1,"sequence":42,"prices":[197,153,181,215,150,155,164,247,177,162],"times":[842,1447],"next_num":2,"trial_type":"ticket-choose","trial_index":127,"time_elapsed":1002467,"internal_node_id":"0.0-127.0"},{"result":146,"points":1,"place":2,"phase":1,"sequence":43,"prices":[186,146,191,179,152,116,140,201,172,187],"times":[1120,1047],"next_num":2,"trial_type":"ticket-choose","trial_index":128,"time_elapsed":1006803,"internal_node_id":"0.0-128.0"},{"result":192,"points":1,"place":4,"phase":1,"sequence":44,"prices":[157,205,161,175,197,254,165,210,214,192],"times":[977,735,1119,711,823,711,911,1071,1023,1215],"next_num":11,"trial_type":"ticket-choose","trial_index":129,"time_elapsed":1020291,"internal_node_id":"0.0-129.0"},{"result":173,"points":1,"place":3,"phase":1,"sequence":45,"prices":[173,191,174,270,180,193,136,153,239,129],"times":[2192],"next_num":1,"trial_type":"ticket-choose","trial_index":130,"time_elapsed":1024552,"internal_node_id":"0.0-130.0"},{"result":165,"points":2,"place":1,"phase":1,"sequence":46,"prices":[263,165,224,214,105,230,215,185,177,193],"times":[1275,935],"next_num":2,"trial_type":"ticket-choose","trial_index":131,"time_elapsed":1028947,"internal_node_id":"0.0-131.0"},{"result":170,"points":1,"place":3,"phase":1,"sequence":47,"prices":[170,190,176,251,183,192,154,157,236,131],"times":[1305],"next_num":1,"trial_type":"ticket-choose","trial_index":132,"time_elapsed":1032243,"internal_node_id":"0.0-132.0"},{"result":169,"points":1,"place":3,"phase":1,"sequence":48,"prices":[169,192,176,244,178,194,154,159,237,125],"times":[993],"next_num":1,"trial_type":"ticket-choose","trial_index":133,"time_elapsed":1034995,"internal_node_id":"0.0-133.0"},{"result":124,"points":3,"place":0,"phase":1,"sequence":49,"prices":[124,220,136,165,185,234,143,225,228,179],"times":[794],"next_num":1,"trial_type":"ticket-choose","trial_index":134,"time_elapsed":1037675,"internal_node_id":"0.0-134.0"},{"responses":[{"value":0,"offby":-1,"category":"$90 - $120","category_index":0},{"value":0,"offby":-3,"category":"$121 - $145","category_index":1},{"value":0,"offby":-3,"category":"$146 - $170","category_index":2},{"value":1,"offby":-5,"category":"$171 - $195","category_index":3},{"value":10,"offby":6,"category":"$196 - $220","category_index":4},{"value":4,"offby":2,"category":"$221 - $245","category_index":5},{"value":5,"offby":4,"category":"$246 - $270","category_index":6}],"phase":1,"number":1,"trial_type":"bar-choose","trial_index":135,"time_elapsed":1056779,"internal_node_id":"0.0-135.0"},{"special_comment":"No.","trial_type":"special_sequence","trial_index":136,"time_elapsed":1073275,"internal_node_id":"0.0-136.0"},{"during":"Nothing","bonus":208,"trial_type":"final","trial_index":137,"time_elapsed":1098764,"internal_node_id":"0.0-137.0"}],"bonus":208}