{"start_time":"2017-02-16 15:42:28","end_time":"2017-02-16 16:11:36","points_phase0":97,"points_phase1":77,"phase_order":1,"age":51,"gender":"f","tries":2,"during":"Nothing","worker_id":"A3N8JP3QR3VPE8","assignment_id":"3LRKMWOKB6AX6DJCLHUXNCCTVGRZ2Z","data":[{"rt":14215,"url":"\/tickets\/utils\/consent.html","trial_type":"html","trial_index":0,"time_elapsed":14317,"internal_node_id":"0.0-0.0"},{"age":51,"gender":"f","trial_type":"age","trial_index":1,"time_elapsed":21720,"internal_node_id":"0.0-1.0"},{"worker_id":"A3N8JP3QR3VPE8","trial_type":"workerid","trial_index":2,"time_elapsed":35716,"internal_node_id":"0.0-2.0"},{"tries":2,"trial_type":"instructions_check","trial_index":3,"time_elapsed":82102,"internal_node_id":"0.0-3.0"},{"rt":8935,"url":"\/tickets\/utils\/start.html","trial_type":"html","trial_index":4,"time_elapsed":92150,"internal_node_id":"0.0-4.0"},{"trial_type":"number-animation","trial_index":5,"time_elapsed":104086,"internal_node_id":"0.0-5.0"},{"phase":0,"sequence":0,"avg":182,"response":156,"trial_type":"training_avg","trial_index":6,"time_elapsed":175570,"internal_node_id":"0.0-6.0"},{"trial_type":"number-animation","trial_index":7,"time_elapsed":184754,"internal_node_id":"0.0-7.0"},{"phase":0,"sequence":1,"avg":188,"response":165,"trial_type":"training_avg","trial_index":8,"time_elapsed":191509,"internal_node_id":"0.0-8.0"},{"trial_type":"number-animation","trial_index":9,"time_elapsed":199024,"internal_node_id":"0.0-9.0"},{"phase":0,"sequence":2,"avg":176,"response":157,"trial_type":"training_avg","trial_index":10,"time_elapsed":205191,"internal_node_id":"0.0-10.0"},{"trial_type":"number-animation","trial_index":11,"time_elapsed":526981,"internal_node_id":"0.0-11.0"},{"phase":0,"sequence":3,"avg":180,"response":149,"trial_type":"training_avg","trial_index":12,"time_elapsed":533197,"internal_node_id":"0.0-12.0"},{"trial_type":"number-animation","trial_index":13,"time_elapsed":543596,"internal_node_id":"0.0-13.0"},{"phase":0,"sequence":4,"avg":174,"response":155,"trial_type":"training_avg","trial_index":14,"time_elapsed":549210,"internal_node_id":"0.0-14.0"},{"responses":[{"value":2,"offby":1,"category":"$90 - $120","category_index":0},{"value":4,"offby":1,"category":"$121 - $145","category_index":1},{"value":3,"offby":0,"category":"$146 - $170","category_index":2},{"value":3,"offby":-3,"category":"$171 - $195","category_index":3},{"value":4,"offby":0,"category":"$196 - $220","category_index":4},{"value":3,"offby":1,"category":"$221 - $245","category_index":5},{"value":1,"offby":0,"category":"$246 - $270","category_index":6}],"phase":0,"number":0,"trial_type":"bar-choose","trial_index":15,"time_elapsed":596005,"internal_node_id":"0.0-15.0"},{"rt":13903,"url":"\/tickets\/\/utils\/testing.html","trial_type":"html","trial_index":16,"time_elapsed":611022,"internal_node_id":"0.0-16.0"},{"phase":0,"order":[48,20,5,18,2,15,12,9,30,6,21,31,41,13,45,28,14,39,29,43,49,8,16,3,10,27,47,24,42,36,34,19,44,4,46,23,1,37,38,17,11,33,25,32,7,0,26,22,40,35],"trial_type":"store_order","trial_index":17,"time_elapsed":612023,"internal_node_id":"0.0-17.0"},{"result":193,"points":0,"place":6,"phase":0,"sequence":-1,"times":[1784,1074,990,611,641,557,1723,1715],"next_num":8,"trial_type":"ticket-choose","trial_index":18,"time_elapsed":625453,"internal_node_id":"0.0-18.0"},{"rt":17315,"url":"\/tickets\/utils\/testing_after.html","trial_type":"html","trial_index":19,"time_elapsed":643957,"internal_node_id":"0.0-19.0"},{"result":126,"points":3,"place":0,"phase":0,"sequence":0,"times":[3064,1260,657,663,571,655,1282,1608,748,1157],"next_num":10,"trial_type":"ticket-choose","trial_index":20,"time_elapsed":661241,"internal_node_id":"0.0-20.0"},{"result":146,"points":2,"place":1,"phase":0,"sequence":1,"times":[1006,555,602,602,780,726,1041],"next_num":7,"trial_type":"ticket-choose","trial_index":21,"time_elapsed":670243,"internal_node_id":"0.0-21.0"},{"result":136,"points":2,"place":1,"phase":0,"sequence":2,"times":[1170,818,531,571,618,601,1012],"next_num":7,"trial_type":"ticket-choose","trial_index":22,"time_elapsed":679027,"internal_node_id":"0.0-22.0"},{"result":158,"points":1,"place":2,"phase":0,"sequence":3,"times":[754,619,545,619,823,622,657,944],"next_num":8,"trial_type":"ticket-choose","trial_index":23,"time_elapsed":688379,"internal_node_id":"0.0-23.0"},{"result":152,"points":1,"place":2,"phase":0,"sequence":4,"times":[917,888,595,640,611,656,728,879],"next_num":8,"trial_type":"ticket-choose","trial_index":24,"time_elapsed":698102,"internal_node_id":"0.0-24.0"},{"result":120,"points":2,"place":1,"phase":0,"sequence":5,"times":[805,493,1013],"next_num":3,"trial_type":"ticket-choose","trial_index":25,"time_elapsed":702910,"internal_node_id":"0.0-25.0"},{"result":146,"points":2,"place":1,"phase":0,"sequence":6,"times":[749,595,657,594,595,588,1012],"next_num":7,"trial_type":"ticket-choose","trial_index":26,"time_elapsed":711334,"internal_node_id":"0.0-26.0"},{"result":150,"points":1,"place":2,"phase":0,"sequence":7,"times":[757,440,394,572,579,618,611,966],"next_num":8,"trial_type":"ticket-choose","trial_index":27,"time_elapsed":720306,"internal_node_id":"0.0-27.0"},{"result":136,"points":3,"place":0,"phase":0,"sequence":8,"times":[783,672,585,610,866,880],"next_num":6,"trial_type":"ticket-choose","trial_index":28,"time_elapsed":727894,"internal_node_id":"0.0-28.0"},{"result":136,"points":2,"place":1,"phase":0,"sequence":9,"times":[675,609,548,664,674,593,891],"next_num":7,"trial_type":"ticket-choose","trial_index":29,"time_elapsed":736393,"internal_node_id":"0.0-29.0"},{"result":159,"points":2,"place":1,"phase":0,"sequence":10,"times":[862,564,1053],"next_num":3,"trial_type":"ticket-choose","trial_index":30,"time_elapsed":741421,"internal_node_id":"0.0-30.0"},{"result":136,"points":2,"place":1,"phase":0,"sequence":11,"times":[651,569,526,570,564,565,903],"next_num":7,"trial_type":"ticket-choose","trial_index":31,"time_elapsed":749087,"internal_node_id":"0.0-31.0"},{"result":146,"points":2,"place":1,"phase":0,"sequence":12,"times":[730,556,1260,563,594,557,959],"next_num":7,"trial_type":"ticket-choose","trial_index":32,"time_elapsed":757525,"internal_node_id":"0.0-32.0"},{"result":155,"points":1,"place":2,"phase":0,"sequence":13,"times":[983,514,439,586,624,610,555,1012],"next_num":8,"trial_type":"ticket-choose","trial_index":33,"time_elapsed":769793,"internal_node_id":"0.0-33.0"},{"result":127,"points":3,"place":0,"phase":0,"sequence":14,"times":[734,564,548,771,602,596,657,895,1067,610],"next_num":10,"trial_type":"ticket-choose","trial_index":34,"time_elapsed":780677,"internal_node_id":"0.0-34.0"},{"result":136,"points":2,"place":1,"phase":0,"sequence":15,"times":[675,564,988],"next_num":3,"trial_type":"ticket-choose","trial_index":35,"time_elapsed":785436,"internal_node_id":"0.0-35.0"},{"result":140,"points":2,"place":1,"phase":0,"sequence":16,"times":[569,599,581,556,586,534,1437],"next_num":7,"trial_type":"ticket-choose","trial_index":36,"time_elapsed":793518,"internal_node_id":"0.0-36.0"},{"result":196,"points":1,"place":4,"phase":0,"sequence":17,"times":[693,587,626,641,686,548,637,824,819,617],"next_num":11,"trial_type":"ticket-choose","trial_index":37,"time_elapsed":804950,"internal_node_id":"0.0-37.0"},{"result":156,"points":1,"place":2,"phase":0,"sequence":18,"times":[795,562,596,671,663,650,619,909],"next_num":8,"trial_type":"ticket-choose","trial_index":38,"time_elapsed":814063,"internal_node_id":"0.0-38.0"},{"result":144,"points":2,"place":1,"phase":0,"sequence":19,"times":[1080,750,888],"next_num":3,"trial_type":"ticket-choose","trial_index":39,"time_elapsed":819274,"internal_node_id":"0.0-39.0"},{"result":141,"points":1,"place":2,"phase":0,"sequence":20,"times":[620,1174,1066,1106],"next_num":4,"trial_type":"ticket-choose","trial_index":40,"time_elapsed":826568,"internal_node_id":"0.0-40.0"},{"result":154,"points":2,"place":1,"phase":0,"sequence":21,"times":[572,551,461,710,734,635,1281],"next_num":7,"trial_type":"ticket-choose","trial_index":41,"time_elapsed":834626,"internal_node_id":"0.0-41.0"},{"result":136,"points":2,"place":1,"phase":0,"sequence":22,"times":[568,610,898],"next_num":3,"trial_type":"ticket-choose","trial_index":42,"time_elapsed":839004,"internal_node_id":"0.0-42.0"},{"result":145,"points":2,"place":1,"phase":0,"sequence":23,"times":[623,555,842,641],"next_num":4,"trial_type":"ticket-choose","trial_index":43,"time_elapsed":844174,"internal_node_id":"0.0-43.0"},{"result":146,"points":2,"place":1,"phase":0,"sequence":24,"times":[533,548,548,672,664,857,933],"next_num":7,"trial_type":"ticket-choose","trial_index":44,"time_elapsed":851985,"internal_node_id":"0.0-44.0"},{"result":133,"points":3,"place":0,"phase":0,"sequence":25,"times":[846,654,518,787,641,796,750,585,982,718],"next_num":10,"trial_type":"ticket-choose","trial_index":45,"time_elapsed":863015,"internal_node_id":"0.0-45.0"},{"result":165,"points":1,"place":2,"phase":0,"sequence":26,"times":[916,609,887,749,795,759,717],"next_num":7,"trial_type":"ticket-choose","trial_index":46,"time_elapsed":871585,"internal_node_id":"0.0-46.0"},{"result":162,"points":1,"place":3,"phase":0,"sequence":27,"times":[1032,794,633,619,618,703,788,1142,711,678],"next_num":10,"trial_type":"ticket-choose","trial_index":47,"time_elapsed":883015,"internal_node_id":"0.0-47.0"},{"result":146,"points":3,"place":0,"phase":0,"sequence":28,"times":[752,485,308,324,632,610,672,878],"next_num":8,"trial_type":"ticket-choose","trial_index":48,"time_elapsed":890881,"internal_node_id":"0.0-48.0"},{"result":154,"points":2,"place":1,"phase":0,"sequence":29,"times":[487,548,619,602,642,810,1173],"next_num":7,"trial_type":"ticket-choose","trial_index":49,"time_elapsed":898933,"internal_node_id":"0.0-49.0"},{"result":176,"points":0,"place":5,"phase":0,"sequence":30,"times":[704,479,424,379,888],"next_num":5,"trial_type":"ticket-choose","trial_index":50,"time_elapsed":904635,"internal_node_id":"0.0-50.0"},{"result":138,"points":1,"place":2,"phase":0,"sequence":31,"times":[809,1297],"next_num":2,"trial_type":"ticket-choose","trial_index":51,"time_elapsed":909044,"internal_node_id":"0.0-51.0"},{"result":136,"points":1,"place":3,"phase":0,"sequence":32,"times":[672,801,820,981],"next_num":4,"trial_type":"ticket-choose","trial_index":52,"time_elapsed":914884,"internal_node_id":"0.0-52.0"},{"result":136,"points":2,"place":1,"phase":0,"sequence":33,"times":[565,594,980],"next_num":3,"trial_type":"ticket-choose","trial_index":53,"time_elapsed":919445,"internal_node_id":"0.0-53.0"},{"result":136,"points":2,"place":1,"phase":0,"sequence":34,"times":[498,766,980],"next_num":3,"trial_type":"ticket-choose","trial_index":54,"time_elapsed":924009,"internal_node_id":"0.0-54.0"},{"result":154,"points":2,"place":1,"phase":0,"sequence":35,"times":[794,897,702,625,936],"next_num":5,"trial_type":"ticket-choose","trial_index":55,"time_elapsed":930523,"internal_node_id":"0.0-55.0"},{"result":150,"points":2,"place":1,"phase":0,"sequence":36,"times":[498,656,1136],"next_num":3,"trial_type":"ticket-choose","trial_index":56,"time_elapsed":935048,"internal_node_id":"0.0-56.0"},{"result":129,"points":2,"place":1,"phase":0,"sequence":37,"times":[774,857],"next_num":2,"trial_type":"ticket-choose","trial_index":57,"time_elapsed":938651,"internal_node_id":"0.0-57.0"},{"result":137,"points":3,"place":0,"phase":0,"sequence":38,"times":[1332],"next_num":1,"trial_type":"ticket-choose","trial_index":58,"time_elapsed":941800,"internal_node_id":"0.0-58.0"},{"result":121,"points":3,"place":0,"phase":0,"sequence":39,"times":[922],"next_num":1,"trial_type":"ticket-choose","trial_index":59,"time_elapsed":944437,"internal_node_id":"0.0-59.0"},{"result":136,"points":2,"place":1,"phase":0,"sequence":40,"times":[1494,549,549,570,703,649,858],"next_num":7,"trial_type":"ticket-choose","trial_index":60,"time_elapsed":952752,"internal_node_id":"0.0-60.0"},{"result":157,"points":3,"place":0,"phase":0,"sequence":41,"times":[1099],"next_num":1,"trial_type":"ticket-choose","trial_index":61,"time_elapsed":955806,"internal_node_id":"0.0-61.0"},{"result":126,"points":3,"place":0,"phase":0,"sequence":42,"times":[836,647,603,618,772,642,647,656,797,880],"next_num":10,"trial_type":"ticket-choose","trial_index":62,"time_elapsed":966675,"internal_node_id":"0.0-62.0"},{"result":149,"points":2,"place":1,"phase":0,"sequence":43,"times":[1043,587,883],"next_num":3,"trial_type":"ticket-choose","trial_index":63,"time_elapsed":971367,"internal_node_id":"0.0-63.0"},{"result":142,"points":3,"place":0,"phase":0,"sequence":44,"times":[874],"next_num":1,"trial_type":"ticket-choose","trial_index":64,"time_elapsed":974106,"internal_node_id":"0.0-64.0"},{"result":135,"points":3,"place":0,"phase":0,"sequence":45,"times":[1017,788,1083],"next_num":3,"trial_type":"ticket-choose","trial_index":65,"time_elapsed":979086,"internal_node_id":"0.0-65.0"},{"result":214,"points":0,"place":5,"phase":0,"sequence":46,"times":[800,670,859,926],"next_num":4,"trial_type":"ticket-choose","trial_index":66,"time_elapsed":985140,"internal_node_id":"0.0-66.0"},{"result":130,"points":2,"place":1,"phase":0,"sequence":47,"times":[1060,965],"next_num":2,"trial_type":"ticket-choose","trial_index":67,"time_elapsed":989038,"internal_node_id":"0.0-67.0"},{"result":126,"points":3,"place":0,"phase":0,"sequence":48,"times":[638,487,540,555,446,448,663,572,818],"next_num":9,"trial_type":"ticket-choose","trial_index":68,"time_elapsed":997646,"internal_node_id":"0.0-68.0"},{"result":146,"points":2,"place":1,"phase":0,"sequence":49,"times":[657,407,1031],"next_num":3,"trial_type":"ticket-choose","trial_index":69,"time_elapsed":1001937,"internal_node_id":"0.0-69.0"},{"responses":[{"value":2,"offby":1,"category":"$90 - $120","category_index":0},{"value":3,"offby":0,"category":"$121 - $145","category_index":1},{"value":3,"offby":0,"category":"$146 - $170","category_index":2},{"value":3,"offby":-3,"category":"$171 - $195","category_index":3},{"value":2,"offby":-2,"category":"$196 - $220","category_index":4},{"value":3,"offby":1,"category":"$221 - $245","category_index":5},{"value":4,"offby":3,"category":"$246 - $270","category_index":6}],"phase":0,"number":1,"trial_type":"bar-choose","trial_index":70,"time_elapsed":1023177,"internal_node_id":"0.0-70.0"},{"rt":3562,"url":"\/tickets\/utils\/start2.html","trial_type":"html","trial_index":71,"time_elapsed":1027870,"internal_node_id":"0.0-71.0"},{"trial_type":"number-animation","trial_index":72,"time_elapsed":1257650,"internal_node_id":"0.0-72.0"},{"phase":1,"sequence":0,"avg":181,"response":162,"trial_type":"training_avg","trial_index":73,"time_elapsed":1262000,"internal_node_id":"0.0-73.0"},{"trial_type":"number-animation","trial_index":74,"time_elapsed":1269205,"internal_node_id":"0.0-74.0"},{"phase":1,"sequence":1,"avg":188,"response":163,"trial_type":"training_avg","trial_index":75,"time_elapsed":1273704,"internal_node_id":"0.0-75.0"},{"trial_type":"number-animation","trial_index":76,"time_elapsed":1286837,"internal_node_id":"0.0-76.0"},{"phase":1,"sequence":2,"avg":188,"response":162,"trial_type":"training_avg","trial_index":77,"time_elapsed":1292118,"internal_node_id":"0.0-77.0"},{"trial_type":"number-animation","trial_index":78,"time_elapsed":1347166,"internal_node_id":"0.0-78.0"},{"phase":1,"sequence":3,"avg":177,"response":167,"trial_type":"training_avg","trial_index":79,"time_elapsed":1354062,"internal_node_id":"0.0-79.0"},{"trial_type":"number-animation","trial_index":80,"time_elapsed":1364330,"internal_node_id":"0.0-80.0"},{"phase":1,"sequence":4,"avg":182,"response":174,"trial_type":"training_avg","trial_index":81,"time_elapsed":1369647,"internal_node_id":"0.0-81.0"},{"responses":[{"value":2,"offby":2,"category":"$106 - $134","category_index":0},{"value":4,"offby":3,"category":"$135 - $150","category_index":1},{"value":2,"offby":-1,"category":"$151 - $165","category_index":2},{"value":2,"offby":-4,"category":"$166 - $180","category_index":3},{"value":4,"offby":-2,"category":"$181 - $195","category_index":4},{"value":2,"offby":-1,"category":"$196 - $210","category_index":5},{"value":4,"offby":3,"category":"$211 - $225","category_index":6}],"phase":1,"number":0,"trial_type":"bar-choose","trial_index":82,"time_elapsed":1385082,"internal_node_id":"0.0-82.0"},{"rt":7411,"url":"\/tickets\/utils\/testing2.html","trial_type":"html","trial_index":83,"time_elapsed":1393603,"internal_node_id":"0.0-83.0"},{"phase":1,"order":[10,7,23,11,0,31,6,1,46,21,48,20,5,9,18,19,49,32,12,25,40,13,17,37,4,8,27,39,38,14,47,44,41,16,26,45,30,35,33,29,22,28,15,36,24,43,42,34,3,2],"trial_type":"store_order","trial_index":84,"time_elapsed":1394604,"internal_node_id":"0.0-84.0"},{"result":147,"points":3,"place":0,"phase":1,"sequence":0,"times":[1429,543,484,912],"next_num":4,"trial_type":"ticket-choose","trial_index":85,"time_elapsed":1400346,"internal_node_id":"0.0-85.0"},{"result":158,"points":2,"place":1,"phase":1,"sequence":1,"times":[782,463,441,536,599,632,1109],"next_num":7,"trial_type":"ticket-choose","trial_index":86,"time_elapsed":1407848,"internal_node_id":"0.0-86.0"},{"result":163,"points":2,"place":1,"phase":1,"sequence":2,"times":[1833,454,480,595,639,660,926],"next_num":7,"trial_type":"ticket-choose","trial_index":87,"time_elapsed":1416459,"internal_node_id":"0.0-87.0"},{"result":153,"points":3,"place":0,"phase":1,"sequence":3,"times":[683,584,820,1065,657,627,609,709,687,1028],"next_num":10,"trial_type":"ticket-choose","trial_index":88,"time_elapsed":1427516,"internal_node_id":"0.0-88.0"},{"result":166,"points":1,"place":2,"phase":1,"sequence":4,"times":[665,391,295,563,340,617,578,974],"next_num":8,"trial_type":"ticket-choose","trial_index":89,"time_elapsed":1435094,"internal_node_id":"0.0-89.0"},{"result":169,"points":1,"place":2,"phase":1,"sequence":5,"times":[738,423,316,424,518,671,578,602],"next_num":8,"trial_type":"ticket-choose","trial_index":90,"time_elapsed":1442613,"internal_node_id":"0.0-90.0"},{"result":168,"points":1,"place":2,"phase":1,"sequence":6,"times":[845,879,580,306,556,2899,495,632],"next_num":8,"trial_type":"ticket-choose","trial_index":91,"time_elapsed":1453020,"internal_node_id":"0.0-91.0"},{"result":167,"points":2,"place":1,"phase":1,"sequence":7,"times":[557,346,1043],"next_num":3,"trial_type":"ticket-choose","trial_index":92,"time_elapsed":1457080,"internal_node_id":"0.0-92.0"},{"result":176,"points":1,"place":4,"phase":1,"sequence":8,"times":[671,643,684,681,618,742,537,817,858,863],"next_num":11,"trial_type":"ticket-choose","trial_index":93,"time_elapsed":1468060,"internal_node_id":"0.0-93.0"},{"result":187,"points":0,"place":7,"phase":1,"sequence":9,"times":[904,641,610,625,610,935],"next_num":6,"trial_type":"ticket-choose","trial_index":94,"time_elapsed":1475198,"internal_node_id":"0.0-94.0"},{"result":188,"points":0,"place":7,"phase":1,"sequence":10,"times":[602,632,912,788,631,889],"next_num":6,"trial_type":"ticket-choose","trial_index":95,"time_elapsed":1482404,"internal_node_id":"0.0-95.0"},{"result":150,"points":2,"place":1,"phase":1,"sequence":11,"times":[561,756,1369],"next_num":3,"trial_type":"ticket-choose","trial_index":96,"time_elapsed":1487214,"internal_node_id":"0.0-96.0"},{"result":155,"points":2,"place":1,"phase":1,"sequence":12,"times":[546,579,911],"next_num":3,"trial_type":"ticket-choose","trial_index":97,"time_elapsed":1491374,"internal_node_id":"0.0-97.0"},{"result":178,"points":1,"place":4,"phase":1,"sequence":13,"times":[528,694,1066],"next_num":3,"trial_type":"ticket-choose","trial_index":98,"time_elapsed":1495845,"internal_node_id":"0.0-98.0"},{"result":184,"points":1,"place":4,"phase":1,"sequence":14,"times":[514,649,975,1028],"next_num":4,"trial_type":"ticket-choose","trial_index":99,"time_elapsed":1501373,"internal_node_id":"0.0-99.0"},{"result":170,"points":2,"place":1,"phase":1,"sequence":15,"times":[473,697,1067],"next_num":3,"trial_type":"ticket-choose","trial_index":100,"time_elapsed":1505766,"internal_node_id":"0.0-100.0"},{"result":179,"points":0,"place":5,"phase":1,"sequence":16,"times":[2702,639,595,754,1093],"next_num":5,"trial_type":"ticket-choose","trial_index":101,"time_elapsed":1514179,"internal_node_id":"0.0-101.0"},{"result":165,"points":3,"place":0,"phase":1,"sequence":17,"times":[853,842,640,665,918],"next_num":5,"trial_type":"ticket-choose","trial_index":102,"time_elapsed":1520667,"internal_node_id":"0.0-102.0"},{"result":154,"points":2,"place":1,"phase":1,"sequence":18,"times":[538,695,980],"next_num":3,"trial_type":"ticket-choose","trial_index":103,"time_elapsed":1525015,"internal_node_id":"0.0-103.0"},{"result":187,"points":0,"place":6,"phase":1,"sequence":19,"times":[582,827],"next_num":2,"trial_type":"ticket-choose","trial_index":104,"time_elapsed":1528294,"internal_node_id":"0.0-104.0"},{"result":163,"points":1,"place":2,"phase":1,"sequence":20,"times":[466,849],"next_num":2,"trial_type":"ticket-choose","trial_index":105,"time_elapsed":1531518,"internal_node_id":"0.0-105.0"},{"result":167,"points":2,"place":1,"phase":1,"sequence":21,"times":[476,746,913],"next_num":3,"trial_type":"ticket-choose","trial_index":106,"time_elapsed":1535779,"internal_node_id":"0.0-106.0"},{"result":186,"points":0,"place":6,"phase":1,"sequence":22,"times":[518,1074],"next_num":2,"trial_type":"ticket-choose","trial_index":107,"time_elapsed":1539577,"internal_node_id":"0.0-107.0"},{"result":163,"points":2,"place":1,"phase":1,"sequence":23,"times":[466,603,948],"next_num":3,"trial_type":"ticket-choose","trial_index":108,"time_elapsed":1543675,"internal_node_id":"0.0-108.0"},{"result":167,"points":2,"place":1,"phase":1,"sequence":24,"times":[774,673,926],"next_num":3,"trial_type":"ticket-choose","trial_index":109,"time_elapsed":1548131,"internal_node_id":"0.0-109.0"},{"result":188,"points":0,"place":5,"phase":1,"sequence":25,"times":[1555,727,734,753,687],"next_num":5,"trial_type":"ticket-choose","trial_index":110,"time_elapsed":1555138,"internal_node_id":"0.0-110.0"},{"result":152,"points":3,"place":0,"phase":1,"sequence":26,"times":[563,687,709,912],"next_num":4,"trial_type":"ticket-choose","trial_index":111,"time_elapsed":1560412,"internal_node_id":"0.0-111.0"},{"result":184,"points":1,"place":4,"phase":1,"sequence":27,"times":[541,611,648,666,545,664,664,619,600,619],"next_num":11,"trial_type":"ticket-choose","trial_index":112,"time_elapsed":1570573,"internal_node_id":"0.0-112.0"},{"result":173,"points":2,"place":1,"phase":1,"sequence":28,"times":[675,959],"next_num":2,"trial_type":"ticket-choose","trial_index":113,"time_elapsed":1574156,"internal_node_id":"0.0-113.0"},{"result":165,"points":2,"place":1,"phase":1,"sequence":29,"times":[571,594,982],"next_num":3,"trial_type":"ticket-choose","trial_index":114,"time_elapsed":1578399,"internal_node_id":"0.0-114.0"},{"result":155,"points":2,"place":1,"phase":1,"sequence":30,"times":[607,933],"next_num":2,"trial_type":"ticket-choose","trial_index":115,"time_elapsed":1581859,"internal_node_id":"0.0-115.0"},{"result":186,"points":0,"place":7,"phase":1,"sequence":31,"times":[510,577,765,680,852,1148],"next_num":6,"trial_type":"ticket-choose","trial_index":116,"time_elapsed":1589144,"internal_node_id":"0.0-116.0"},{"result":159,"points":1,"place":2,"phase":1,"sequence":32,"times":[1620,882],"next_num":2,"trial_type":"ticket-choose","trial_index":117,"time_elapsed":1593511,"internal_node_id":"0.0-117.0"},{"result":163,"points":2,"place":1,"phase":1,"sequence":33,"times":[622,632,548,634,701,599,890],"next_num":7,"trial_type":"ticket-choose","trial_index":118,"time_elapsed":1601245,"internal_node_id":"0.0-118.0"},{"result":158,"points":3,"place":0,"phase":1,"sequence":34,"times":[467,316,511,432,595,904],"next_num":6,"trial_type":"ticket-choose","trial_index":119,"time_elapsed":1607240,"internal_node_id":"0.0-119.0"},{"result":177,"points":1,"place":4,"phase":1,"sequence":35,"times":[829,918,998],"next_num":3,"trial_type":"ticket-choose","trial_index":120,"time_elapsed":1612091,"internal_node_id":"0.0-120.0"},{"result":226,"points":0,"place":9,"phase":1,"sequence":36,"times":[527,641,500,1151],"next_num":4,"trial_type":"ticket-choose","trial_index":121,"time_elapsed":1617412,"internal_node_id":"0.0-121.0"},{"result":169,"points":1,"place":3,"phase":1,"sequence":37,"times":[7449,696,888],"next_num":3,"trial_type":"ticket-choose","trial_index":122,"time_elapsed":1640171,"internal_node_id":"0.0-122.0"},{"result":168,"points":1,"place":2,"phase":1,"sequence":38,"times":[1388],"next_num":1,"trial_type":"ticket-choose","trial_index":123,"time_elapsed":1643290,"internal_node_id":"0.0-123.0"},{"result":158,"points":2,"place":1,"phase":1,"sequence":39,"times":[849,594,928],"next_num":3,"trial_type":"ticket-choose","trial_index":124,"time_elapsed":1647881,"internal_node_id":"0.0-124.0"},{"result":167,"points":2,"place":1,"phase":1,"sequence":40,"times":[690,542,949],"next_num":3,"trial_type":"ticket-choose","trial_index":125,"time_elapsed":1652173,"internal_node_id":"0.0-125.0"},{"result":159,"points":3,"place":0,"phase":1,"sequence":41,"times":[859],"next_num":1,"trial_type":"ticket-choose","trial_index":126,"time_elapsed":1654747,"internal_node_id":"0.0-126.0"},{"result":162,"points":2,"place":1,"phase":1,"sequence":42,"times":[961,756,978],"next_num":3,"trial_type":"ticket-choose","trial_index":127,"time_elapsed":1659572,"internal_node_id":"0.0-127.0"},{"result":161,"points":3,"place":0,"phase":1,"sequence":43,"times":[5573],"next_num":1,"trial_type":"ticket-choose","trial_index":128,"time_elapsed":1667045,"internal_node_id":"0.0-128.0"},{"result":187,"points":0,"place":7,"phase":1,"sequence":44,"times":[978,539,631,635,1060,780],"next_num":6,"trial_type":"ticket-choose","trial_index":129,"time_elapsed":1674368,"internal_node_id":"0.0-129.0"},{"result":163,"points":2,"place":1,"phase":1,"sequence":45,"times":[649,929,866],"next_num":3,"trial_type":"ticket-choose","trial_index":130,"time_elapsed":1679077,"internal_node_id":"0.0-130.0"},{"result":152,"points":3,"place":0,"phase":1,"sequence":46,"times":[880],"next_num":1,"trial_type":"ticket-choose","trial_index":131,"time_elapsed":1681787,"internal_node_id":"0.0-131.0"},{"result":165,"points":1,"place":2,"phase":1,"sequence":47,"times":[846,3142,556,616,563,528,608,1471],"next_num":8,"trial_type":"ticket-choose","trial_index":132,"time_elapsed":1693757,"internal_node_id":"0.0-132.0"},{"result":150,"points":3,"place":0,"phase":1,"sequence":48,"times":[519,820],"next_num":2,"trial_type":"ticket-choose","trial_index":133,"time_elapsed":1697146,"internal_node_id":"0.0-133.0"},{"result":168,"points":1,"place":2,"phase":1,"sequence":49,"times":[1145],"next_num":1,"trial_type":"ticket-choose","trial_index":134,"time_elapsed":1700043,"internal_node_id":"0.0-134.0"},{"responses":[{"value":2,"offby":2,"category":"$106 - $134","category_index":0},{"value":6,"offby":5,"category":"$135 - $150","category_index":1},{"value":2,"offby":-1,"category":"$151 - $165","category_index":2},{"value":2,"offby":-4,"category":"$166 - $180","category_index":3},{"value":2,"offby":-4,"category":"$181 - $195","category_index":4},{"value":2,"offby":-1,"category":"$196 - $210","category_index":5},{"value":4,"offby":3,"category":"$211 - $225","category_index":6}],"phase":1,"number":1,"trial_type":"bar-choose","trial_index":135,"time_elapsed":1715297,"internal_node_id":"0.0-135.0"},{"special_comment":"didnot notice","trial_type":"special_sequence","trial_index":136,"time_elapsed":1724142,"internal_node_id":"0.0-136.0"},{"during":"Nothing","bonus":232,"trial_type":"final","trial_index":137,"time_elapsed":1745811,"internal_node_id":"0.0-137.0"}],"bonus":232}