{"start_time":"2017-02-22 15:13:11","end_time":"2017-02-22 15:37:13","points_phase0":109,"points_phase1":117,"phase_order":1,"age":25,"gender":"m","tries":1,"during":"Nothing","worker_id":"A3O5EU9QQV2OS1","assignment_id":"3LUY3GC630TAEAEC4KDQS5RNXK1P7Q","data":[{"rt":10871,"url":"\/tickets\/utils\/consent.html","trial_type":"html","trial_index":0,"time_elapsed":11085,"internal_node_id":"0.0-0.0"},{"age":25,"gender":"m","trial_type":"age","trial_index":1,"time_elapsed":16285,"internal_node_id":"0.0-1.0"},{"worker_id":"A3O5EU9QQV2OS1","trial_type":"workerid","trial_index":2,"time_elapsed":26508,"internal_node_id":"0.0-2.0"},{"tries":1,"trial_type":"instructions_check","trial_index":3,"time_elapsed":67028,"internal_node_id":"0.0-3.0"},{"rt":10813,"url":"\/tickets\/utils\/start.html","trial_type":"html","trial_index":4,"time_elapsed":79311,"internal_node_id":"0.0-4.0"},{"trial_type":"number-animation","trial_index":5,"time_elapsed":104510,"internal_node_id":"0.0-5.0"},{"phase":0,"sequence":0,"avg":182,"response":156,"trial_type":"training_avg","trial_index":6,"time_elapsed":116912,"internal_node_id":"0.0-6.0"},{"trial_type":"number-animation","trial_index":7,"time_elapsed":134517,"internal_node_id":"0.0-7.0"},{"phase":0,"sequence":1,"avg":188,"response":186,"trial_type":"training_avg","trial_index":8,"time_elapsed":145020,"internal_node_id":"0.0-8.0"},{"trial_type":"number-animation","trial_index":9,"time_elapsed":158696,"internal_node_id":"0.0-9.0"},{"phase":0,"sequence":2,"avg":176,"response":172,"trial_type":"training_avg","trial_index":10,"time_elapsed":166123,"internal_node_id":"0.0-10.0"},{"trial_type":"number-animation","trial_index":11,"time_elapsed":179510,"internal_node_id":"0.0-11.0"},{"phase":0,"sequence":3,"avg":180,"response":164,"trial_type":"training_avg","trial_index":12,"time_elapsed":187276,"internal_node_id":"0.0-12.0"},{"trial_type":"number-animation","trial_index":13,"time_elapsed":199447,"internal_node_id":"0.0-13.0"},{"phase":0,"sequence":4,"avg":174,"response":180,"trial_type":"training_avg","trial_index":14,"time_elapsed":206360,"internal_node_id":"0.0-14.0"},{"responses":[{"value":0,"offby":-1,"category":"$90 - $120","category_index":0},{"value":0,"offby":-3,"category":"$121 - $145","category_index":1},{"value":5,"offby":2,"category":"$146 - $170","category_index":2},{"value":10,"offby":4,"category":"$171 - $195","category_index":3},{"value":5,"offby":1,"category":"$196 - $220","category_index":4},{"value":0,"offby":-2,"category":"$221 - $245","category_index":5},{"value":0,"offby":-1,"category":"$246 - $270","category_index":6}],"phase":0,"number":0,"trial_type":"bar-choose","trial_index":15,"time_elapsed":257590,"internal_node_id":"0.0-15.0"},{"rt":18940,"url":"\/tickets\/\/utils\/testing.html","trial_type":"html","trial_index":16,"time_elapsed":277863,"internal_node_id":"0.0-16.0"},{"phase":0,"order":[45,3,16,23,20,4,10,40,24,5,11,15,44,17,42,46,47,32,6,9,49,48,14,19,1,33,13,29,35,2,7,26,34,41,8,43,22,31,25,37,36,27,30,21,39,0,38,12,28,18],"trial_type":"store_order","trial_index":17,"time_elapsed":278866,"internal_node_id":"0.0-17.0"},{"result":126,"points":3,"place":0,"phase":0,"sequence":-1,"prices":[184,180,224,165,181,199,185,193,218,126],"times":[5886,4836,1753,1620,1245,1088,1716,941,952,1305],"next_num":10,"trial_type":"ticket-choose","trial_index":18,"time_elapsed":305052,"internal_node_id":"0.0-18.0"},{"rt":36737,"url":"\/tickets\/utils\/testing_after.html","trial_type":"html","trial_index":19,"time_elapsed":343132,"internal_node_id":"0.0-19.0"},{"result":179,"points":1,"place":4,"phase":0,"sequence":0,"prices":[124,220,136,165,185,234,143,225,228,179],"times":[6017,602,837,569,553,628,649,650,573,1347],"next_num":10,"trial_type":"ticket-choose","trial_index":20,"time_elapsed":360513,"internal_node_id":"0.0-20.0"},{"result":179,"points":1,"place":4,"phase":0,"sequence":1,"prices":[132,222,144,153,190,248,151,224,228,179],"times":[2804,562,553,603,690,692,1192,612,729,1185],"next_num":10,"trial_type":"ticket-choose","trial_index":21,"time_elapsed":374613,"internal_node_id":"0.0-21.0"},{"result":136,"points":2,"place":1,"phase":0,"sequence":2,"prices":[169,192,174,246,180,195,136,152,238,126],"times":[1216,594,968,644,777,659,1043],"next_num":7,"trial_type":"ticket-choose","trial_index":22,"time_elapsed":384028,"internal_node_id":"0.0-22.0"},{"result":154,"points":2,"place":1,"phase":0,"sequence":3,"prices":[169,193,154,255,178,194,176,158,239,126],"times":[1174,804,1449],"next_num":3,"trial_type":"ticket-choose","trial_index":23,"time_elapsed":390180,"internal_node_id":"0.0-23.0"},{"result":146,"points":1,"place":2,"phase":0,"sequence":4,"prices":[186,146,191,179,152,116,140,201,172,187],"times":[922,1264],"next_num":2,"trial_type":"ticket-choose","trial_index":24,"time_elapsed":394930,"internal_node_id":"0.0-24.0"},{"result":128,"points":3,"place":0,"phase":0,"sequence":5,"prices":[171,192,136,243,182,195,174,154,236,128],"times":[741,498,482,572,585,592,753,1122,656,828],"next_num":10,"trial_type":"ticket-choose","trial_index":25,"time_elapsed":405800,"internal_node_id":"0.0-25.0"},{"result":128,"points":3,"place":0,"phase":0,"sequence":6,"prices":[171,195,172,242,179,196,146,150,128,235],"times":[971,841,666,706,904,664,946,681,1026],"next_num":9,"trial_type":"ticket-choose","trial_index":26,"time_elapsed":416931,"internal_node_id":"0.0-26.0"},{"result":127,"points":3,"place":0,"phase":0,"sequence":7,"prices":[169,194,154,271,178,201,176,158,236,127],"times":[927,587,810,637,713,674,649,761,795,696],"next_num":10,"trial_type":"ticket-choose","trial_index":27,"time_elapsed":427905,"internal_node_id":"0.0-27.0"},{"result":136,"points":2,"place":1,"phase":0,"sequence":8,"prices":[173,194,136,239,182,200,174,150,236,127],"times":[686,575,952],"next_num":3,"trial_type":"ticket-choose","trial_index":28,"time_elapsed":432518,"internal_node_id":"0.0-28.0"},{"result":121,"points":3,"place":0,"phase":0,"sequence":9,"prices":[121,191,128,141,166,217,129,196,202,157],"times":[1130],"next_num":1,"trial_type":"ticket-choose","trial_index":29,"time_elapsed":435687,"internal_node_id":"0.0-29.0"},{"result":136,"points":2,"place":1,"phase":0,"sequence":10,"prices":[170,192,174,242,181,196,136,153,236,128],"times":[998,569,522,584,593,578,1175],"next_num":7,"trial_type":"ticket-choose","trial_index":30,"time_elapsed":443879,"internal_node_id":"0.0-30.0"},{"result":136,"points":2,"place":1,"phase":0,"sequence":11,"prices":[172,190,136,270,179,192,174,152,237,129],"times":[4561,537,1002],"next_num":3,"trial_type":"ticket-choose","trial_index":31,"time_elapsed":452363,"internal_node_id":"0.0-31.0"},{"result":125,"points":3,"place":0,"phase":0,"sequence":12,"prices":[168,191,172,240,183,193,146,151,125,238],"times":[1224,1428,601,594,586,578,809,723,1110],"next_num":9,"trial_type":"ticket-choose","trial_index":32,"time_elapsed":463494,"internal_node_id":"0.0-32.0"},{"result":125,"points":3,"place":0,"phase":0,"sequence":13,"prices":[169,192,176,244,178,194,154,159,237,125],"times":[665,618,649,632,627,625,672,601,593,688],"next_num":10,"trial_type":"ticket-choose","trial_index":33,"time_elapsed":473698,"internal_node_id":"0.0-33.0"},{"result":192,"points":1,"place":4,"phase":0,"sequence":14,"prices":[157,205,161,175,197,254,165,210,214,192],"times":[688,1866,576,504,515,602,553,751,631,985],"next_num":10,"trial_type":"ticket-choose","trial_index":34,"time_elapsed":485218,"internal_node_id":"0.0-34.0"},{"result":126,"points":3,"place":0,"phase":0,"sequence":15,"prices":[170,193,146,268,178,195,172,149,126,241],"times":[797,593,1571,618,792,585,585,664,1197],"next_num":9,"trial_type":"ticket-choose","trial_index":35,"time_elapsed":496228,"internal_node_id":"0.0-35.0"},{"result":124,"points":3,"place":0,"phase":0,"sequence":16,"prices":[216,206,158,145,224,185,124,149,175,162],"times":[741,579,633,1888,607,720,912],"next_num":7,"trial_type":"ticket-choose","trial_index":36,"time_elapsed":505371,"internal_node_id":"0.0-36.0"},{"result":127,"points":3,"place":0,"phase":0,"sequence":17,"prices":[171,191,172,268,179,194,146,150,127,239],"times":[645,538,559,505,570,633,920,622,991],"next_num":9,"trial_type":"ticket-choose","trial_index":37,"time_elapsed":514855,"internal_node_id":"0.0-37.0"},{"result":189,"points":1,"place":4,"phase":0,"sequence":18,"prices":[157,213,159,187,194,242,161,222,225,189],"times":[522,491,539,582,530,617,623,625,633,824],"next_num":10,"trial_type":"ticket-choose","trial_index":38,"time_elapsed":524713,"internal_node_id":"0.0-38.0"},{"result":126,"points":3,"place":0,"phase":0,"sequence":19,"prices":[168,191,146,252,183,193,172,153,126,238],"times":[1024,608,1076,632,617,864,993,1314,983],"next_num":9,"trial_type":"ticket-choose","trial_index":39,"time_elapsed":536229,"internal_node_id":"0.0-39.0"},{"result":132,"points":3,"place":0,"phase":0,"sequence":20,"prices":[168,192,176,242,183,197,154,156,237,132],"times":[728,459,423,1330,1246,545,555,867,676,706],"next_num":10,"trial_type":"ticket-choose","trial_index":40,"time_elapsed":547426,"internal_node_id":"0.0-40.0"},{"result":160,"points":1,"place":4,"phase":0,"sequence":21,"prices":[137,187,152,156,166,231,155,194,202,160],"times":[1729,498,415,450,570,605,562,585,646,761],"next_num":10,"trial_type":"ticket-choose","trial_index":41,"time_elapsed":558188,"internal_node_id":"0.0-41.0"},{"result":162,"points":1,"place":3,"phase":0,"sequence":22,"prices":[197,153,181,215,150,155,164,247,177,162],"times":[905,647,548,536,644,1979,631,610,620,731],"next_num":10,"trial_type":"ticket-choose","trial_index":42,"time_elapsed":569908,"internal_node_id":"0.0-42.0"},{"result":135,"points":3,"place":0,"phase":0,"sequence":23,"prices":[135,202,150,169,183,225,160,211,220,172],"times":[1737],"next_num":1,"trial_type":"ticket-choose","trial_index":43,"time_elapsed":573646,"internal_node_id":"0.0-43.0"},{"result":188,"points":1,"place":4,"phase":0,"sequence":24,"prices":[142,207,171,182,190,269,180,218,256,188],"times":[1229,582,624,646,577,575,799,586,634,754],"next_num":10,"trial_type":"ticket-choose","trial_index":44,"time_elapsed":584429,"internal_node_id":"0.0-44.0"},{"result":196,"points":1,"place":4,"phase":0,"sequence":25,"prices":[143,206,153,194,201,267,168,208,210,196],"times":[959,538,776,518,619,561,1451,616,609,838],"next_num":10,"trial_type":"ticket-choose","trial_index":45,"time_elapsed":595850,"internal_node_id":"0.0-45.0"},{"result":136,"points":3,"place":0,"phase":0,"sequence":26,"prices":[240,188,273,207,250,136,217,170,171,236],"times":[1131,963,769,633,691,1097],"next_num":6,"trial_type":"ticket-choose","trial_index":46,"time_elapsed":604064,"internal_node_id":"0.0-46.0"},{"result":164,"points":1,"place":3,"phase":0,"sequence":27,"prices":[155,129,164,189,210,108,187,241,174,275],"times":[643,555,1257],"next_num":3,"trial_type":"ticket-choose","trial_index":47,"time_elapsed":608896,"internal_node_id":"0.0-47.0"},{"result":146,"points":2,"place":1,"phase":0,"sequence":28,"prices":[173,191,146,242,178,194,172,152,126,235],"times":[1039,577,1105],"next_num":3,"trial_type":"ticket-choose","trial_index":48,"time_elapsed":614002,"internal_node_id":"0.0-48.0"},{"result":130,"points":2,"place":1,"phase":0,"sequence":29,"prices":[181,130,116,142,157,193,165,218,173,207],"times":[942,1088],"next_num":2,"trial_type":"ticket-choose","trial_index":49,"time_elapsed":618035,"internal_node_id":"0.0-49.0"},{"result":146,"points":2,"place":1,"phase":0,"sequence":30,"prices":[169,193,146,237,180,196,172,150,129,236],"times":[3886,552,2324],"next_num":3,"trial_type":"ticket-choose","trial_index":50,"time_elapsed":627249,"internal_node_id":"0.0-50.0"},{"result":136,"points":2,"place":1,"phase":0,"sequence":31,"prices":[173,191,174,270,180,193,136,153,239,129],"times":[948,666,578,601,610,792,1016],"next_num":7,"trial_type":"ticket-choose","trial_index":51,"time_elapsed":635444,"internal_node_id":"0.0-51.0"},{"result":117,"points":3,"place":0,"phase":0,"sequence":32,"prices":[117,161,120,147,153,259,144,191,195,149],"times":[2594],"next_num":1,"trial_type":"ticket-choose","trial_index":52,"time_elapsed":640346,"internal_node_id":"0.0-52.0"},{"result":159,"points":2,"place":1,"phase":0,"sequence":33,"prices":[221,193,135,188,217,179,196,190,175,159],"times":[1104,564,543,610,651,682,719,691,881,745],"next_num":10,"trial_type":"ticket-choose","trial_index":53,"time_elapsed":651380,"internal_node_id":"0.0-53.0"},{"result":131,"points":2,"place":1,"phase":0,"sequence":34,"prices":[221,234,131,136,132,149,154,90,176,173],"times":[951,624,874],"next_num":3,"trial_type":"ticket-choose","trial_index":54,"time_elapsed":656090,"internal_node_id":"0.0-54.0"},{"result":136,"points":2,"place":1,"phase":0,"sequence":35,"prices":[171,192,136,265,180,194,174,152,239,127],"times":[660,571,906],"next_num":3,"trial_type":"ticket-choose","trial_index":55,"time_elapsed":660470,"internal_node_id":"0.0-55.0"},{"result":133,"points":3,"place":0,"phase":0,"sequence":36,"prices":[169,191,154,268,183,197,176,155,236,133],"times":[673,556,1208,584,793,690,937,1034,634,850],"next_num":10,"trial_type":"ticket-choose","trial_index":56,"time_elapsed":672122,"internal_node_id":"0.0-56.0"},{"result":126,"points":3,"place":0,"phase":0,"sequence":37,"prices":[170,193,176,245,178,194,154,159,236,126],"times":[4859,642,619,585,598,611,1425,593,639,705],"next_num":10,"trial_type":"ticket-choose","trial_index":57,"time_elapsed":687407,"internal_node_id":"0.0-57.0"},{"result":105,"points":3,"place":0,"phase":0,"sequence":38,"prices":[263,165,224,214,105,230,215,185,177,193],"times":[1100,540,680,553,1094],"next_num":5,"trial_type":"ticket-choose","trial_index":58,"time_elapsed":694131,"internal_node_id":"0.0-58.0"},{"result":128,"points":3,"place":0,"phase":0,"sequence":39,"prices":[196,221,149,164,216,167,175,128,176,181],"times":[707,548,899,626,570,771,632,1017],"next_num":8,"trial_type":"ticket-choose","trial_index":59,"time_elapsed":703145,"internal_node_id":"0.0-59.0"},{"result":161,"points":1,"place":3,"phase":0,"sequence":40,"prices":[219,183,227,124,176,161,140,129,171,201],"times":[1072,5521,626,962,981,1205],"next_num":6,"trial_type":"ticket-choose","trial_index":60,"time_elapsed":716379,"internal_node_id":"0.0-60.0"},{"result":146,"points":2,"place":1,"phase":0,"sequence":41,"prices":[172,191,176,272,179,194,146,152,126,235],"times":[3635,640,580,545,577,627,1256],"next_num":7,"trial_type":"ticket-choose","trial_index":61,"time_elapsed":727465,"internal_node_id":"0.0-61.0"},{"result":159,"points":1,"place":2,"phase":0,"sequence":42,"prices":[244,203,196,189,154,206,197,149,171,159],"times":[926,609,556,566,859,610,625,1856,658,870],"next_num":10,"trial_type":"ticket-choose","trial_index":62,"time_elapsed":739260,"internal_node_id":"0.0-62.0"},{"result":138,"points":1,"place":2,"phase":0,"sequence":43,"prices":[181,138,118,170,190,101,146,169,175,233],"times":[704,1104],"next_num":2,"trial_type":"ticket-choose","trial_index":63,"time_elapsed":743167,"internal_node_id":"0.0-63.0"},{"result":131,"points":3,"place":0,"phase":0,"sequence":44,"prices":[170,190,176,251,183,192,154,157,236,131],"times":[930,601,666,619,632,2040,1022,863,586,690],"next_num":10,"trial_type":"ticket-choose","trial_index":64,"time_elapsed":755511,"internal_node_id":"0.0-64.0"},{"result":119,"points":3,"place":0,"phase":0,"sequence":45,"prices":[198,119,169,141,195,233,136,208,177,217],"times":[952,1159],"next_num":2,"trial_type":"ticket-choose","trial_index":65,"time_elapsed":759571,"internal_node_id":"0.0-65.0"},{"result":133,"points":3,"place":0,"phase":0,"sequence":46,"prices":[168,192,154,237,182,196,176,156,235,133],"times":[745,704,610,634,770,729,603,847,548,760],"next_num":10,"trial_type":"ticket-choose","trial_index":66,"time_elapsed":770129,"internal_node_id":"0.0-66.0"},{"result":114,"points":3,"place":0,"phase":0,"sequence":47,"prices":[182,249,159,114,184,205,175,189,172,178],"times":[700,548,508,1129],"next_num":4,"trial_type":"ticket-choose","trial_index":67,"time_elapsed":775350,"internal_node_id":"0.0-67.0"},{"result":152,"points":2,"place":1,"phase":0,"sequence":48,"prices":[156,218,212,216,191,210,275,146,174,152],"times":[633,527,570,531,553,581,531,827,646,796],"next_num":10,"trial_type":"ticket-choose","trial_index":68,"time_elapsed":785248,"internal_node_id":"0.0-68.0"},{"result":136,"points":2,"place":1,"phase":0,"sequence":49,"prices":[172,194,174,243,182,193,136,150,237,126],"times":[1595,521,482,531,569,593,1119],"next_num":7,"trial_type":"ticket-choose","trial_index":69,"time_elapsed":793615,"internal_node_id":"0.0-69.0"},{"responses":[{"value":0,"offby":-1,"category":"$90 - $120","category_index":0},{"value":15,"offby":12,"category":"$121 - $145","category_index":1},{"value":5,"offby":2,"category":"$146 - $170","category_index":2},{"value":0,"offby":-6,"category":"$171 - $195","category_index":3},{"value":0,"offby":-4,"category":"$196 - $220","category_index":4},{"value":0,"offby":-2,"category":"$221 - $245","category_index":5},{"value":0,"offby":-1,"category":"$246 - $270","category_index":6}],"phase":0,"number":1,"trial_type":"bar-choose","trial_index":70,"time_elapsed":812975,"internal_node_id":"0.0-70.0"},{"rt":6633,"url":"\/tickets\/utils\/start2.html","trial_type":"html","trial_index":71,"time_elapsed":820947,"internal_node_id":"0.0-71.0"},{"trial_type":"number-animation","trial_index":72,"time_elapsed":832948,"internal_node_id":"0.0-72.0"},{"phase":1,"sequence":0,"avg":181,"response":170,"trial_type":"training_avg","trial_index":73,"time_elapsed":839706,"internal_node_id":"0.0-73.0"},{"trial_type":"number-animation","trial_index":74,"time_elapsed":848891,"internal_node_id":"0.0-74.0"},{"phase":1,"sequence":1,"avg":188,"response":170,"trial_type":"training_avg","trial_index":75,"time_elapsed":854842,"internal_node_id":"0.0-75.0"},{"trial_type":"number-animation","trial_index":76,"time_elapsed":864082,"internal_node_id":"0.0-76.0"},{"phase":1,"sequence":2,"avg":188,"response":186,"trial_type":"training_avg","trial_index":77,"time_elapsed":870825,"internal_node_id":"0.0-77.0"},{"trial_type":"number-animation","trial_index":78,"time_elapsed":879400,"internal_node_id":"0.0-78.0"},{"phase":1,"sequence":3,"avg":177,"response":168,"trial_type":"training_avg","trial_index":79,"time_elapsed":886857,"internal_node_id":"0.0-79.0"},{"trial_type":"number-animation","trial_index":80,"time_elapsed":896051,"internal_node_id":"0.0-80.0"},{"phase":1,"sequence":4,"avg":182,"response":174,"trial_type":"training_avg","trial_index":81,"time_elapsed":902374,"internal_node_id":"0.0-81.0"},{"responses":[{"value":0,"offby":0,"category":"$106 - $134","category_index":0},{"value":0,"offby":-1,"category":"$135 - $150","category_index":1},{"value":0,"offby":-3,"category":"$151 - $165","category_index":2},{"value":10,"offby":4,"category":"$166 - $180","category_index":3},{"value":10,"offby":4,"category":"$181 - $195","category_index":4},{"value":0,"offby":-3,"category":"$196 - $210","category_index":5},{"value":0,"offby":-1,"category":"$211 - $225","category_index":6}],"phase":1,"number":0,"trial_type":"bar-choose","trial_index":82,"time_elapsed":916056,"internal_node_id":"0.0-82.0"},{"rt":15166,"url":"\/tickets\/utils\/testing2.html","trial_type":"html","trial_index":83,"time_elapsed":932554,"internal_node_id":"0.0-83.0"},{"phase":1,"order":[26,25,20,10,49,17,5,11,18,29,21,19,6,14,27,3,37,7,28,2,12,33,39,30,24,32,46,35,0,34,1,23,31,43,41,16,9,15,42,36,47,4,45,44,13,40,8,48,38,22],"trial_type":"store_order","trial_index":84,"time_elapsed":933557,"internal_node_id":"0.0-84.0"},{"result":164,"points":3,"place":0,"phase":1,"sequence":0,"prices":[212,192,188,184,167,193,189,164,176,170],"times":[11324,786,752,840,943,1077,561,2008],"next_num":8,"trial_type":"ticket-choose","trial_index":85,"time_elapsed":955517,"internal_node_id":"0.0-85.0"},{"result":175,"points":1,"place":3,"phase":1,"sequence":1,"prices":[175,186,163,211,179,187,176,165,153,210],"times":[1852],"next_num":1,"trial_type":"ticket-choose","trial_index":86,"time_elapsed":959354,"internal_node_id":"0.0-86.0"},{"result":158,"points":2,"place":1,"phase":1,"sequence":2,"prices":[175,186,158,211,180,187,177,166,209,153],"times":[779,492,1365],"next_num":3,"trial_type":"ticket-choose","trial_index":87,"time_elapsed":964277,"internal_node_id":"0.0-87.0"},{"result":158,"points":2,"place":1,"phase":1,"sequence":3,"prices":[176,185,177,218,180,186,158,166,209,154],"times":[12541,404,522,499,551,617,1081],"next_num":7,"trial_type":"ticket-choose","trial_index":88,"time_elapsed":983614,"internal_node_id":"0.0-88.0"},{"result":153,"points":3,"place":0,"phase":1,"sequence":4,"prices":[175,186,177,221,180,187,158,166,209,153],"times":[692,546,410,428,538,530,845,560,554,674],"next_num":10,"trial_type":"ticket-choose","trial_index":89,"time_elapsed":993334,"internal_node_id":"0.0-89.0"},{"result":153,"points":3,"place":0,"phase":1,"sequence":5,"prices":[176,186,176,210,179,187,163,166,153,208],"times":[803,2697,522,452,535,521,564,569,1077],"next_num":9,"trial_type":"ticket-choose","trial_index":90,"time_elapsed":1004509,"internal_node_id":"0.0-90.0"},{"result":153,"points":3,"place":0,"phase":1,"sequence":6,"prices":[175,186,167,225,179,187,178,169,209,153],"times":[793,585,1675,594,562,538,570,791,562,608],"next_num":10,"trial_type":"ticket-choose","trial_index":91,"time_elapsed":1015427,"internal_node_id":"0.0-91.0"},{"result":150,"points":3,"place":0,"phase":1,"sequence":7,"prices":[189,150,175,160,188,207,158,194,178,199],"times":[721,784],"next_num":2,"trial_type":"ticket-choose","trial_index":92,"time_elapsed":1018810,"internal_node_id":"0.0-92.0"},{"result":184,"points":1,"place":4,"phase":1,"sequence":8,"prices":[161,193,175,181,185,224,180,199,218,184],"times":[1277,558,594,516,544,553,697,626,560,660],"next_num":10,"trial_type":"ticket-choose","trial_index":93,"time_elapsed":1028959,"internal_node_id":"0.0-93.0"},{"result":208,"points":0,"place":8,"phase":1,"sequence":9,"prices":[175,187,176,209,180,188,163,165,154,208],"times":[18119,369,449,783,540,559,546,571,641,1202],"next_num":10,"trial_type":"ticket-choose","trial_index":94,"time_elapsed":1057218,"internal_node_id":"0.0-94.0"},{"result":153,"points":3,"place":0,"phase":1,"sequence":10,"prices":[175,187,167,212,179,187,178,169,208,153],"times":[1162,617,547,537,919,1374,672,824,587,622],"next_num":10,"trial_type":"ticket-choose","trial_index":95,"time_elapsed":1068724,"internal_node_id":"0.0-95.0"},{"result":153,"points":3,"place":0,"phase":1,"sequence":11,"prices":[175,187,178,209,179,187,167,169,208,153],"times":[649,736,594,514,625,626,570,568,603,546],"next_num":10,"trial_type":"ticket-choose","trial_index":96,"time_elapsed":1078410,"internal_node_id":"0.0-96.0"},{"result":159,"points":1,"place":2,"phase":1,"sequence":12,"prices":[180,159,149,175,185,141,163,174,178,207],"times":[687,1016],"next_num":2,"trial_type":"ticket-choose","trial_index":97,"time_elapsed":1082008,"internal_node_id":"0.0-97.0"},{"result":158,"points":2,"place":1,"phase":1,"sequence":13,"prices":[175,186,158,209,181,188,177,167,208,154],"times":[656,567,1114],"next_num":3,"trial_type":"ticket-choose","trial_index":98,"time_elapsed":1086658,"internal_node_id":"0.0-98.0"},{"result":143,"points":3,"place":0,"phase":1,"sequence":14,"prices":[222,173,202,197,143,205,198,183,178,186],"times":[654,609,618,537,1000],"next_num":5,"trial_type":"ticket-choose","trial_index":99,"time_elapsed":1092618,"internal_node_id":"0.0-99.0"},{"result":158,"points":3,"place":0,"phase":1,"sequence":15,"prices":[210,184,226,193,215,158,199,175,176,208],"times":[566,684,555,623,627,1153],"next_num":6,"trial_type":"ticket-choose","trial_index":100,"time_elapsed":1099581,"internal_node_id":"0.0-100.0"},{"result":152,"points":3,"place":0,"phase":1,"sequence":16,"prices":[200,181,203,152,175,171,160,154,176,191],"times":[689,555,749,873],"next_num":4,"trial_type":"ticket-choose","trial_index":101,"time_elapsed":1104827,"internal_node_id":"0.0-101.0"},{"result":188,"points":1,"place":4,"phase":1,"sequence":17,"prices":[161,193,167,187,190,224,174,194,195,188],"times":[1677,545,649,536,540,538,529,594,618,682],"next_num":10,"trial_type":"ticket-choose","trial_index":102,"time_elapsed":1115357,"internal_node_id":"0.0-102.0"},{"result":209,"points":0,"place":8,"phase":1,"sequence":18,"prices":[174,186,176,217,181,187,163,166,153,209],"times":[561,783,605,619,562,546,1010,936,562,818],"next_num":10,"trial_type":"ticket-choose","trial_index":103,"time_elapsed":1126323,"internal_node_id":"0.0-103.0"},{"result":156,"points":3,"place":0,"phase":1,"sequence":19,"prices":[175,185,167,224,181,186,178,168,208,156],"times":[1170,569,537,635,662,629,610,963,665,521],"next_num":10,"trial_type":"ticket-choose","trial_index":104,"time_elapsed":1136854,"internal_node_id":"0.0-104.0"},{"result":148,"points":3,"place":0,"phase":1,"sequence":20,"prices":[183,163,185,180,166,148,160,186,176,184],"times":[610,1046,657,666,802,1008],"next_num":6,"trial_type":"ticket-choose","trial_index":105,"time_elapsed":1144488,"internal_node_id":"0.0-105.0"},{"result":147,"points":3,"place":0,"phase":1,"sequence":21,"prices":[181,215,169,147,182,193,177,184,176,179],"times":[695,611,1057,1032],"next_num":4,"trial_type":"ticket-choose","trial_index":106,"time_elapsed":1150301,"internal_node_id":"0.0-106.0"},{"result":153,"points":3,"place":0,"phase":1,"sequence":22,"prices":[175,186,178,212,179,187,167,169,209,153],"times":[730,633,802,626,642,617,856,684,625,465],"next_num":10,"trial_type":"ticket-choose","trial_index":107,"time_elapsed":1160603,"internal_node_id":"0.0-107.0"},{"result":158,"points":2,"place":1,"phase":1,"sequence":23,"prices":[176,185,158,217,180,186,177,166,209,154],"times":[1671,506,1010],"next_num":3,"trial_type":"ticket-choose","trial_index":108,"time_elapsed":1165920,"internal_node_id":"0.0-108.0"},{"result":154,"points":3,"place":0,"phase":1,"sequence":24,"prices":[175,187,163,209,180,188,176,165,154,208],"times":[478,544,796,559,576,625,634,919,1035],"next_num":9,"trial_type":"ticket-choose","trial_index":109,"time_elapsed":1175408,"internal_node_id":"0.0-109.0"},{"result":159,"points":3,"place":0,"phase":1,"sequence":25,"prices":[159,183,166,168,173,205,167,187,191,170],"times":[885],"next_num":1,"trial_type":"ticket-choose","trial_index":110,"time_elapsed":1178051,"internal_node_id":"0.0-110.0"},{"result":156,"points":3,"place":0,"phase":1,"sequence":26,"prices":[175,185,178,215,181,186,167,168,208,156],"times":[743,537,760,591,593,577,591,602,629,478],"next_num":10,"trial_type":"ticket-choose","trial_index":111,"time_elapsed":1187729,"internal_node_id":"0.0-111.0"},{"result":150,"points":3,"place":0,"phase":1,"sequence":27,"prices":[150,185,154,161,173,199,155,188,191,168],"times":[1200],"next_num":1,"trial_type":"ticket-choose","trial_index":112,"time_elapsed":1190644,"internal_node_id":"0.0-112.0"},{"result":154,"points":2,"place":1,"phase":1,"sequence":28,"prices":[168,154,172,185,195,144,184,211,177,227],"times":[1053,936],"next_num":2,"trial_type":"ticket-choose","trial_index":113,"time_elapsed":1194530,"internal_node_id":"0.0-113.0"},{"result":163,"points":2,"place":1,"phase":1,"sequence":29,"prices":[174,186,163,212,181,187,176,166,153,209],"times":[1078,663,1176],"next_num":3,"trial_type":"ticket-choose","trial_index":114,"time_elapsed":1199744,"internal_node_id":"0.0-114.0"},{"result":153,"points":3,"place":0,"phase":1,"sequence":30,"prices":[175,186,176,224,179,187,163,165,153,210],"times":[592,556,569,1158,4083,591,811,783,935],"next_num":9,"trial_type":"ticket-choose","trial_index":115,"time_elapsed":1213659,"internal_node_id":"0.0-115.0"},{"result":152,"points":3,"place":0,"phase":1,"sequence":31,"prices":[152,200,158,173,182,207,161,202,204,180],"times":[943],"next_num":1,"trial_type":"ticket-choose","trial_index":116,"time_elapsed":1216415,"internal_node_id":"0.0-116.0"},{"result":155,"points":2,"place":1,"phase":1,"sequence":32,"prices":[181,155,148,161,168,187,172,199,176,194],"times":[951,785],"next_num":2,"trial_type":"ticket-choose","trial_index":117,"time_elapsed":1220142,"internal_node_id":"0.0-117.0"},{"result":155,"points":2,"place":1,"phase":1,"sequence":33,"prices":[201,207,155,158,156,165,167,135,178,177],"times":[920,702,1485],"next_num":3,"trial_type":"ticket-choose","trial_index":118,"time_elapsed":1225356,"internal_node_id":"0.0-118.0"},{"result":156,"points":3,"place":0,"phase":1,"sequence":34,"prices":[174,186,167,211,181,188,178,168,208,156],"times":[620,562,520,610,540,546,593,658,635,519],"next_num":10,"trial_type":"ticket-choose","trial_index":119,"time_elapsed":1234848,"internal_node_id":"0.0-119.0"},{"result":157,"points":3,"place":0,"phase":1,"sequence":35,"prices":[201,187,157,184,198,179,188,185,178,170],"times":[836,525,974],"next_num":3,"trial_type":"ticket-choose","trial_index":120,"time_elapsed":1239312,"internal_node_id":"0.0-120.0"},{"result":158,"points":2,"place":1,"phase":1,"sequence":36,"prices":[176,187,177,225,181,187,158,165,208,153],"times":[620,578,627,577,619,563,936],"next_num":7,"trial_type":"ticket-choose","trial_index":121,"time_elapsed":1246773,"internal_node_id":"0.0-121.0"},{"result":148,"points":3,"place":0,"phase":1,"sequence":37,"prices":[148,171,150,163,167,220,162,186,187,165],"times":[1138],"next_num":1,"trial_type":"ticket-choose","trial_index":122,"time_elapsed":1249593,"internal_node_id":"0.0-122.0"},{"result":156,"points":3,"place":0,"phase":1,"sequence":38,"prices":[156,201,162,166,185,214,165,202,204,179],"times":[1464],"next_num":1,"trial_type":"ticket-choose","trial_index":123,"time_elapsed":1252827,"internal_node_id":"0.0-123.0"},{"result":152,"points":3,"place":0,"phase":1,"sequence":39,"prices":[198,193,169,163,202,182,152,164,177,171],"times":[1195,563,515,554,642,602,937],"next_num":7,"trial_type":"ticket-choose","trial_index":124,"time_elapsed":1260760,"internal_node_id":"0.0-124.0"},{"result":154,"points":3,"place":0,"phase":1,"sequence":40,"prices":[188,200,165,172,198,174,177,154,177,180],"times":[982,593,784,585,548,546,587,978],"next_num":8,"trial_type":"ticket-choose","trial_index":125,"time_elapsed":1269807,"internal_node_id":"0.0-125.0"},{"result":186,"points":1,"place":4,"phase":1,"sequence":41,"prices":[168,192,171,178,188,217,172,195,197,186],"times":[800,482,538,514,553,586,586,600,609,490],"next_num":10,"trial_type":"ticket-choose","trial_index":126,"time_elapsed":1279304,"internal_node_id":"0.0-126.0"},{"result":176,"points":1,"place":4,"phase":1,"sequence":42,"prices":[157,191,165,175,182,203,170,195,200,176],"times":[844,759,441,638,588,671,625,649,628,676],"next_num":10,"trial_type":"ticket-choose","trial_index":127,"time_elapsed":1289412,"internal_node_id":"0.0-127.0"},{"result":158,"points":2,"place":1,"phase":1,"sequence":43,"prices":[175,186,177,209,181,188,158,167,208,154],"times":[648,642,658,519,624,568,946],"next_num":7,"trial_type":"ticket-choose","trial_index":128,"time_elapsed":1297145,"internal_node_id":"0.0-128.0"},{"result":165,"points":3,"place":0,"phase":1,"sequence":44,"prices":[189,167,180,197,165,168,172,213,178,171],"times":[894,642,658,585,881],"next_num":5,"trial_type":"ticket-choose","trial_index":129,"time_elapsed":1303360,"internal_node_id":"0.0-129.0"},{"result":163,"points":2,"place":1,"phase":1,"sequence":45,"prices":[176,186,163,214,179,187,176,166,153,208],"times":[870,548,904],"next_num":3,"trial_type":"ticket-choose","trial_index":130,"time_elapsed":1307874,"internal_node_id":"0.0-130.0"},{"result":163,"points":3,"place":0,"phase":1,"sequence":46,"prices":[168,199,196,198,185,195,227,163,177,166],"times":[734,553,538,537,560,754,641,1493],"next_num":8,"trial_type":"ticket-choose","trial_index":131,"time_elapsed":1316912,"internal_node_id":"0.0-131.0"},{"result":167,"points":2,"place":1,"phase":1,"sequence":47,"prices":[174,186,178,217,181,188,167,168,208,156],"times":[956,590,553,608,657,585,964],"next_num":7,"trial_type":"ticket-choose","trial_index":132,"time_elapsed":1324848,"internal_node_id":"0.0-132.0"},{"result":170,"points":2,"place":1,"phase":1,"sequence":48,"prices":[169,196,170,184,187,211,171,201,202,185],"times":[7169,2862,2585],"next_num":3,"trial_type":"ticket-choose","trial_index":133,"time_elapsed":1340236,"internal_node_id":"0.0-133.0"},{"result":165,"points":1,"place":2,"phase":1,"sequence":49,"prices":[176,187,158,210,181,187,177,165,208,153],"times":[1081,423,380,691,768,585,1424,935],"next_num":8,"trial_type":"ticket-choose","trial_index":134,"time_elapsed":1349736,"internal_node_id":"0.0-134.0"},{"responses":[{"value":0,"offby":0,"category":"$106 - $134","category_index":0},{"value":0,"offby":-1,"category":"$135 - $150","category_index":1},{"value":20,"offby":17,"category":"$151 - $165","category_index":2},{"value":0,"offby":-6,"category":"$166 - $180","category_index":3},{"value":0,"offby":-6,"category":"$181 - $195","category_index":4},{"value":0,"offby":-3,"category":"$196 - $210","category_index":5},{"value":0,"offby":-1,"category":"$211 - $225","category_index":6}],"phase":1,"number":1,"trial_type":"bar-choose","trial_index":135,"time_elapsed":1362527,"internal_node_id":"0.0-135.0"},{"special_comment":"notreally","trial_type":"special_sequence","trial_index":136,"time_elapsed":1371934,"internal_node_id":"0.0-136.0"},{"during":"Nothing","bonus":300,"trial_type":"final","trial_index":137,"time_elapsed":1437755,"internal_node_id":"0.0-137.0"}],"bonus":300}