{"start_time":"2017-02-03 13:34:43","end_time":"2017-02-03 14:01:57","points_phase0":106,"points_phase1":98,"phase_order":0,"age":38,"gender":"f","tries":1,"during":"Nothing","worker_id":"A3RL02A3JRAUS4","assignment_id":"3RSDURM96BFPW3LNIFNFB6CGLDTEYG","data":[{"rt":24800,"url":"\/tickets\/utils\/consent.html","trial_type":"html","trial_index":0,"time_elapsed":24893,"internal_node_id":"0.0-0.0"},{"age":38,"gender":"f","trial_type":"age","trial_index":1,"time_elapsed":33359,"internal_node_id":"0.0-1.0"},{"worker_id":"A3RL02A3JRAUS4","trial_type":"workerid","trial_index":2,"time_elapsed":49036,"internal_node_id":"0.0-2.0"},{"tries":1,"trial_type":"instructions_check","trial_index":3,"time_elapsed":92993,"internal_node_id":"0.0-3.0"},{"rt":28708,"url":"\/tickets\/utils\/start.html","trial_type":"html","trial_index":4,"time_elapsed":122818,"internal_node_id":"0.0-4.0"},{"trial_type":"number-animation","trial_index":5,"time_elapsed":156006,"internal_node_id":"0.0-5.0"},{"phase":0,"sequence":0,"avg":181,"response":175,"trial_type":"training_avg","trial_index":6,"time_elapsed":173540,"internal_node_id":"0.0-6.0"},{"trial_type":"number-animation","trial_index":7,"time_elapsed":206829,"internal_node_id":"0.0-7.0"},{"phase":0,"sequence":1,"avg":188,"response":183,"trial_type":"training_avg","trial_index":8,"time_elapsed":219424,"internal_node_id":"0.0-8.0"},{"trial_type":"number-animation","trial_index":9,"time_elapsed":252739,"internal_node_id":"0.0-9.0"},{"phase":0,"sequence":2,"avg":188,"response":190,"trial_type":"training_avg","trial_index":10,"time_elapsed":275447,"internal_node_id":"0.0-10.0"},{"trial_type":"number-animation","trial_index":11,"time_elapsed":309291,"internal_node_id":"0.0-11.0"},{"phase":0,"sequence":3,"avg":177,"response":180,"trial_type":"training_avg","trial_index":12,"time_elapsed":332319,"internal_node_id":"0.0-12.0"},{"trial_type":"number-animation","trial_index":13,"time_elapsed":362089,"internal_node_id":"0.0-13.0"},{"phase":0,"sequence":4,"avg":182,"response":179,"trial_type":"training_avg","trial_index":14,"time_elapsed":382012,"internal_node_id":"0.0-14.0"},{"responses":[{"value":0,"offby":0,"category":"$106 - $134","category_index":0},{"value":1,"offby":0,"category":"$135 - $150","category_index":1},{"value":1,"offby":-2,"category":"$151 - $165","category_index":2},{"value":1,"offby":-5,"category":"$166 - $180","category_index":3},{"value":5,"offby":-1,"category":"$181 - $195","category_index":4},{"value":8,"offby":5,"category":"$196 - $210","category_index":5},{"value":4,"offby":3,"category":"$211 - $225","category_index":6}],"phase":0,"number":0,"trial_type":"bar-choose","trial_index":15,"time_elapsed":481271,"internal_node_id":"0.0-15.0"},{"rt":33250,"url":"\/tickets\/\/utils\/testing.html","trial_type":"html","trial_index":16,"time_elapsed":515828,"internal_node_id":"0.0-16.0"},{"phase":0,"order":[44,28,48,32,2,14,40,0,9,33,37,15,20,16,41,47,46,8,25,19,18,12,34,24,7,1,31,26,42,23,36,5,45,10,38,13,3,39,11,35,49,6,21,17,4,43,29,22,30,27],"trial_type":"store_order","trial_index":17,"time_elapsed":516830,"internal_node_id":"0.0-17.0"},{"result":126,"points":3,"place":0,"phase":0,"sequence":-1,"times":[4652,2214,1149,4335,663,670,637,1542,1542,3719],"next_num":10,"trial_type":"ticket-choose","trial_index":18,"time_elapsed":542831,"internal_node_id":"0.0-18.0"},{"rt":43055,"url":"\/tickets\/utils\/testing_after.html","trial_type":"html","trial_index":19,"time_elapsed":587003,"internal_node_id":"0.0-19.0"},{"result":149,"points":2,"place":1,"phase":0,"sequence":0,"times":[4152,2622,3594],"next_num":3,"trial_type":"ticket-choose","trial_index":20,"time_elapsed":602606,"internal_node_id":"0.0-20.0"},{"result":174,"points":1,"place":2,"phase":0,"sequence":1,"times":[1176,686,1181,670,628,1254,14712],"next_num":7,"trial_type":"ticket-choose","trial_index":21,"time_elapsed":628114,"internal_node_id":"0.0-21.0"},{"result":147,"points":3,"place":0,"phase":0,"sequence":2,"times":[1690,685,2806,1406],"next_num":4,"trial_type":"ticket-choose","trial_index":22,"time_elapsed":640676,"internal_node_id":"0.0-22.0"},{"result":146,"points":3,"place":0,"phase":0,"sequence":3,"times":[1190,683,1271],"next_num":3,"trial_type":"ticket-choose","trial_index":23,"time_elapsed":648010,"internal_node_id":"0.0-23.0"},{"result":153,"points":3,"place":0,"phase":0,"sequence":4,"times":[1279,743,735,613,628,611,609,634,1036,1559],"next_num":10,"trial_type":"ticket-choose","trial_index":24,"time_elapsed":661004,"internal_node_id":"0.0-24.0"},{"result":171,"points":2,"place":1,"phase":0,"sequence":5,"times":[1322,630,590,613,702,677,1726],"next_num":7,"trial_type":"ticket-choose","trial_index":25,"time_elapsed":672414,"internal_node_id":"0.0-25.0"},{"result":158,"points":2,"place":1,"phase":0,"sequence":6,"times":[1780,581,569,2170,584,590,3391],"next_num":7,"trial_type":"ticket-choose","trial_index":26,"time_elapsed":685855,"internal_node_id":"0.0-26.0"},{"result":158,"points":2,"place":1,"phase":0,"sequence":7,"times":[1291,636,1056],"next_num":3,"trial_type":"ticket-choose","trial_index":27,"time_elapsed":692288,"internal_node_id":"0.0-27.0"},{"result":167,"points":1,"place":2,"phase":0,"sequence":8,"times":[1260,661,1109,582,564,550,1479],"next_num":7,"trial_type":"ticket-choose","trial_index":28,"time_elapsed":702740,"internal_node_id":"0.0-28.0"},{"result":155,"points":3,"place":0,"phase":0,"sequence":9,"times":[1043,1095],"next_num":2,"trial_type":"ticket-choose","trial_index":29,"time_elapsed":708588,"internal_node_id":"0.0-29.0"},{"result":152,"points":3,"place":0,"phase":0,"sequence":10,"times":[1193,573,1343,639,583,614,1058],"next_num":7,"trial_type":"ticket-choose","trial_index":30,"time_elapsed":718206,"internal_node_id":"0.0-30.0"},{"result":166,"points":2,"place":1,"phase":0,"sequence":11,"times":[1122,758,1270,629,566,623,1452],"next_num":7,"trial_type":"ticket-choose","trial_index":31,"time_elapsed":728374,"internal_node_id":"0.0-31.0"},{"result":184,"points":1,"place":4,"phase":0,"sequence":12,"times":[1858,582,630,764,733,607,601,596,615,1750],"next_num":10,"trial_type":"ticket-choose","trial_index":32,"time_elapsed":741536,"internal_node_id":"0.0-32.0"},{"result":167,"points":1,"place":3,"phase":0,"sequence":13,"times":[1218,591,1014],"next_num":3,"trial_type":"ticket-choose","trial_index":33,"time_elapsed":747098,"internal_node_id":"0.0-33.0"},{"result":155,"points":2,"place":1,"phase":0,"sequence":14,"times":[991,523,1070],"next_num":3,"trial_type":"ticket-choose","trial_index":34,"time_elapsed":752578,"internal_node_id":"0.0-34.0"},{"result":152,"points":3,"place":0,"phase":0,"sequence":15,"times":[1387,1588,606,1094],"next_num":4,"trial_type":"ticket-choose","trial_index":35,"time_elapsed":761011,"internal_node_id":"0.0-35.0"},{"result":158,"points":3,"place":0,"phase":0,"sequence":16,"times":[1127,717,549,646,685,1053],"next_num":6,"trial_type":"ticket-choose","trial_index":36,"time_elapsed":769300,"internal_node_id":"0.0-36.0"},{"result":167,"points":2,"place":1,"phase":0,"sequence":17,"times":[1205,589,1040],"next_num":3,"trial_type":"ticket-choose","trial_index":37,"time_elapsed":774638,"internal_node_id":"0.0-37.0"},{"result":150,"points":3,"place":0,"phase":0,"sequence":18,"times":[1408],"next_num":1,"trial_type":"ticket-choose","trial_index":38,"time_elapsed":778836,"internal_node_id":"0.0-38.0"},{"result":158,"points":3,"place":0,"phase":0,"sequence":19,"times":[1337,614,685,627,695,647,708,1071,1012],"next_num":9,"trial_type":"ticket-choose","trial_index":39,"time_elapsed":791229,"internal_node_id":"0.0-39.0"},{"result":165,"points":2,"place":1,"phase":0,"sequence":20,"times":[1134,595,739,581,575,670,996],"next_num":7,"trial_type":"ticket-choose","trial_index":40,"time_elapsed":799936,"internal_node_id":"0.0-40.0"},{"result":170,"points":2,"place":1,"phase":0,"sequence":21,"times":[1037,598,574,613,578,583,1093],"next_num":7,"trial_type":"ticket-choose","trial_index":41,"time_elapsed":808688,"internal_node_id":"0.0-41.0"},{"result":155,"points":2,"place":1,"phase":0,"sequence":22,"times":[1148,949],"next_num":2,"trial_type":"ticket-choose","trial_index":42,"time_elapsed":813224,"internal_node_id":"0.0-42.0"},{"result":185,"points":1,"place":4,"phase":0,"sequence":23,"times":[1408,606,1085,598,839,598,623,574,637,904],"next_num":10,"trial_type":"ticket-choose","trial_index":43,"time_elapsed":825106,"internal_node_id":"0.0-43.0"},{"result":171,"points":2,"place":1,"phase":0,"sequence":24,"times":[893,598,998],"next_num":3,"trial_type":"ticket-choose","trial_index":44,"time_elapsed":830778,"internal_node_id":"0.0-44.0"},{"result":162,"points":2,"place":1,"phase":0,"sequence":25,"times":[1346,581,1076],"next_num":3,"trial_type":"ticket-choose","trial_index":45,"time_elapsed":836685,"internal_node_id":"0.0-45.0"},{"result":162,"points":1,"place":2,"phase":0,"sequence":26,"times":[1322],"next_num":1,"trial_type":"ticket-choose","trial_index":46,"time_elapsed":840468,"internal_node_id":"0.0-46.0"},{"result":176,"points":1,"place":4,"phase":0,"sequence":27,"times":[2112,591,1647,879,677,661,566,615,603,1325],"next_num":10,"trial_type":"ticket-choose","trial_index":47,"time_elapsed":854318,"internal_node_id":"0.0-47.0"},{"result":143,"points":3,"place":0,"phase":0,"sequence":28,"times":[909,780,623,630,1100],"next_num":5,"trial_type":"ticket-choose","trial_index":48,"time_elapsed":861354,"internal_node_id":"0.0-48.0"},{"result":172,"points":1,"place":2,"phase":0,"sequence":29,"times":[1236,766,886,604,596,607,1262],"next_num":7,"trial_type":"ticket-choose","trial_index":49,"time_elapsed":871138,"internal_node_id":"0.0-49.0"},{"result":165,"points":2,"place":1,"phase":0,"sequence":30,"times":[1043,603,1023],"next_num":3,"trial_type":"ticket-choose","trial_index":50,"time_elapsed":876601,"internal_node_id":"0.0-50.0"},{"result":150,"points":2,"place":1,"phase":0,"sequence":31,"times":[1195,638,1021],"next_num":3,"trial_type":"ticket-choose","trial_index":51,"time_elapsed":882418,"internal_node_id":"0.0-51.0"},{"result":167,"points":2,"place":1,"phase":0,"sequence":32,"times":[974,909,1391,558,1015],"next_num":5,"trial_type":"ticket-choose","trial_index":52,"time_elapsed":890044,"internal_node_id":"0.0-52.0"},{"result":161,"points":1,"place":3,"phase":0,"sequence":33,"times":[1161,604,966],"next_num":3,"trial_type":"ticket-choose","trial_index":53,"time_elapsed":895219,"internal_node_id":"0.0-53.0"},{"result":163,"points":3,"place":0,"phase":0,"sequence":34,"times":[1019,598,1301,606,726,592,620,1020],"next_num":8,"trial_type":"ticket-choose","trial_index":54,"time_elapsed":906029,"internal_node_id":"0.0-54.0"},{"result":163,"points":1,"place":3,"phase":0,"sequence":35,"times":[901,590,1101],"next_num":3,"trial_type":"ticket-choose","trial_index":55,"time_elapsed":911238,"internal_node_id":"0.0-55.0"},{"result":154,"points":2,"place":1,"phase":0,"sequence":36,"times":[1237,558,1599],"next_num":3,"trial_type":"ticket-choose","trial_index":56,"time_elapsed":917270,"internal_node_id":"0.0-56.0"},{"result":165,"points":3,"place":0,"phase":0,"sequence":37,"times":[1108,533,585,548,1046],"next_num":5,"trial_type":"ticket-choose","trial_index":57,"time_elapsed":924318,"internal_node_id":"0.0-57.0"},{"result":167,"points":2,"place":1,"phase":0,"sequence":38,"times":[1142,635,663,606,878,603,1063],"next_num":7,"trial_type":"ticket-choose","trial_index":58,"time_elapsed":933719,"internal_node_id":"0.0-58.0"},{"result":154,"points":2,"place":1,"phase":0,"sequence":39,"times":[1177,1301],"next_num":2,"trial_type":"ticket-choose","trial_index":59,"time_elapsed":938616,"internal_node_id":"0.0-59.0"},{"result":166,"points":1,"place":3,"phase":0,"sequence":40,"times":[1401,1070,646,589,1018],"next_num":5,"trial_type":"ticket-choose","trial_index":60,"time_elapsed":946361,"internal_node_id":"0.0-60.0"},{"result":165,"points":2,"place":1,"phase":0,"sequence":41,"times":[1150,581,968],"next_num":3,"trial_type":"ticket-choose","trial_index":61,"time_elapsed":951596,"internal_node_id":"0.0-61.0"},{"result":156,"points":3,"place":0,"phase":0,"sequence":42,"times":[1368],"next_num":1,"trial_type":"ticket-choose","trial_index":62,"time_elapsed":955043,"internal_node_id":"0.0-62.0"},{"result":168,"points":1,"place":3,"phase":0,"sequence":43,"times":[1010,611,998],"next_num":3,"trial_type":"ticket-choose","trial_index":63,"time_elapsed":960199,"internal_node_id":"0.0-63.0"},{"result":170,"points":2,"place":1,"phase":0,"sequence":44,"times":[1937,533,1276],"next_num":3,"trial_type":"ticket-choose","trial_index":64,"time_elapsed":966927,"internal_node_id":"0.0-64.0"},{"result":157,"points":3,"place":0,"phase":0,"sequence":45,"times":[1237,638,1000],"next_num":3,"trial_type":"ticket-choose","trial_index":65,"time_elapsed":972565,"internal_node_id":"0.0-65.0"},{"result":159,"points":3,"place":0,"phase":0,"sequence":46,"times":[1298],"next_num":1,"trial_type":"ticket-choose","trial_index":66,"time_elapsed":976301,"internal_node_id":"0.0-66.0"},{"result":152,"points":3,"place":0,"phase":0,"sequence":47,"times":[1047],"next_num":1,"trial_type":"ticket-choose","trial_index":67,"time_elapsed":979518,"internal_node_id":"0.0-67.0"},{"result":138,"points":3,"place":0,"phase":0,"sequence":48,"times":[1066,695,800,627,791,1738],"next_num":6,"trial_type":"ticket-choose","trial_index":68,"time_elapsed":988551,"internal_node_id":"0.0-68.0"},{"result":148,"points":3,"place":0,"phase":0,"sequence":49,"times":[1192],"next_num":1,"trial_type":"ticket-choose","trial_index":69,"time_elapsed":994271,"internal_node_id":"0.0-69.0"},{"responses":[{"value":0,"offby":0,"category":"$106 - $134","category_index":0},{"value":3,"offby":2,"category":"$135 - $150","category_index":1},{"value":2,"offby":-1,"category":"$151 - $165","category_index":2},{"value":2,"offby":-4,"category":"$166 - $180","category_index":3},{"value":3,"offby":-3,"category":"$181 - $195","category_index":4},{"value":4,"offby":1,"category":"$196 - $210","category_index":5},{"value":6,"offby":5,"category":"$211 - $225","category_index":6}],"phase":0,"number":1,"trial_type":"bar-choose","trial_index":70,"time_elapsed":1062113,"internal_node_id":"0.0-70.0"},{"rt":17315,"url":"\/tickets\/utils\/start2.html","trial_type":"html","trial_index":71,"time_elapsed":1080529,"internal_node_id":"0.0-71.0"},{"trial_type":"number-animation","trial_index":72,"time_elapsed":1119463,"internal_node_id":"0.0-72.0"},{"phase":1,"sequence":0,"avg":184,"response":181,"trial_type":"training_avg","trial_index":73,"time_elapsed":1134226,"internal_node_id":"0.0-73.0"},{"trial_type":"number-animation","trial_index":74,"time_elapsed":1152354,"internal_node_id":"0.0-74.0"},{"phase":1,"sequence":1,"avg":199,"response":190,"trial_type":"training_avg","trial_index":75,"time_elapsed":1164022,"internal_node_id":"0.0-75.0"},{"trial_type":"number-animation","trial_index":76,"time_elapsed":1176853,"internal_node_id":"0.0-76.0"},{"phase":1,"sequence":2,"avg":199,"response":183,"trial_type":"training_avg","trial_index":77,"time_elapsed":1185584,"internal_node_id":"0.0-77.0"},{"trial_type":"number-animation","trial_index":78,"time_elapsed":1198434,"internal_node_id":"0.0-78.0"},{"phase":1,"sequence":3,"avg":210,"response":179,"trial_type":"training_avg","trial_index":79,"time_elapsed":1205722,"internal_node_id":"0.0-79.0"},{"trial_type":"number-animation","trial_index":80,"time_elapsed":1225222,"internal_node_id":"0.0-80.0"},{"phase":1,"sequence":4,"avg":202,"response":194,"trial_type":"training_avg","trial_index":81,"time_elapsed":1234325,"internal_node_id":"0.0-81.0"},{"responses":[{"value":0,"offby":-1,"category":"$105 - $130","category_index":0},{"value":1,"offby":-1,"category":"$131 - $155","category_index":1},{"value":2,"offby":0,"category":"$156 - $180","category_index":2},{"value":2,"offby":-3,"category":"$181 - $205","category_index":3},{"value":3,"offby":-2,"category":"$206 - $230","category_index":4},{"value":5,"offby":2,"category":"$231 - $255","category_index":5},{"value":7,"offby":5,"category":"$256 - $280","category_index":6}],"phase":1,"number":0,"trial_type":"bar-choose","trial_index":82,"time_elapsed":1263950,"internal_node_id":"0.0-82.0"},{"rt":13484,"url":"\/tickets\/utils\/testing2.html","trial_type":"html","trial_index":83,"time_elapsed":1278532,"internal_node_id":"0.0-83.0"},{"phase":1,"order":[37,20,40,25,1,8,10,23,3,46,31,30,41,4,36,14,39,38,17,12,29,44,27,18,15,28,47,24,7,43,34,48,2,32,33,22,9,19,5,6,21,49,26,0,42,13,45,35,16,11],"trial_type":"store_order","trial_index":84,"time_elapsed":1279535,"internal_node_id":"0.0-84.0"},{"result":178,"points":1,"place":3,"phase":1,"sequence":0,"times":[1166,1662,1289],"next_num":3,"trial_type":"ticket-choose","trial_index":85,"time_elapsed":1286734,"internal_node_id":"0.0-85.0"},{"result":208,"points":1,"place":4,"phase":1,"sequence":1,"times":[1671,580,685,575,584,549,542,519,535,731],"next_num":11,"trial_type":"ticket-choose","trial_index":86,"time_elapsed":1299006,"internal_node_id":"0.0-86.0"},{"result":140,"points":3,"place":0,"phase":1,"sequence":2,"times":[1239,1125],"next_num":2,"trial_type":"ticket-choose","trial_index":87,"time_elapsed":1303998,"internal_node_id":"0.0-87.0"},{"result":141,"points":3,"place":0,"phase":1,"sequence":3,"times":[1239],"next_num":1,"trial_type":"ticket-choose","trial_index":88,"time_elapsed":1307656,"internal_node_id":"0.0-88.0"},{"result":179,"points":1,"place":4,"phase":1,"sequence":4,"times":[1455],"next_num":1,"trial_type":"ticket-choose","trial_index":89,"time_elapsed":1311551,"internal_node_id":"0.0-89.0"},{"result":175,"points":2,"place":1,"phase":1,"sequence":5,"times":[896,610,1119],"next_num":3,"trial_type":"ticket-choose","trial_index":90,"time_elapsed":1316768,"internal_node_id":"0.0-90.0"},{"result":162,"points":1,"place":3,"phase":1,"sequence":6,"times":[1038,614,1060],"next_num":3,"trial_type":"ticket-choose","trial_index":91,"time_elapsed":1322056,"internal_node_id":"0.0-91.0"},{"result":212,"points":1,"place":4,"phase":1,"sequence":7,"times":[829,550,559,620,582,574,974,583,615,836],"next_num":10,"trial_type":"ticket-choose","trial_index":92,"time_elapsed":1332840,"internal_node_id":"0.0-92.0"},{"result":148,"points":2,"place":1,"phase":1,"sequence":8,"times":[983,831,927],"next_num":3,"trial_type":"ticket-choose","trial_index":93,"time_elapsed":1338220,"internal_node_id":"0.0-93.0"},{"result":156,"points":3,"place":0,"phase":1,"sequence":9,"times":[909,639,541,726,579,1296],"next_num":6,"trial_type":"ticket-choose","trial_index":94,"time_elapsed":1346044,"internal_node_id":"0.0-94.0"},{"result":165,"points":1,"place":2,"phase":1,"sequence":10,"times":[1408],"next_num":1,"trial_type":"ticket-choose","trial_index":95,"time_elapsed":1349781,"internal_node_id":"0.0-95.0"},{"result":188,"points":1,"place":3,"phase":1,"sequence":11,"times":[1252,628,961],"next_num":3,"trial_type":"ticket-choose","trial_index":96,"time_elapsed":1355100,"internal_node_id":"0.0-96.0"},{"result":151,"points":2,"place":1,"phase":1,"sequence":12,"times":[1023,696,1165],"next_num":3,"trial_type":"ticket-choose","trial_index":97,"time_elapsed":1360684,"internal_node_id":"0.0-97.0"},{"result":180,"points":2,"place":1,"phase":1,"sequence":13,"times":[1072,591,1086],"next_num":3,"trial_type":"ticket-choose","trial_index":98,"time_elapsed":1365957,"internal_node_id":"0.0-98.0"},{"result":171,"points":2,"place":1,"phase":1,"sequence":14,"times":[1031,564,1015],"next_num":3,"trial_type":"ticket-choose","trial_index":99,"time_elapsed":1370983,"internal_node_id":"0.0-99.0"},{"result":182,"points":2,"place":1,"phase":1,"sequence":15,"times":[1233,694,630,540,653,590,1285],"next_num":7,"trial_type":"ticket-choose","trial_index":100,"time_elapsed":1379930,"internal_node_id":"0.0-100.0"},{"result":175,"points":2,"place":1,"phase":1,"sequence":16,"times":[936,1056],"next_num":2,"trial_type":"ticket-choose","trial_index":101,"time_elapsed":1384064,"internal_node_id":"0.0-101.0"},{"result":167,"points":3,"place":0,"phase":1,"sequence":17,"times":[1019,629,558,514,560,536,557,933],"next_num":8,"trial_type":"ticket-choose","trial_index":102,"time_elapsed":1392732,"internal_node_id":"0.0-102.0"},{"result":179,"points":1,"place":4,"phase":1,"sequence":18,"times":[1052],"next_num":1,"trial_type":"ticket-choose","trial_index":103,"time_elapsed":1395835,"internal_node_id":"0.0-103.0"},{"result":184,"points":1,"place":3,"phase":1,"sequence":19,"times":[976,708,1086],"next_num":3,"trial_type":"ticket-choose","trial_index":104,"time_elapsed":1401067,"internal_node_id":"0.0-104.0"},{"result":158,"points":3,"place":0,"phase":1,"sequence":20,"times":[1006],"next_num":1,"trial_type":"ticket-choose","trial_index":105,"time_elapsed":1404108,"internal_node_id":"0.0-105.0"},{"result":158,"points":1,"place":2,"phase":1,"sequence":21,"times":[1114,1098],"next_num":2,"trial_type":"ticket-choose","trial_index":106,"time_elapsed":1408662,"internal_node_id":"0.0-106.0"},{"result":137,"points":3,"place":0,"phase":1,"sequence":22,"times":[996],"next_num":1,"trial_type":"ticket-choose","trial_index":107,"time_elapsed":1411781,"internal_node_id":"0.0-107.0"},{"result":170,"points":2,"place":1,"phase":1,"sequence":23,"times":[1040,564,574,551,519,542,1213],"next_num":7,"trial_type":"ticket-choose","trial_index":108,"time_elapsed":1419926,"internal_node_id":"0.0-108.0"},{"result":173,"points":2,"place":1,"phase":1,"sequence":24,"times":[825,653,1287,531,518,787,978],"next_num":7,"trial_type":"ticket-choose","trial_index":109,"time_elapsed":1428831,"internal_node_id":"0.0-109.0"},{"result":163,"points":3,"place":0,"phase":1,"sequence":25,"times":[1237],"next_num":1,"trial_type":"ticket-choose","trial_index":110,"time_elapsed":1432283,"internal_node_id":"0.0-110.0"},{"result":144,"points":3,"place":0,"phase":1,"sequence":26,"times":[929,542,518,972],"next_num":4,"trial_type":"ticket-choose","trial_index":111,"time_elapsed":1437728,"internal_node_id":"0.0-111.0"},{"result":182,"points":1,"place":2,"phase":1,"sequence":27,"times":[1110,555,1253,588,523,621,1700],"next_num":7,"trial_type":"ticket-choose","trial_index":112,"time_elapsed":1447321,"internal_node_id":"0.0-112.0"},{"result":184,"points":1,"place":2,"phase":1,"sequence":28,"times":[1182,623,1332,694,518,653,1393],"next_num":7,"trial_type":"ticket-choose","trial_index":113,"time_elapsed":1457075,"internal_node_id":"0.0-113.0"},{"result":155,"points":3,"place":0,"phase":1,"sequence":29,"times":[995,535,968],"next_num":3,"trial_type":"ticket-choose","trial_index":114,"time_elapsed":1461859,"internal_node_id":"0.0-114.0"},{"result":150,"points":2,"place":1,"phase":1,"sequence":30,"times":[1128,987],"next_num":2,"trial_type":"ticket-choose","trial_index":115,"time_elapsed":1466140,"internal_node_id":"0.0-115.0"},{"result":179,"points":1,"place":2,"phase":1,"sequence":31,"times":[926,479,861],"next_num":3,"trial_type":"ticket-choose","trial_index":116,"time_elapsed":1470694,"internal_node_id":"0.0-116.0"},{"result":147,"points":3,"place":0,"phase":1,"sequence":32,"times":[956,503,964,534,477,510,671,566,541,832],"next_num":10,"trial_type":"ticket-choose","trial_index":117,"time_elapsed":1481390,"internal_node_id":"0.0-117.0"},{"result":133,"points":3,"place":0,"phase":1,"sequence":33,"times":[1303,534,909],"next_num":3,"trial_type":"ticket-choose","trial_index":118,"time_elapsed":1486581,"internal_node_id":"0.0-118.0"},{"result":151,"points":3,"place":0,"phase":1,"sequence":34,"times":[1105,849],"next_num":2,"trial_type":"ticket-choose","trial_index":119,"time_elapsed":1491391,"internal_node_id":"0.0-119.0"},{"result":145,"points":3,"place":0,"phase":1,"sequence":35,"times":[1277],"next_num":1,"trial_type":"ticket-choose","trial_index":120,"time_elapsed":1496761,"internal_node_id":"0.0-120.0"},{"result":173,"points":2,"place":1,"phase":1,"sequence":36,"times":[2498,596,1184],"next_num":3,"trial_type":"ticket-choose","trial_index":121,"time_elapsed":1503489,"internal_node_id":"0.0-121.0"},{"result":191,"points":2,"place":1,"phase":1,"sequence":37,"times":[1031,1317,1062,551,530,757,1405],"next_num":7,"trial_type":"ticket-choose","trial_index":122,"time_elapsed":1513330,"internal_node_id":"0.0-122.0"},{"result":140,"points":2,"place":1,"phase":1,"sequence":38,"times":[1063,535,1072],"next_num":3,"trial_type":"ticket-choose","trial_index":123,"time_elapsed":1518462,"internal_node_id":"0.0-123.0"},{"result":170,"points":2,"place":1,"phase":1,"sequence":39,"times":[1145,549,981],"next_num":3,"trial_type":"ticket-choose","trial_index":124,"time_elapsed":1523414,"internal_node_id":"0.0-124.0"},{"result":153,"points":3,"place":0,"phase":1,"sequence":40,"times":[1345],"next_num":1,"trial_type":"ticket-choose","trial_index":125,"time_elapsed":1526830,"internal_node_id":"0.0-125.0"},{"result":166,"points":1,"place":2,"phase":1,"sequence":41,"times":[1224,860],"next_num":2,"trial_type":"ticket-choose","trial_index":126,"time_elapsed":1530992,"internal_node_id":"0.0-126.0"},{"result":154,"points":3,"place":0,"phase":1,"sequence":42,"times":[975],"next_num":1,"trial_type":"ticket-choose","trial_index":127,"time_elapsed":1533896,"internal_node_id":"0.0-127.0"},{"result":157,"points":2,"place":1,"phase":1,"sequence":43,"times":[1160,605,919],"next_num":3,"trial_type":"ticket-choose","trial_index":128,"time_elapsed":1539015,"internal_node_id":"0.0-128.0"},{"result":187,"points":1,"place":2,"phase":1,"sequence":44,"times":[1013,1159],"next_num":2,"trial_type":"ticket-choose","trial_index":129,"time_elapsed":1543207,"internal_node_id":"0.0-129.0"},{"result":167,"points":1,"place":3,"phase":1,"sequence":45,"times":[1180,527,925],"next_num":3,"trial_type":"ticket-choose","trial_index":130,"time_elapsed":1548074,"internal_node_id":"0.0-130.0"},{"result":175,"points":2,"place":1,"phase":1,"sequence":46,"times":[1082,510,710,540,910],"next_num":5,"trial_type":"ticket-choose","trial_index":131,"time_elapsed":1554488,"internal_node_id":"0.0-131.0"},{"result":149,"points":2,"place":1,"phase":1,"sequence":47,"times":[1111,1053],"next_num":2,"trial_type":"ticket-choose","trial_index":132,"time_elapsed":1558729,"internal_node_id":"0.0-132.0"},{"result":174,"points":1,"place":3,"phase":1,"sequence":48,"times":[1113,532,955],"next_num":3,"trial_type":"ticket-choose","trial_index":133,"time_elapsed":1563649,"internal_node_id":"0.0-133.0"},{"result":175,"points":2,"place":1,"phase":1,"sequence":49,"times":[1712,583,829,565,999,549,902],"next_num":7,"trial_type":"ticket-choose","trial_index":134,"time_elapsed":1573009,"internal_node_id":"0.0-134.0"},{"responses":[{"value":0,"offby":-1,"category":"$105 - $130","category_index":0},{"value":1,"offby":-1,"category":"$131 - $155","category_index":1},{"value":1,"offby":-1,"category":"$156 - $180","category_index":2},{"value":4,"offby":-1,"category":"$181 - $205","category_index":3},{"value":5,"offby":0,"category":"$206 - $230","category_index":4},{"value":5,"offby":2,"category":"$231 - $255","category_index":5},{"value":4,"offby":2,"category":"$256 - $280","category_index":6}],"phase":1,"number":1,"trial_type":"bar-choose","trial_index":135,"time_elapsed":1606919,"internal_node_id":"0.0-135.0"},{"during":"Nothing","bonus":272,"trial_type":"final","trial_index":136,"time_elapsed":1632124,"internal_node_id":"0.0-136.0"}],"bonus":272}