{"start_time":"2017-02-24 15:21:06","end_time":"2017-02-24 15:49:14","points_phase0":114,"points_phase1":112,"phase_order":1,"age":29,"gender":"m","tries":1,"during":"Nothing","worker_id":"A3RR85PK3AV9TU","assignment_id":"3IAEQB9FMFDGFSCN7JU7KR9FC4ZDWI","data":[{"rt":52625,"url":"\/tickets\/utils\/consent.html","trial_type":"html","trial_index":0,"time_elapsed":52714,"internal_node_id":"0.0-0.0"},{"age":29,"gender":"m","trial_type":"age","trial_index":1,"time_elapsed":76024,"internal_node_id":"0.0-1.0"},{"worker_id":"A3RR85PK3AV9TU","trial_type":"workerid","trial_index":2,"time_elapsed":139760,"internal_node_id":"0.0-2.0"},{"tries":1,"trial_type":"instructions_check","trial_index":3,"time_elapsed":182113,"internal_node_id":"0.0-3.0"},{"rt":12671,"url":"\/tickets\/utils\/start.html","trial_type":"html","trial_index":4,"time_elapsed":195887,"internal_node_id":"0.0-4.0"},{"trial_type":"number-animation","trial_index":5,"time_elapsed":213774,"internal_node_id":"0.0-5.0"},{"phase":0,"sequence":0,"avg":166,"response":165,"trial_type":"training_avg","trial_index":6,"time_elapsed":230891,"internal_node_id":"0.0-6.0"},{"trial_type":"number-animation","trial_index":7,"time_elapsed":245822,"internal_node_id":"0.0-7.0"},{"phase":0,"sequence":1,"avg":198,"response":190,"trial_type":"training_avg","trial_index":8,"time_elapsed":258050,"internal_node_id":"0.0-8.0"},{"trial_type":"number-animation","trial_index":9,"time_elapsed":270509,"internal_node_id":"0.0-9.0"},{"phase":0,"sequence":2,"avg":177,"response":170,"trial_type":"training_avg","trial_index":10,"time_elapsed":281431,"internal_node_id":"0.0-10.0"},{"trial_type":"number-animation","trial_index":11,"time_elapsed":294997,"internal_node_id":"0.0-11.0"},{"phase":0,"sequence":3,"avg":190,"response":200,"trial_type":"training_avg","trial_index":12,"time_elapsed":303324,"internal_node_id":"0.0-12.0"},{"trial_type":"number-animation","trial_index":13,"time_elapsed":316412,"internal_node_id":"0.0-13.0"},{"phase":0,"sequence":4,"avg":201,"response":190,"trial_type":"training_avg","trial_index":14,"time_elapsed":326347,"internal_node_id":"0.0-14.0"},{"responses":[{"value":0,"offby":-1,"category":"$30 - $75","category_index":0},{"value":1,"offby":-1,"category":"$76 - $120","category_index":1},{"value":5,"offby":1,"category":"$121 - $165","category_index":2},{"value":9,"offby":3,"category":"$166 - $210","category_index":3},{"value":5,"offby":-1,"category":"$211 - $255","category_index":4},{"value":0,"offby":-1,"category":"$256 - $300","category_index":5},{"value":0,"offby":0,"category":"$301 - $345","category_index":6}],"phase":0,"number":0,"trial_type":"bar-choose","trial_index":15,"time_elapsed":424623,"internal_node_id":"0.0-15.0"},{"rt":18824,"url":"\/tickets\/\/utils\/testing.html","trial_type":"html","trial_index":16,"time_elapsed":444546,"internal_node_id":"0.0-16.0"},{"phase":0,"order":[15,23,2,46,21,35,10,41,1,43,9,38,11,25,33,49,14,17,22,6,44,29,20,45,37,31,42,30,7,39,13,0,34,18,12,16,4,3,47,48,19,32,36,24,8,27,40,26,28,5],"trial_type":"store_order","trial_index":17,"time_elapsed":445547,"internal_node_id":"0.0-17.0"},{"result":126,"points":3,"place":0,"phase":0,"sequence":-1,"prices":[184,180,224,165,181,199,185,193,218,126],"times":[2363,1108,958,4307,1171,1119,1171,957,1048,1360],"next_num":10,"trial_type":"ticket-choose","trial_index":18,"time_elapsed":469371,"internal_node_id":"0.0-18.0"},{"rt":50468,"url":"\/tickets\/utils\/testing_after.html","trial_type":"html","trial_index":19,"time_elapsed":520941,"internal_node_id":"0.0-19.0"},{"result":130,"points":2,"place":1,"phase":0,"sequence":0,"prices":[155,181,170,255,176,200,130,150,110,205],"times":[2743,1366,909,862,973,1158,1404],"next_num":7,"trial_type":"ticket-choose","trial_index":20,"time_elapsed":541704,"internal_node_id":"0.0-20.0"},{"result":145,"points":2,"place":1,"phase":0,"sequence":1,"prices":[246,145,155,191,176,270,185,136,160,215],"times":[1187,3032],"next_num":2,"trial_type":"ticket-choose","trial_index":21,"time_elapsed":549054,"internal_node_id":"0.0-21.0"},{"result":95,"points":3,"place":0,"phase":0,"sequence":2,"prices":[95,205,106,151,186,271,145,210,215,181],"times":[1714],"next_num":1,"trial_type":"ticket-choose","trial_index":22,"time_elapsed":554919,"internal_node_id":"0.0-22.0"},{"result":150,"points":1,"place":4,"phase":0,"sequence":3,"prices":[176,150,141,91,290,201,106,266,206,126],"times":[1572,1829],"next_num":2,"trial_type":"ticket-choose","trial_index":23,"time_elapsed":561342,"internal_node_id":"0.0-23.0"},{"result":81,"points":3,"place":0,"phase":0,"sequence":4,"prices":[81,205,130,151,191,261,145,210,250,165],"times":[1377],"next_num":1,"trial_type":"ticket-choose","trial_index":24,"time_elapsed":565064,"internal_node_id":"0.0-24.0"},{"result":30,"points":3,"place":0,"phase":0,"sequence":5,"prices":[155,30,101,55,136,276,70,181,200,261],"times":[3993,1479],"next_num":2,"trial_type":"ticket-choose","trial_index":25,"time_elapsed":573035,"internal_node_id":"0.0-25.0"},{"result":135,"points":3,"place":0,"phase":0,"sequence":6,"prices":[135,180,141,151,175,220,145,196,211,155],"times":[1527],"next_num":1,"trial_type":"ticket-choose","trial_index":26,"time_elapsed":576751,"internal_node_id":"0.0-26.0"},{"result":106,"points":3,"place":0,"phase":0,"sequence":7,"prices":[180,106,166,245,211,261,215,125,135,190],"times":[1621,2255],"next_num":2,"trial_type":"ticket-choose","trial_index":27,"time_elapsed":586957,"internal_node_id":"0.0-27.0"},{"result":126,"points":2,"place":1,"phase":0,"sequence":8,"prices":[150,175,166,251,170,196,126,145,105,201],"times":[1362,660,670,645,721,816,1209],"next_num":7,"trial_type":"ticket-choose","trial_index":28,"time_elapsed":596761,"internal_node_id":"0.0-28.0"},{"result":106,"points":2,"place":1,"phase":0,"sequence":9,"prices":[185,180,235,210,106,266,76,115,250,205],"times":[833,750,872,815,1190],"next_num":5,"trial_type":"ticket-choose","trial_index":29,"time_elapsed":604348,"internal_node_id":"0.0-29.0"},{"result":121,"points":2,"place":1,"phase":0,"sequence":10,"prices":[150,170,160,240,166,185,121,136,95,191],"times":[1875,895,807,768,832,780,1544],"next_num":7,"trial_type":"ticket-choose","trial_index":30,"time_elapsed":615408,"internal_node_id":"0.0-30.0"},{"result":65,"points":2,"place":1,"phase":0,"sequence":11,"prices":[220,236,176,65,185,101,110,61,156,191],"times":[1078,656,704,1025],"next_num":4,"trial_type":"ticket-choose","trial_index":31,"time_elapsed":621795,"internal_node_id":"0.0-31.0"},{"result":120,"points":2,"place":1,"phase":0,"sequence":12,"prices":[150,171,120,241,165,185,160,135,96,190],"times":[1389,816,1260],"next_num":3,"trial_type":"ticket-choose","trial_index":32,"time_elapsed":627739,"internal_node_id":"0.0-32.0"},{"result":131,"points":2,"place":1,"phase":0,"sequence":13,"prices":[156,181,131,256,176,200,171,151,111,206],"times":[1531,714,1610],"next_num":3,"trial_type":"ticket-choose","trial_index":33,"time_elapsed":634289,"internal_node_id":"0.0-33.0"},{"result":86,"points":3,"place":0,"phase":0,"sequence":14,"prices":[86,180,130,151,170,271,145,191,220,160],"times":[1049],"next_num":1,"trial_type":"ticket-choose","trial_index":34,"time_elapsed":637544,"internal_node_id":"0.0-34.0"},{"result":61,"points":3,"place":0,"phase":0,"sequence":15,"prices":[255,166,266,175,136,145,155,61,96,301],"times":[2828,867,629,721,1680,863,852,1106],"next_num":8,"trial_type":"ticket-choose","trial_index":35,"time_elapsed":650865,"internal_node_id":"0.0-35.0"},{"result":125,"points":2,"place":1,"phase":0,"sequence":16,"prices":[155,175,166,245,171,190,125,140,101,196],"times":[2479,823,1017,1063,1071,929,1218],"next_num":7,"trial_type":"ticket-choose","trial_index":36,"time_elapsed":662789,"internal_node_id":"0.0-36.0"},{"result":125,"points":1,"place":2,"phase":0,"sequence":17,"prices":[226,205,125,120,115,135,180,145,150,220],"times":[1709,670,1547],"next_num":3,"trial_type":"ticket-choose","trial_index":37,"time_elapsed":670226,"internal_node_id":"0.0-37.0"},{"result":120,"points":3,"place":0,"phase":0,"sequence":18,"prices":[120,221,135,185,200,261,181,251,255,196],"times":[1685],"next_num":1,"trial_type":"ticket-choose","trial_index":38,"time_elapsed":675322,"internal_node_id":"0.0-38.0"},{"result":120,"points":2,"place":1,"phase":0,"sequence":19,"prices":[145,170,160,245,165,190,120,141,100,195],"times":[1039,1550,736,613,592,2787,1640],"next_num":7,"trial_type":"ticket-choose","trial_index":39,"time_elapsed":687660,"internal_node_id":"0.0-39.0"},{"result":130,"points":2,"place":1,"phase":0,"sequence":20,"prices":[155,225,245,130,176,106,180,211,165,200],"times":[1299,625,544,1438],"next_num":4,"trial_type":"ticket-choose","trial_index":40,"time_elapsed":697348,"internal_node_id":"0.0-40.0"},{"result":120,"points":2,"place":1,"phase":0,"sequence":21,"prices":[145,171,161,245,165,191,120,140,100,196],"times":[856,606,560,553,626,554,1309],"next_num":7,"trial_type":"ticket-choose","trial_index":41,"time_elapsed":705730,"internal_node_id":"0.0-41.0"},{"result":111,"points":3,"place":0,"phase":0,"sequence":22,"prices":[111,231,131,146,171,295,141,241,271,150],"times":[1161],"next_num":1,"trial_type":"ticket-choose","trial_index":42,"time_elapsed":709193,"internal_node_id":"0.0-42.0"},{"result":121,"points":2,"place":1,"phase":0,"sequence":23,"prices":[146,170,121,245,166,190,161,141,100,195],"times":[1136,703,1078],"next_num":3,"trial_type":"ticket-choose","trial_index":43,"time_elapsed":714455,"internal_node_id":"0.0-43.0"},{"result":165,"points":1,"place":2,"phase":0,"sequence":24,"prices":[185,175,276,221,130,141,171,216,235,165],"times":[1210,935,841,806,2106,927,913,870,877,1225],"next_num":10,"trial_type":"ticket-choose","trial_index":44,"time_elapsed":729234,"internal_node_id":"0.0-44.0"},{"result":51,"points":3,"place":0,"phase":0,"sequence":25,"prices":[221,175,51,196,146,130,166,80,126,156],"times":[1472,1254,1033],"next_num":3,"trial_type":"ticket-choose","trial_index":45,"time_elapsed":735423,"internal_node_id":"0.0-45.0"},{"result":150,"points":2,"place":1,"phase":0,"sequence":26,"prices":[181,156,145,165,236,231,201,260,150,185],"times":[1134,4700,1603,869,733,1094,729,681,1777],"next_num":9,"trial_type":"ticket-choose","trial_index":46,"time_elapsed":753011,"internal_node_id":"0.0-46.0"},{"result":66,"points":3,"place":0,"phase":0,"sequence":27,"prices":[66,201,96,150,185,230,121,216,225,165],"times":[1364],"next_num":1,"trial_type":"ticket-choose","trial_index":47,"time_elapsed":756453,"internal_node_id":"0.0-47.0"},{"result":126,"points":2,"place":1,"phase":0,"sequence":28,"prices":[150,176,126,251,171,195,165,145,105,200],"times":[1316,605,1244],"next_num":3,"trial_type":"ticket-choose","trial_index":48,"time_elapsed":762076,"internal_node_id":"0.0-48.0"},{"result":131,"points":2,"place":1,"phase":0,"sequence":29,"prices":[160,180,170,251,176,195,131,146,105,200],"times":[899,646,728,702,787,1365,2278],"next_num":7,"trial_type":"ticket-choose","trial_index":49,"time_elapsed":772748,"internal_node_id":"0.0-49.0"},{"result":75,"points":3,"place":0,"phase":0,"sequence":30,"prices":[75,171,131,151,161,250,145,190,206,156],"times":[1101],"next_num":1,"trial_type":"ticket-choose","trial_index":50,"time_elapsed":775942,"internal_node_id":"0.0-50.0"},{"result":105,"points":3,"place":0,"phase":0,"sequence":31,"prices":[161,180,131,251,175,196,171,146,105,201],"times":[1196,624,3505,610,674,672,863,1377,1015],"next_num":9,"trial_type":"ticket-choose","trial_index":51,"time_elapsed":790195,"internal_node_id":"0.0-51.0"},{"result":116,"points":3,"place":0,"phase":0,"sequence":32,"prices":[176,150,276,171,261,116,130,201,166,231],"times":[917,855,689,733,738,1076],"next_num":6,"trial_type":"ticket-choose","trial_index":52,"time_elapsed":798343,"internal_node_id":"0.0-52.0"},{"result":125,"points":2,"place":1,"phase":0,"sequence":33,"prices":[156,175,125,245,170,190,165,140,101,196],"times":[1125,746,1320],"next_num":3,"trial_type":"ticket-choose","trial_index":53,"time_elapsed":804094,"internal_node_id":"0.0-53.0"},{"result":126,"points":2,"place":1,"phase":0,"sequence":34,"prices":[151,175,166,251,170,195,126,146,105,201],"times":[936,1223,848,825,1038,1349,1263],"next_num":7,"trial_type":"ticket-choose","trial_index":54,"time_elapsed":814783,"internal_node_id":"0.0-54.0"},{"result":121,"points":2,"place":1,"phase":0,"sequence":35,"prices":[150,171,121,241,165,185,160,136,95,191],"times":[1256,706,1145],"next_num":3,"trial_type":"ticket-choose","trial_index":55,"time_elapsed":820314,"internal_node_id":"0.0-55.0"},{"result":105,"points":3,"place":0,"phase":0,"sequence":36,"prices":[105,216,146,165,210,260,161,235,241,185],"times":[916],"next_num":1,"trial_type":"ticket-choose","trial_index":56,"time_elapsed":823652,"internal_node_id":"0.0-56.0"},{"result":131,"points":2,"place":1,"phase":0,"sequence":37,"prices":[161,180,171,250,176,195,131,146,105,201],"times":[1538,618,614,8535,3053,982,1956],"next_num":7,"trial_type":"ticket-choose","trial_index":57,"time_elapsed":844651,"internal_node_id":"0.0-57.0"},{"result":120,"points":2,"place":1,"phase":0,"sequence":38,"prices":[146,171,120,245,165,191,160,140,100,196],"times":[1581,546,989],"next_num":3,"trial_type":"ticket-choose","trial_index":58,"time_elapsed":850155,"internal_node_id":"0.0-58.0"},{"result":130,"points":2,"place":1,"phase":0,"sequence":39,"prices":[160,180,130,251,176,195,170,146,105,200],"times":[3065,558,1211],"next_num":3,"trial_type":"ticket-choose","trial_index":59,"time_elapsed":857299,"internal_node_id":"0.0-59.0"},{"result":126,"points":2,"place":1,"phase":0,"sequence":40,"prices":[156,175,126,246,170,190,165,140,100,196],"times":[1352,682,1136],"next_num":3,"trial_type":"ticket-choose","trial_index":60,"time_elapsed":862899,"internal_node_id":"0.0-60.0"},{"result":126,"points":2,"place":1,"phase":0,"sequence":41,"prices":[151,176,126,251,170,196,165,145,105,201],"times":[898,821,1396],"next_num":3,"trial_type":"ticket-choose","trial_index":61,"time_elapsed":868439,"internal_node_id":"0.0-61.0"},{"result":120,"points":2,"place":1,"phase":0,"sequence":42,"prices":[186,156,191,120,195,145,45,130,246,176],"times":[841,800,769,1115],"next_num":4,"trial_type":"ticket-choose","trial_index":62,"time_elapsed":874588,"internal_node_id":"0.0-62.0"},{"result":111,"points":3,"place":0,"phase":0,"sequence":43,"prices":[175,211,266,286,111,216,220,245,230,165],"times":[2059,643,586,656,1028],"next_num":5,"trial_type":"ticket-choose","trial_index":63,"time_elapsed":882589,"internal_node_id":"0.0-63.0"},{"result":120,"points":2,"place":1,"phase":0,"sequence":44,"prices":[150,170,160,241,166,186,120,136,96,191],"times":[1308,675,770,812,785,855,1456],"next_num":7,"trial_type":"ticket-choose","trial_index":64,"time_elapsed":892620,"internal_node_id":"0.0-64.0"},{"result":175,"points":1,"place":4,"phase":0,"sequence":45,"prices":[130,195,141,155,181,226,150,216,221,175],"times":[2406,963,985,1049,1067,928,940,1038,951,1038],"next_num":10,"trial_type":"ticket-choose","trial_index":65,"time_elapsed":908369,"internal_node_id":"0.0-65.0"},{"result":126,"points":2,"place":1,"phase":0,"sequence":46,"prices":[156,176,165,246,171,190,126,141,101,196],"times":[1331,872,944,1025,953,843,1174],"next_num":7,"trial_type":"ticket-choose","trial_index":66,"time_elapsed":918834,"internal_node_id":"0.0-66.0"},{"result":110,"points":3,"place":0,"phase":0,"sequence":47,"prices":[156,181,171,256,175,200,131,150,110,206],"times":[5452,1617,859,721,711,929,1930,1020,921],"next_num":9,"trial_type":"ticket-choose","trial_index":67,"time_elapsed":937039,"internal_node_id":"0.0-67.0"},{"result":130,"points":2,"place":1,"phase":0,"sequence":48,"prices":[156,181,130,255,175,200,170,150,111,205],"times":[1100,859,1241],"next_num":3,"trial_type":"ticket-choose","trial_index":68,"time_elapsed":942719,"internal_node_id":"0.0-68.0"},{"result":81,"points":3,"place":0,"phase":0,"sequence":49,"prices":[155,245,155,81,180,130,156,306,166,115],"times":[1144,800,708,989],"next_num":4,"trial_type":"ticket-choose","trial_index":69,"time_elapsed":951472,"internal_node_id":"0.0-69.0"},{"responses":[{"value":1,"offby":0,"category":"$30 - $75","category_index":0},{"value":3,"offby":1,"category":"$76 - $120","category_index":1},{"value":5,"offby":1,"category":"$121 - $165","category_index":2},{"value":6,"offby":0,"category":"$166 - $210","category_index":3},{"value":4,"offby":-2,"category":"$211 - $255","category_index":4},{"value":1,"offby":0,"category":"$256 - $300","category_index":5},{"value":0,"offby":0,"category":"$301 - $345","category_index":6}],"phase":0,"number":1,"trial_type":"bar-choose","trial_index":70,"time_elapsed":1011457,"internal_node_id":"0.0-70.0"},{"rt":15468,"url":"\/tickets\/utils\/start2.html","trial_type":"html","trial_index":71,"time_elapsed":1028028,"internal_node_id":"0.0-71.0"},{"trial_type":"number-animation","trial_index":72,"time_elapsed":1038737,"internal_node_id":"0.0-72.0"},{"phase":1,"sequence":0,"avg":180,"response":180,"trial_type":"training_avg","trial_index":73,"time_elapsed":1045692,"internal_node_id":"0.0-73.0"},{"trial_type":"number-animation","trial_index":74,"time_elapsed":1056408,"internal_node_id":"0.0-74.0"},{"phase":1,"sequence":1,"avg":178,"response":178,"trial_type":"training_avg","trial_index":75,"time_elapsed":1062413,"internal_node_id":"0.0-75.0"},{"trial_type":"number-animation","trial_index":76,"time_elapsed":1072920,"internal_node_id":"0.0-76.0"},{"phase":1,"sequence":2,"avg":176,"response":175,"trial_type":"training_avg","trial_index":77,"time_elapsed":1077740,"internal_node_id":"0.0-77.0"},{"trial_type":"number-animation","trial_index":78,"time_elapsed":1088616,"internal_node_id":"0.0-78.0"},{"phase":1,"sequence":3,"avg":178,"response":173,"trial_type":"training_avg","trial_index":79,"time_elapsed":1094655,"internal_node_id":"0.0-79.0"},{"trial_type":"number-animation","trial_index":80,"time_elapsed":1104720,"internal_node_id":"0.0-80.0"},{"phase":1,"sequence":4,"avg":179,"response":180,"trial_type":"training_avg","trial_index":81,"time_elapsed":1109290,"internal_node_id":"0.0-81.0"},{"responses":[{"value":0,"offby":0,"category":"$140 - $250","category_index":0},{"value":1,"offby":1,"category":"$151 - $160","category_index":1},{"value":5,"offby":1,"category":"$161 - $170","category_index":2},{"value":10,"offby":4,"category":"$171 - $180","category_index":3},{"value":4,"offby":-3,"category":"$181 - $190","category_index":4},{"value":0,"offby":-3,"category":"$191 - $200","category_index":5},{"value":0,"offby":0,"category":"$201 - $210","category_index":6}],"phase":1,"number":0,"trial_type":"bar-choose","trial_index":82,"time_elapsed":1172435,"internal_node_id":"0.0-82.0"},{"rt":25400,"url":"\/tickets\/utils\/testing2.html","trial_type":"html","trial_index":83,"time_elapsed":1198937,"internal_node_id":"0.0-83.0"},{"phase":1,"order":[14,48,25,45,30,44,32,41,6,34,20,43,17,10,24,39,4,36,27,23,49,22,29,19,38,35,47,31,3,13,28,8,40,1,7,16,26,12,18,9,0,2,37,46,21,33,5,15,11,42],"trial_type":"store_order","trial_index":84,"time_elapsed":1199939,"internal_node_id":"0.0-84.0"},{"result":170,"points":2,"place":1,"phase":1,"sequence":0,"prices":[175,180,178,195,179,184,170,174,166,185],"times":[3120,776,710,779,955,1138,1055],"next_num":7,"trial_type":"ticket-choose","trial_index":85,"time_elapsed":1212034,"internal_node_id":"0.0-85.0"},{"result":168,"points":2,"place":1,"phase":1,"sequence":1,"prices":[173,178,176,193,177,182,168,172,164,183],"times":[4605,670,712,799,879,829,1109],"next_num":7,"trial_type":"ticket-choose","trial_index":86,"time_elapsed":1225017,"internal_node_id":"0.0-86.0"},{"result":169,"points":2,"place":1,"phase":1,"sequence":2,"prices":[174,179,169,194,178,183,177,173,165,184],"times":[1017,1271,1418],"next_num":3,"trial_type":"ticket-choose","trial_index":87,"time_elapsed":1231063,"internal_node_id":"0.0-87.0"},{"result":166,"points":3,"place":0,"phase":1,"sequence":3,"prices":[179,186,197,201,166,187,188,193,190,177],"times":[858,652,712,677,1142],"next_num":5,"trial_type":"ticket-choose","trial_index":88,"time_elapsed":1238184,"internal_node_id":"0.0-88.0"},{"result":168,"points":2,"place":1,"phase":1,"sequence":4,"prices":[174,178,176,192,177,181,168,171,163,182],"times":[922,1811,828,775,833,932,949],"next_num":7,"trial_type":"ticket-choose","trial_index":89,"time_elapsed":1248357,"internal_node_id":"0.0-89.0"},{"result":154,"points":3,"place":0,"phase":1,"sequence":5,"prices":[188,179,154,183,173,170,177,160,169,175],"times":[844,1013,1294],"next_num":3,"trial_type":"ticket-choose","trial_index":90,"time_elapsed":1254026,"internal_node_id":"0.0-90.0"},{"result":170,"points":2,"place":1,"phase":1,"sequence":6,"prices":[175,180,170,195,179,184,178,174,166,185],"times":[1438,965,1078],"next_num":3,"trial_type":"ticket-choose","trial_index":91,"time_elapsed":1259829,"internal_node_id":"0.0-91.0"},{"result":165,"points":3,"place":0,"phase":1,"sequence":7,"prices":[180,165,177,193,186,196,187,169,171,182],"times":[698,949],"next_num":2,"trial_type":"ticket-choose","trial_index":92,"time_elapsed":1269720,"internal_node_id":"0.0-92.0"},{"result":169,"points":2,"place":1,"phase":1,"sequence":8,"prices":[175,179,169,193,178,182,177,172,164,183],"times":[1082,601,1350],"next_num":3,"trial_type":"ticket-choose","trial_index":93,"time_elapsed":1275111,"internal_node_id":"0.0-93.0"},{"result":157,"points":2,"place":1,"phase":1,"sequence":9,"prices":[188,191,179,157,181,164,166,156,175,182],"times":[1045,903,1607,953],"next_num":4,"trial_type":"ticket-choose","trial_index":94,"time_elapsed":1282302,"internal_node_id":"0.0-94.0"},{"result":165,"points":3,"place":0,"phase":1,"sequence":10,"prices":[176,180,170,194,179,183,178,173,165,184],"times":[3785,567,510,694,527,582,695,1279,789],"next_num":9,"trial_type":"ticket-choose","trial_index":95,"time_elapsed":1295673,"internal_node_id":"0.0-95.0"},{"result":177,"points":1,"place":2,"phase":1,"sequence":11,"prices":[181,179,199,188,170,172,178,187,191,177],"times":[1509,551,559,543,1838,878,678,654,694,943],"next_num":10,"trial_type":"ticket-choose","trial_index":96,"time_elapsed":1310049,"internal_node_id":"0.0-96.0"},{"result":170,"points":2,"place":1,"phase":1,"sequence":12,"prices":[175,180,170,195,179,184,178,174,166,185],"times":[1262,558,870],"next_num":3,"trial_type":"ticket-choose","trial_index":97,"time_elapsed":1315063,"internal_node_id":"0.0-97.0"},{"result":163,"points":3,"place":0,"phase":1,"sequence":13,"prices":[163,185,165,174,181,198,173,186,187,180],"times":[1068],"next_num":1,"trial_type":"ticket-choose","trial_index":98,"time_elapsed":1318141,"internal_node_id":"0.0-98.0"},{"result":170,"points":3,"place":0,"phase":1,"sequence":14,"prices":[170,183,172,175,180,189,174,187,188,179],"times":[998],"next_num":1,"trial_type":"ticket-choose","trial_index":99,"time_elapsed":1321339,"internal_node_id":"0.0-99.0"},{"result":170,"points":2,"place":1,"phase":1,"sequence":15,"prices":[175,189,193,170,179,165,180,186,177,184],"times":[1050,501,558,979],"next_num":4,"trial_type":"ticket-choose","trial_index":100,"time_elapsed":1326825,"internal_node_id":"0.0-100.0"},{"result":170,"points":2,"place":1,"phase":1,"sequence":16,"prices":[175,180,178,195,179,184,170,174,166,185],"times":[829,526,494,542,775,614,1045],"next_num":7,"trial_type":"ticket-choose","trial_index":101,"time_elapsed":1334743,"internal_node_id":"0.0-101.0"},{"result":168,"points":2,"place":1,"phase":1,"sequence":17,"prices":[174,178,168,192,177,181,176,171,163,182],"times":[998,590,1818],"next_num":3,"trial_type":"ticket-choose","trial_index":102,"time_elapsed":1340467,"internal_node_id":"0.0-102.0"},{"result":168,"points":2,"place":1,"phase":1,"sequence":18,"prices":[173,178,176,193,177,182,168,172,164,183],"times":[5939,1604,518,670,654,710,1078],"next_num":7,"trial_type":"ticket-choose","trial_index":103,"time_elapsed":1354760,"internal_node_id":"0.0-103.0"},{"result":169,"points":2,"place":1,"phase":1,"sequence":19,"prices":[174,179,177,194,178,183,169,173,165,184],"times":[836,517,567,549,662,702,1200],"next_num":7,"trial_type":"ticket-choose","trial_index":104,"time_elapsed":1362879,"internal_node_id":"0.0-104.0"},{"result":150,"points":3,"place":0,"phase":1,"sequence":20,"prices":[175,150,164,155,171,199,158,180,184,196],"times":[1069,1222],"next_num":2,"trial_type":"ticket-choose","trial_index":105,"time_elapsed":1367472,"internal_node_id":"0.0-105.0"},{"result":166,"points":3,"place":0,"phase":1,"sequence":21,"prices":[166,190,170,173,178,203,172,192,198,174],"times":[1369],"next_num":1,"trial_type":"ticket-choose","trial_index":106,"time_elapsed":1370781,"internal_node_id":"0.0-106.0"},{"result":168,"points":2,"place":1,"phase":1,"sequence":22,"prices":[174,178,176,192,177,181,168,171,163,182],"times":[1024,495,462,550,479,558,1116],"next_num":7,"trial_type":"ticket-choose","trial_index":107,"time_elapsed":1378550,"internal_node_id":"0.0-107.0"},{"result":162,"points":3,"place":0,"phase":1,"sequence":23,"prices":[179,174,172,162,202,184,165,197,185,169],"times":[2296,740,1590,905],"next_num":4,"trial_type":"ticket-choose","trial_index":108,"time_elapsed":1386561,"internal_node_id":"0.0-108.0"},{"result":168,"points":2,"place":1,"phase":1,"sequence":24,"prices":[181,175,182,168,183,173,153,170,193,179],"times":[827,543,782,996],"next_num":4,"trial_type":"ticket-choose","trial_index":109,"time_elapsed":1392142,"internal_node_id":"0.0-109.0"},{"result":157,"points":3,"place":0,"phase":1,"sequence":25,"prices":[157,184,163,174,181,190,168,187,189,177],"times":[1051],"next_num":1,"trial_type":"ticket-choose","trial_index":110,"time_elapsed":1395043,"internal_node_id":"0.0-110.0"},{"result":160,"points":3,"place":0,"phase":1,"sequence":26,"prices":[175,193,175,160,180,170,175,205,177,167],"times":[1114,495,486,1003],"next_num":4,"trial_type":"ticket-choose","trial_index":111,"time_elapsed":1400587,"internal_node_id":"0.0-111.0"},{"result":160,"points":3,"place":0,"phase":1,"sequence":27,"prices":[160,185,170,174,182,196,173,186,194,177],"times":[821],"next_num":1,"trial_type":"ticket-choose","trial_index":112,"time_elapsed":1403300,"internal_node_id":"0.0-112.0"},{"result":169,"points":2,"place":1,"phase":1,"sequence":28,"prices":[174,179,177,194,178,183,169,173,165,184],"times":[1017,991,510,679,615,607,1355],"next_num":7,"trial_type":"ticket-choose","trial_index":113,"time_elapsed":1412495,"internal_node_id":"0.0-113.0"},{"result":156,"points":3,"place":0,"phase":1,"sequence":29,"prices":[195,177,197,179,171,173,175,156,163,204],"times":[1069,815,718,758,1710,751,2119,1224],"next_num":8,"trial_type":"ticket-choose","trial_index":114,"time_elapsed":1434949,"internal_node_id":"0.0-114.0"},{"result":170,"points":2,"place":1,"phase":1,"sequence":30,"prices":[176,180,178,194,179,183,170,173,165,184],"times":[4616,3607,568,1142,1463,1327,2387],"next_num":7,"trial_type":"ticket-choose","trial_index":115,"time_elapsed":1453202,"internal_node_id":"0.0-115.0"},{"result":169,"points":2,"place":1,"phase":1,"sequence":31,"prices":[175,179,169,193,178,182,177,172,164,183],"times":[841,695,1774],"next_num":3,"trial_type":"ticket-choose","trial_index":116,"time_elapsed":1458785,"internal_node_id":"0.0-116.0"},{"result":165,"points":2,"place":1,"phase":1,"sequence":32,"prices":[181,180,191,186,165,197,159,167,194,185],"times":[1635,710,591,622,1271],"next_num":5,"trial_type":"ticket-choose","trial_index":117,"time_elapsed":1466522,"internal_node_id":"0.0-117.0"},{"result":164,"points":3,"place":0,"phase":1,"sequence":33,"prices":[173,178,168,193,177,182,176,172,164,183],"times":[1354,462,446,1686,758,862,862,1327,979],"next_num":9,"trial_type":"ticket-choose","trial_index":118,"time_elapsed":1479270,"internal_node_id":"0.0-118.0"},{"result":170,"points":2,"place":1,"phase":1,"sequence":34,"prices":[176,180,178,194,179,183,170,173,165,184],"times":[1631,566,518,598,606,623,1661],"next_num":7,"trial_type":"ticket-choose","trial_index":119,"time_elapsed":1488711,"internal_node_id":"0.0-119.0"},{"result":168,"points":2,"place":1,"phase":1,"sequence":35,"prices":[174,178,168,192,177,181,176,171,163,182],"times":[725,510,947],"next_num":3,"trial_type":"ticket-choose","trial_index":120,"time_elapsed":1493298,"internal_node_id":"0.0-120.0"},{"result":169,"points":2,"place":1,"phase":1,"sequence":36,"prices":[175,179,177,193,178,182,169,172,164,183],"times":[660,766,662,648,702,982,1274],"next_num":7,"trial_type":"ticket-choose","trial_index":121,"time_elapsed":1506352,"internal_node_id":"0.0-121.0"},{"result":169,"points":2,"place":1,"phase":1,"sequence":37,"prices":[174,179,169,194,178,183,177,173,165,184],"times":[1934,550,1594],"next_num":3,"trial_type":"ticket-choose","trial_index":122,"time_elapsed":1512690,"internal_node_id":"0.0-122.0"},{"result":181,"points":0,"place":5,"phase":1,"sequence":38,"prices":[180,175,173,177,191,190,184,196,174,181],"times":[666,517,494,3871,678,606,559,606,791,1147],"next_num":10,"trial_type":"ticket-choose","trial_index":123,"time_elapsed":1527587,"internal_node_id":"0.0-123.0"},{"result":187,"points":0,"place":7,"phase":1,"sequence":39,"prices":[193,173,175,182,179,198,181,171,176,187],"times":[802,1184,686,815,1814,774,806,1486,871,772],"next_num":10,"trial_type":"ticket-choose","trial_index":124,"time_elapsed":1545861,"internal_node_id":"0.0-124.0"},{"result":168,"points":2,"place":1,"phase":1,"sequence":40,"prices":[173,178,168,193,177,182,176,172,164,183],"times":[1958,807,1019],"next_num":3,"trial_type":"ticket-choose","trial_index":125,"time_elapsed":1551811,"internal_node_id":"0.0-125.0"},{"result":175,"points":1,"place":4,"phase":1,"sequence":41,"prices":[171,180,172,174,179,188,173,183,186,175],"times":[2063,574,728,620,695,710,1382,759,623,916],"next_num":10,"trial_type":"ticket-choose","trial_index":126,"time_elapsed":1565192,"internal_node_id":"0.0-126.0"},{"result":169,"points":1,"place":2,"phase":1,"sequence":42,"prices":[189,185,169,168,167,171,180,173,174,188],"times":[1252,694,1122],"next_num":3,"trial_type":"ticket-choose","trial_index":127,"time_elapsed":1571257,"internal_node_id":"0.0-127.0"},{"result":161,"points":3,"place":0,"phase":1,"sequence":43,"prices":[161,180,170,174,178,198,173,182,188,176],"times":[989],"next_num":1,"trial_type":"ticket-choose","trial_index":128,"time_elapsed":1574341,"internal_node_id":"0.0-128.0"},{"result":170,"points":2,"place":1,"phase":1,"sequence":44,"prices":[176,180,170,194,179,183,178,173,165,184],"times":[693,519,961],"next_num":3,"trial_type":"ticket-choose","trial_index":129,"time_elapsed":1578754,"internal_node_id":"0.0-129.0"},{"result":168,"points":3,"place":0,"phase":1,"sequence":45,"prices":[168,188,171,181,184,196,180,194,195,183],"times":[927],"next_num":1,"trial_type":"ticket-choose","trial_index":130,"time_elapsed":1581476,"internal_node_id":"0.0-130.0"},{"result":167,"points":3,"place":0,"phase":1,"sequence":46,"prices":[179,174,199,178,196,167,170,184,177,190],"times":[2032,775,542,598,565,1054],"next_num":6,"trial_type":"ticket-choose","trial_index":131,"time_elapsed":1589950,"internal_node_id":"0.0-131.0"},{"result":165,"points":3,"place":0,"phase":1,"sequence":47,"prices":[165,187,173,177,186,196,176,191,192,181],"times":[952],"next_num":1,"trial_type":"ticket-choose","trial_index":132,"time_elapsed":1592967,"internal_node_id":"0.0-132.0"},{"result":159,"points":3,"place":0,"phase":1,"sequence":48,"prices":[159,178,170,174,176,194,173,182,185,175],"times":[1358],"next_num":1,"trial_type":"ticket-choose","trial_index":133,"time_elapsed":1596249,"internal_node_id":"0.0-133.0"},{"result":169,"points":2,"place":1,"phase":1,"sequence":49,"prices":[175,179,177,193,178,182,169,172,164,183],"times":[986,911,717,678,694,678,1053],"next_num":7,"trial_type":"ticket-choose","trial_index":134,"time_elapsed":1605150,"internal_node_id":"0.0-134.0"},{"responses":[{"value":0,"offby":0,"category":"$140 - $250","category_index":0},{"value":1,"offby":1,"category":"$151 - $160","category_index":1},{"value":4,"offby":0,"category":"$161 - $170","category_index":2},{"value":8,"offby":2,"category":"$171 - $180","category_index":3},{"value":5,"offby":-2,"category":"$181 - $190","category_index":4},{"value":2,"offby":-1,"category":"$191 - $200","category_index":5},{"value":0,"offby":0,"category":"$201 - $210","category_index":6}],"phase":1,"number":1,"trial_type":"bar-choose","trial_index":135,"time_elapsed":1656915,"internal_node_id":"0.0-135.0"},{"special_comment":"No","trial_type":"special_sequence","trial_index":136,"time_elapsed":1665715,"internal_node_id":"0.0-136.0"},{"during":"Nothing","bonus":300,"trial_type":"final","trial_index":137,"time_elapsed":1686481,"internal_node_id":"0.0-137.0"}],"bonus":300}