{"start_time":"2017-02-22 10:44:14","end_time":"2017-02-22 11:04:37","points_phase0":111,"points_phase1":89,"phase_order":1,"age":26,"gender":"m","tries":1,"during":"Nothing","worker_id":"A3RVYJNYREMTAH","assignment_id":"308Q0PEVB96MB7F16MLQX4HH6V09IE","data":[{"rt":4019,"url":"\/tickets\/utils\/consent.html","trial_type":"html","trial_index":0,"time_elapsed":4055,"internal_node_id":"0.0-0.0"},{"age":26,"gender":"m","trial_type":"age","trial_index":1,"time_elapsed":8253,"internal_node_id":"0.0-1.0"},{"worker_id":"A3RVYJNYREMTAH","trial_type":"workerid","trial_index":2,"time_elapsed":14779,"internal_node_id":"0.0-2.0"},{"tries":1,"trial_type":"instructions_check","trial_index":3,"time_elapsed":18506,"internal_node_id":"0.0-3.0"},{"rt":659,"url":"\/tickets\/utils\/start.html","trial_type":"html","trial_index":4,"time_elapsed":20184,"internal_node_id":"0.0-4.0"},{"trial_type":"number-animation","trial_index":5,"time_elapsed":26396,"internal_node_id":"0.0-5.0"},{"phase":0,"sequence":0,"avg":182,"response":182,"trial_type":"training_avg","trial_index":6,"time_elapsed":32112,"internal_node_id":"0.0-6.0"},{"trial_type":"number-animation","trial_index":7,"time_elapsed":38205,"internal_node_id":"0.0-7.0"},{"phase":0,"sequence":1,"avg":188,"response":178,"trial_type":"training_avg","trial_index":8,"time_elapsed":45737,"internal_node_id":"0.0-8.0"},{"trial_type":"number-animation","trial_index":9,"time_elapsed":52387,"internal_node_id":"0.0-9.0"},{"phase":0,"sequence":2,"avg":176,"response":180,"trial_type":"training_avg","trial_index":10,"time_elapsed":58831,"internal_node_id":"0.0-10.0"},{"trial_type":"number-animation","trial_index":11,"time_elapsed":65399,"internal_node_id":"0.0-11.0"},{"phase":0,"sequence":3,"avg":180,"response":180,"trial_type":"training_avg","trial_index":12,"time_elapsed":71212,"internal_node_id":"0.0-12.0"},{"trial_type":"number-animation","trial_index":13,"time_elapsed":77516,"internal_node_id":"0.0-13.0"},{"phase":0,"sequence":4,"avg":174,"response":182,"trial_type":"training_avg","trial_index":14,"time_elapsed":84409,"internal_node_id":"0.0-14.0"},{"responses":[{"value":0,"offby":-1,"category":"$90 - $120","category_index":0},{"value":2,"offby":-1,"category":"$121 - $145","category_index":1},{"value":4,"offby":1,"category":"$146 - $170","category_index":2},{"value":10,"offby":4,"category":"$171 - $195","category_index":3},{"value":4,"offby":0,"category":"$196 - $220","category_index":4},{"value":0,"offby":-2,"category":"$221 - $245","category_index":5},{"value":0,"offby":-1,"category":"$246 - $270","category_index":6}],"phase":0,"number":0,"trial_type":"bar-choose","trial_index":15,"time_elapsed":137156,"internal_node_id":"0.0-15.0"},{"rt":13101,"url":"\/tickets\/\/utils\/testing.html","trial_type":"html","trial_index":16,"time_elapsed":151385,"internal_node_id":"0.0-16.0"},{"phase":0,"order":[33,21,27,7,9,12,40,47,17,1,6,32,30,4,11,34,23,35,28,13,45,36,0,25,38,8,49,22,43,31,24,42,18,2,15,20,16,14,39,5,29,46,26,19,37,44,10,41,3,48],"trial_type":"store_order","trial_index":17,"time_elapsed":152388,"internal_node_id":"0.0-17.0"},{"result":126,"points":3,"place":0,"phase":0,"sequence":-1,"prices":[184,180,224,165,181,199,185,193,218,126],"times":[1768,1049,715,1305,559,1208,958,710,722,953],"next_num":10,"trial_type":"ticket-choose","trial_index":18,"time_elapsed":166395,"internal_node_id":"0.0-18.0"},{"rt":5788,"url":"\/tickets\/utils\/testing_after.html","trial_type":"html","trial_index":19,"time_elapsed":173324,"internal_node_id":"0.0-19.0"},{"result":138,"points":1,"place":2,"phase":0,"sequence":0,"prices":[181,138,118,170,190,101,146,169,175,233],"times":[1175,1113],"next_num":2,"trial_type":"ticket-choose","trial_index":20,"time_elapsed":178572,"internal_node_id":"0.0-20.0"},{"result":131,"points":3,"place":0,"phase":0,"sequence":1,"prices":[170,190,176,251,183,192,154,157,236,131],"times":[874,523,484,632,553,579,528,580,598,654],"next_num":10,"trial_type":"ticket-choose","trial_index":21,"time_elapsed":188699,"internal_node_id":"0.0-21.0"},{"result":128,"points":3,"place":0,"phase":0,"sequence":2,"prices":[171,195,172,242,179,196,146,150,128,235],"times":[779,592,517,556,504,531,1187,481,837],"next_num":9,"trial_type":"ticket-choose","trial_index":22,"time_elapsed":198351,"internal_node_id":"0.0-22.0"},{"result":126,"points":3,"place":0,"phase":0,"sequence":3,"prices":[172,191,176,272,179,194,146,152,126,235],"times":[706,496,464,447,490,488,477,512,766],"next_num":9,"trial_type":"ticket-choose","trial_index":23,"time_elapsed":206791,"internal_node_id":"0.0-23.0"},{"result":128,"points":3,"place":0,"phase":0,"sequence":4,"prices":[171,192,136,243,182,195,174,154,236,128],"times":[563,426,1490,349,473,451,496,500,550,539],"next_num":10,"trial_type":"ticket-choose","trial_index":24,"time_elapsed":216441,"internal_node_id":"0.0-24.0"},{"result":125,"points":3,"place":0,"phase":0,"sequence":5,"prices":[169,192,176,244,178,194,154,159,237,125],"times":[566,379,435,460,479,474,485,511,780,685],"next_num":10,"trial_type":"ticket-choose","trial_index":25,"time_elapsed":225488,"internal_node_id":"0.0-25.0"},{"result":116,"points":3,"place":0,"phase":0,"sequence":6,"prices":[186,146,191,179,152,116,140,201,172,187],"times":[753,401,451,382,461,872],"next_num":6,"trial_type":"ticket-choose","trial_index":26,"time_elapsed":231797,"internal_node_id":"0.0-26.0"},{"result":172,"points":1,"place":4,"phase":0,"sequence":7,"prices":[135,202,150,169,183,225,160,211,220,172],"times":[1636,540,549,456,420,461,473,539,513,560],"next_num":10,"trial_type":"ticket-choose","trial_index":27,"time_elapsed":241928,"internal_node_id":"0.0-27.0"},{"result":136,"points":2,"place":1,"phase":0,"sequence":8,"prices":[172,194,174,243,182,193,136,150,237,126],"times":[855,474,451,542,461,484,884],"next_num":7,"trial_type":"ticket-choose","trial_index":28,"time_elapsed":249212,"internal_node_id":"0.0-28.0"},{"result":129,"points":3,"place":0,"phase":0,"sequence":9,"prices":[172,190,136,270,179,192,174,152,237,129],"times":[806,484,863,480,493,500,474,538,522,623],"next_num":10,"trial_type":"ticket-choose","trial_index":29,"time_elapsed":258665,"internal_node_id":"0.0-29.0"},{"result":105,"points":3,"place":0,"phase":0,"sequence":10,"prices":[263,165,224,214,105,230,215,185,177,193],"times":[1222,633,552,639,933],"next_num":5,"trial_type":"ticket-choose","trial_index":30,"time_elapsed":265237,"internal_node_id":"0.0-30.0"},{"result":196,"points":1,"place":4,"phase":0,"sequence":11,"prices":[143,206,153,194,201,267,168,208,210,196],"times":[1928,706,475,485,654,486,603,512,607,849],"next_num":10,"trial_type":"ticket-choose","trial_index":31,"time_elapsed":276545,"internal_node_id":"0.0-31.0"},{"result":241,"points":0,"place":8,"phase":0,"sequence":12,"prices":[170,193,146,268,178,195,172,149,126,241],"times":[741,527,904,479,497,546,558,2015,488,623],"next_num":11,"trial_type":"ticket-choose","trial_index":32,"time_elapsed":288319,"internal_node_id":"0.0-32.0"},{"result":162,"points":1,"place":3,"phase":0,"sequence":13,"prices":[197,153,181,215,150,155,164,247,177,162],"times":[1693,459,597,574,648,562,1279,557,599,511],"next_num":10,"trial_type":"ticket-choose","trial_index":33,"time_elapsed":299513,"internal_node_id":"0.0-33.0"},{"result":136,"points":2,"place":1,"phase":0,"sequence":14,"prices":[171,192,136,265,180,194,174,152,239,127],"times":[710,537,945],"next_num":3,"trial_type":"ticket-choose","trial_index":34,"time_elapsed":303949,"internal_node_id":"0.0-34.0"},{"result":136,"points":3,"place":0,"phase":0,"sequence":15,"prices":[240,188,273,207,250,136,217,170,171,236],"times":[622,497,476,465,471,1357],"next_num":6,"trial_type":"ticket-choose","trial_index":35,"time_elapsed":310781,"internal_node_id":"0.0-35.0"},{"result":117,"points":3,"place":0,"phase":0,"sequence":16,"prices":[117,161,120,147,153,259,144,191,195,149],"times":[1528],"next_num":1,"trial_type":"ticket-choose","trial_index":36,"time_elapsed":314280,"internal_node_id":"0.0-36.0"},{"result":146,"points":2,"place":1,"phase":0,"sequence":17,"prices":[168,191,146,252,183,193,172,153,126,238],"times":[1138,483,854],"next_num":3,"trial_type":"ticket-choose","trial_index":37,"time_elapsed":319006,"internal_node_id":"0.0-37.0"},{"result":135,"points":3,"place":0,"phase":0,"sequence":18,"prices":[221,193,135,188,217,179,196,190,175,159],"times":[2006,577,991],"next_num":3,"trial_type":"ticket-choose","trial_index":38,"time_elapsed":325136,"internal_node_id":"0.0-38.0"},{"result":121,"points":3,"place":0,"phase":0,"sequence":19,"prices":[121,191,128,141,166,217,129,196,202,157],"times":[1005],"next_num":1,"trial_type":"ticket-choose","trial_index":39,"time_elapsed":328025,"internal_node_id":"0.0-39.0"},{"result":192,"points":1,"place":4,"phase":0,"sequence":20,"prices":[157,205,161,175,197,254,165,210,214,192],"times":[842,530,457,482,495,505,630,639,554,836],"next_num":10,"trial_type":"ticket-choose","trial_index":40,"time_elapsed":337661,"internal_node_id":"0.0-40.0"},{"result":146,"points":2,"place":1,"phase":0,"sequence":21,"prices":[168,191,172,240,183,193,146,151,125,238],"times":[1440,568,505,544,513,725,932],"next_num":7,"trial_type":"ticket-choose","trial_index":41,"time_elapsed":345879,"internal_node_id":"0.0-41.0"},{"result":129,"points":3,"place":0,"phase":0,"sequence":22,"prices":[169,193,146,237,180,196,172,150,129,236],"times":[1204,531,1059,423,469,571,530,478,779],"next_num":9,"trial_type":"ticket-choose","trial_index":42,"time_elapsed":355532,"internal_node_id":"0.0-42.0"},{"result":146,"points":2,"place":1,"phase":0,"sequence":23,"prices":[171,191,172,268,179,194,146,150,127,239],"times":[1001,545,671,632,457,592,883],"next_num":7,"trial_type":"ticket-choose","trial_index":43,"time_elapsed":363417,"internal_node_id":"0.0-43.0"},{"result":156,"points":1,"place":2,"phase":0,"sequence":24,"prices":[168,192,154,237,182,196,176,156,235,133],"times":[968,518,3890,501,514,526,552,2369],"next_num":8,"trial_type":"ticket-choose","trial_index":44,"time_elapsed":376617,"internal_node_id":"0.0-44.0"},{"result":145,"points":2,"place":1,"phase":0,"sequence":25,"prices":[216,206,158,145,224,185,124,149,175,162],"times":[2282,525,1153,2210],"next_num":4,"trial_type":"ticket-choose","trial_index":45,"time_elapsed":385277,"internal_node_id":"0.0-45.0"},{"result":131,"points":2,"place":1,"phase":0,"sequence":26,"prices":[221,234,131,136,132,149,154,90,176,173],"times":[704,485,873],"next_num":3,"trial_type":"ticket-choose","trial_index":46,"time_elapsed":389915,"internal_node_id":"0.0-46.0"},{"result":136,"points":2,"place":1,"phase":0,"sequence":27,"prices":[173,191,174,270,180,193,136,153,239,129],"times":[928,613,440,585,617,524,846],"next_num":7,"trial_type":"ticket-choose","trial_index":47,"time_elapsed":397465,"internal_node_id":"0.0-47.0"},{"result":149,"points":3,"place":0,"phase":0,"sequence":28,"prices":[244,203,196,189,154,206,197,149,171,159],"times":[826,732,1050,512,719,560,493,1908],"next_num":8,"trial_type":"ticket-choose","trial_index":48,"time_elapsed":407719,"internal_node_id":"0.0-48.0"},{"result":132,"points":3,"place":0,"phase":0,"sequence":29,"prices":[132,222,144,153,190,248,151,224,228,179],"times":[1301],"next_num":1,"trial_type":"ticket-choose","trial_index":49,"time_elapsed":411145,"internal_node_id":"0.0-49.0"},{"result":128,"points":3,"place":0,"phase":0,"sequence":30,"prices":[170,192,174,242,181,196,136,153,236,128],"times":[3820,421,501,572,507,555,531,578,569,528],"next_num":10,"trial_type":"ticket-choose","trial_index":50,"time_elapsed":423418,"internal_node_id":"0.0-50.0"},{"result":127,"points":3,"place":0,"phase":0,"sequence":31,"prices":[169,194,154,271,178,201,176,158,236,127],"times":[2387,531,468,409,307,581,509,576,541,476],"next_num":10,"trial_type":"ticket-choose","trial_index":51,"time_elapsed":437295,"internal_node_id":"0.0-51.0"},{"result":126,"points":3,"place":0,"phase":0,"sequence":32,"prices":[170,193,176,245,178,194,154,159,236,126],"times":[992,495,389,511,434,504,453,1523,560,550],"next_num":10,"trial_type":"ticket-choose","trial_index":52,"time_elapsed":447789,"internal_node_id":"0.0-52.0"},{"result":126,"points":3,"place":0,"phase":0,"sequence":33,"prices":[169,193,154,255,178,194,176,158,239,126],"times":[12253,318,279,311,477,418,464,525,490,597],"next_num":10,"trial_type":"ticket-choose","trial_index":53,"time_elapsed":467949,"internal_node_id":"0.0-53.0"},{"result":146,"points":2,"place":1,"phase":0,"sequence":34,"prices":[173,191,146,242,178,194,172,152,126,235],"times":[671,607,1460],"next_num":3,"trial_type":"ticket-choose","trial_index":54,"time_elapsed":472843,"internal_node_id":"0.0-54.0"},{"result":124,"points":3,"place":0,"phase":0,"sequence":35,"prices":[124,220,136,165,185,234,143,225,228,179],"times":[1079],"next_num":1,"trial_type":"ticket-choose","trial_index":55,"time_elapsed":475845,"internal_node_id":"0.0-55.0"},{"result":132,"points":3,"place":0,"phase":0,"sequence":36,"prices":[168,192,176,242,183,197,154,156,237,132],"times":[718,491,460,571,592,422,495,547,517,474],"next_num":10,"trial_type":"ticket-choose","trial_index":56,"time_elapsed":484870,"internal_node_id":"0.0-56.0"},{"result":127,"points":3,"place":0,"phase":0,"sequence":37,"prices":[173,194,136,239,182,200,174,150,236,127],"times":[1040,313,278,423,592,567,599,657,478,561],"next_num":10,"trial_type":"ticket-choose","trial_index":57,"time_elapsed":494090,"internal_node_id":"0.0-57.0"},{"result":129,"points":2,"place":1,"phase":0,"sequence":38,"prices":[219,183,227,124,176,161,140,129,171,201],"times":[888,644,654,391,386,334,385,809],"next_num":8,"trial_type":"ticket-choose","trial_index":58,"time_elapsed":501800,"internal_node_id":"0.0-58.0"},{"result":188,"points":1,"place":4,"phase":0,"sequence":39,"prices":[142,207,171,182,190,269,180,218,256,188],"times":[1799,574,545,470,480,638,554,503,519,624],"next_num":10,"trial_type":"ticket-choose","trial_index":59,"time_elapsed":512526,"internal_node_id":"0.0-59.0"},{"result":160,"points":1,"place":4,"phase":0,"sequence":40,"prices":[137,187,152,156,166,231,155,194,202,160],"times":[1652,490,471,575,441,632,456,515,505,551],"next_num":10,"trial_type":"ticket-choose","trial_index":60,"time_elapsed":523117,"internal_node_id":"0.0-60.0"},{"result":133,"points":3,"place":0,"phase":0,"sequence":41,"prices":[169,191,154,268,183,197,176,155,236,133],"times":[865,493,466,572,497,576,512,1903,442,489],"next_num":10,"trial_type":"ticket-choose","trial_index":61,"time_elapsed":533658,"internal_node_id":"0.0-61.0"},{"result":129,"points":2,"place":1,"phase":0,"sequence":42,"prices":[155,129,164,189,210,108,187,241,174,275],"times":[1598,950],"next_num":2,"trial_type":"ticket-choose","trial_index":62,"time_elapsed":538167,"internal_node_id":"0.0-62.0"},{"result":207,"points":0,"place":8,"phase":0,"sequence":43,"prices":[181,130,116,142,157,193,165,218,173,207],"times":[1824,401,436,389,276,506,507,541,498,447],"next_num":10,"trial_type":"ticket-choose","trial_index":63,"time_elapsed":547616,"internal_node_id":"0.0-63.0"},{"result":114,"points":3,"place":0,"phase":0,"sequence":44,"prices":[182,249,159,114,184,205,175,189,172,178],"times":[803,720,497,799],"next_num":4,"trial_type":"ticket-choose","trial_index":64,"time_elapsed":552854,"internal_node_id":"0.0-64.0"},{"result":189,"points":1,"place":4,"phase":0,"sequence":45,"prices":[157,213,159,187,194,242,161,222,225,189],"times":[540,634,553,483,463,587,439,575,510,552],"next_num":10,"trial_type":"ticket-choose","trial_index":65,"time_elapsed":562184,"internal_node_id":"0.0-65.0"},{"result":136,"points":2,"place":1,"phase":0,"sequence":46,"prices":[169,192,174,246,180,195,136,152,238,126],"times":[1107,494,437,595,453,559,798],"next_num":7,"trial_type":"ticket-choose","trial_index":66,"time_elapsed":569618,"internal_node_id":"0.0-66.0"},{"result":128,"points":3,"place":0,"phase":0,"sequence":47,"prices":[196,221,149,164,216,167,175,128,176,181],"times":[714,856,491,584,489,459,506,787],"next_num":8,"trial_type":"ticket-choose","trial_index":67,"time_elapsed":578180,"internal_node_id":"0.0-67.0"},{"result":217,"points":0,"place":8,"phase":0,"sequence":48,"prices":[198,119,169,141,195,233,136,208,177,217],"times":[678,478,536,461,467,577,564,584,431,307],"next_num":10,"trial_type":"ticket-choose","trial_index":68,"time_elapsed":587168,"internal_node_id":"0.0-68.0"},{"result":146,"points":3,"place":0,"phase":0,"sequence":49,"prices":[156,218,212,216,191,210,275,146,174,152],"times":[1038,506,690,461,580,519,479,1133],"next_num":8,"trial_type":"ticket-choose","trial_index":69,"time_elapsed":595809,"internal_node_id":"0.0-69.0"},{"responses":[{"value":1,"offby":0,"category":"$90 - $120","category_index":0},{"value":2,"offby":-1,"category":"$121 - $145","category_index":1},{"value":4,"offby":1,"category":"$146 - $170","category_index":2},{"value":7,"offby":1,"category":"$171 - $195","category_index":3},{"value":3,"offby":-1,"category":"$196 - $220","category_index":4},{"value":2,"offby":0,"category":"$221 - $245","category_index":5},{"value":1,"offby":0,"category":"$246 - $270","category_index":6}],"phase":0,"number":1,"trial_type":"bar-choose","trial_index":70,"time_elapsed":615889,"internal_node_id":"0.0-70.0"},{"rt":126656,"url":"\/tickets\/utils\/start2.html","trial_type":"html","trial_index":71,"time_elapsed":743671,"internal_node_id":"0.0-71.0"},{"trial_type":"number-animation","trial_index":72,"time_elapsed":750749,"internal_node_id":"0.0-72.0"},{"phase":1,"sequence":0,"avg":181,"response":182,"trial_type":"training_avg","trial_index":73,"time_elapsed":758415,"internal_node_id":"0.0-73.0"},{"trial_type":"number-animation","trial_index":74,"time_elapsed":764842,"internal_node_id":"0.0-74.0"},{"phase":1,"sequence":1,"avg":188,"response":188,"trial_type":"training_avg","trial_index":75,"time_elapsed":768784,"internal_node_id":"0.0-75.0"},{"trial_type":"number-animation","trial_index":76,"time_elapsed":775243,"internal_node_id":"0.0-76.0"},{"phase":1,"sequence":2,"avg":188,"response":191,"trial_type":"training_avg","trial_index":77,"time_elapsed":780297,"internal_node_id":"0.0-77.0"},{"trial_type":"number-animation","trial_index":78,"time_elapsed":787145,"internal_node_id":"0.0-78.0"},{"phase":1,"sequence":3,"avg":177,"response":181,"trial_type":"training_avg","trial_index":79,"time_elapsed":791698,"internal_node_id":"0.0-79.0"},{"trial_type":"number-animation","trial_index":80,"time_elapsed":798463,"internal_node_id":"0.0-80.0"},{"phase":1,"sequence":4,"avg":182,"response":176,"trial_type":"training_avg","trial_index":81,"time_elapsed":813510,"internal_node_id":"0.0-81.0"},{"responses":[{"value":1,"offby":1,"category":"$106 - $134","category_index":0},{"value":1,"offby":0,"category":"$135 - $150","category_index":1},{"value":2,"offby":-1,"category":"$151 - $165","category_index":2},{"value":5,"offby":-1,"category":"$166 - $180","category_index":3},{"value":6,"offby":0,"category":"$181 - $195","category_index":4},{"value":4,"offby":1,"category":"$196 - $210","category_index":5},{"value":1,"offby":0,"category":"$211 - $225","category_index":6}],"phase":1,"number":0,"trial_type":"bar-choose","trial_index":82,"time_elapsed":831060,"internal_node_id":"0.0-82.0"},{"rt":18652,"url":"\/tickets\/utils\/testing2.html","trial_type":"html","trial_index":83,"time_elapsed":850828,"internal_node_id":"0.0-83.0"},{"phase":1,"order":[44,13,5,4,17,14,49,30,22,19,42,32,3,39,16,46,31,2,43,29,27,6,1,7,8,37,41,23,45,25,21,11,15,10,0,26,12,18,47,24,33,9,35,34,48,28,20,36,40,38],"trial_type":"store_order","trial_index":84,"time_elapsed":851829,"internal_node_id":"0.0-84.0"},{"result":170,"points":1,"place":4,"phase":1,"sequence":0,"prices":[159,183,166,168,173,205,167,187,191,170],"times":[1910,363,286,316,280,240,371,576,596,513],"next_num":10,"trial_type":"ticket-choose","trial_index":85,"time_elapsed":861251,"internal_node_id":"0.0-85.0"},{"result":158,"points":2,"place":1,"phase":1,"sequence":1,"prices":[175,186,177,209,181,188,158,167,208,154],"times":[744,290,274,288,466,410,1225],"next_num":7,"trial_type":"ticket-choose","trial_index":86,"time_elapsed":868210,"internal_node_id":"0.0-86.0"},{"result":197,"points":0,"place":8,"phase":1,"sequence":2,"prices":[168,192,171,178,188,217,172,195,197,186],"times":[993,285,256,342,405,573,598,927,563],"next_num":9,"trial_type":"ticket-choose","trial_index":87,"time_elapsed":876624,"internal_node_id":"0.0-87.0"},{"result":163,"points":2,"place":1,"phase":1,"sequence":3,"prices":[175,186,176,224,179,187,163,165,153,210],"times":[877,345,242,255,227,269,958],"next_num":7,"trial_type":"ticket-choose","trial_index":88,"time_elapsed":882783,"internal_node_id":"0.0-88.0"},{"result":156,"points":3,"place":0,"phase":1,"sequence":4,"prices":[175,185,167,224,181,186,178,168,208,156],"times":[607,354,241,304,273,523,481,875,568,547],"next_num":10,"trial_type":"ticket-choose","trial_index":89,"time_elapsed":891219,"internal_node_id":"0.0-89.0"},{"result":156,"points":3,"place":0,"phase":1,"sequence":5,"prices":[174,186,178,217,181,188,167,168,208,156],"times":[3058,332,237,281,275,302,752,411,536,446],"next_num":10,"trial_type":"ticket-choose","trial_index":90,"time_elapsed":901438,"internal_node_id":"0.0-90.0"},{"result":160,"points":1,"place":2,"phase":1,"sequence":6,"prices":[189,150,175,160,188,207,158,194,178,199],"times":[1136,271,322,1023],"next_num":4,"trial_type":"ticket-choose","trial_index":91,"time_elapsed":906900,"internal_node_id":"0.0-91.0"},{"result":160,"points":1,"place":2,"phase":1,"sequence":7,"prices":[200,181,203,152,175,171,160,154,176,191],"times":[856,359,440,289,384,556,777],"next_num":7,"trial_type":"ticket-choose","trial_index":92,"time_elapsed":913547,"internal_node_id":"0.0-92.0"},{"result":158,"points":2,"place":1,"phase":1,"sequence":8,"prices":[175,186,158,209,181,188,177,167,208,154],"times":[520,497,743],"next_num":3,"trial_type":"ticket-choose","trial_index":93,"time_elapsed":917497,"internal_node_id":"0.0-93.0"},{"result":208,"points":0,"place":8,"phase":1,"sequence":9,"prices":[175,187,163,209,180,188,176,165,154,208],"times":[515,464,503,512,509,471,512,586,533,487],"next_num":10,"trial_type":"ticket-choose","trial_index":94,"time_elapsed":926125,"internal_node_id":"0.0-94.0"},{"result":153,"points":3,"place":0,"phase":1,"sequence":10,"prices":[174,186,176,217,181,187,163,166,153,209],"times":[561,477,490,567,496,494,543,555,683],"next_num":9,"trial_type":"ticket-choose","trial_index":95,"time_elapsed":934284,"internal_node_id":"0.0-95.0"},{"result":188,"points":1,"place":4,"phase":1,"sequence":11,"prices":[161,193,167,187,190,224,174,194,195,188],"times":[378,530,452,497,484,484,516,486,536,701],"next_num":10,"trial_type":"ticket-choose","trial_index":96,"time_elapsed":942873,"internal_node_id":"0.0-96.0"},{"result":157,"points":3,"place":0,"phase":1,"sequence":12,"prices":[157,191,165,175,182,203,170,195,200,176],"times":[715],"next_num":1,"trial_type":"ticket-choose","trial_index":97,"time_elapsed":945206,"internal_node_id":"0.0-97.0"},{"result":163,"points":2,"place":1,"phase":1,"sequence":13,"prices":[176,186,176,210,179,187,163,166,153,208],"times":[539,486,481,530,547,527,796],"next_num":7,"trial_type":"ticket-choose","trial_index":98,"time_elapsed":951976,"internal_node_id":"0.0-98.0"},{"result":153,"points":3,"place":0,"phase":1,"sequence":14,"prices":[175,187,167,212,179,187,178,169,208,153],"times":[915,477,411,552,540,629,552,818,475,476],"next_num":10,"trial_type":"ticket-choose","trial_index":99,"time_elapsed":961342,"internal_node_id":"0.0-99.0"},{"result":155,"points":2,"place":1,"phase":1,"sequence":15,"prices":[181,155,148,161,168,187,172,199,176,194],"times":[514,697],"next_num":2,"trial_type":"ticket-choose","trial_index":100,"time_elapsed":964365,"internal_node_id":"0.0-100.0"},{"result":158,"points":2,"place":1,"phase":1,"sequence":16,"prices":[176,185,177,218,180,186,158,166,209,154],"times":[613,476,451,482,515,508,733],"next_num":7,"trial_type":"ticket-choose","trial_index":101,"time_elapsed":970999,"internal_node_id":"0.0-101.0"},{"result":154,"points":2,"place":1,"phase":1,"sequence":17,"prices":[168,154,172,185,195,144,184,211,177,227],"times":[622,690],"next_num":2,"trial_type":"ticket-choose","trial_index":102,"time_elapsed":974162,"internal_node_id":"0.0-102.0"},{"result":185,"points":1,"place":4,"phase":1,"sequence":18,"prices":[169,196,170,184,187,211,171,201,202,185],"times":[541,468,438,465,446,540,480,476,495,506],"next_num":10,"trial_type":"ticket-choose","trial_index":103,"time_elapsed":982670,"internal_node_id":"0.0-103.0"},{"result":167,"points":2,"place":1,"phase":1,"sequence":19,"prices":[175,185,178,215,181,186,167,168,208,156],"times":[659,497,434,579,486,477,739],"next_num":7,"trial_type":"ticket-choose","trial_index":104,"time_elapsed":989469,"internal_node_id":"0.0-104.0"},{"result":167,"points":2,"place":1,"phase":1,"sequence":20,"prices":[212,192,188,184,167,193,189,164,176,170],"times":[598,417,493,500,822],"next_num":5,"trial_type":"ticket-choose","trial_index":105,"time_elapsed":994799,"internal_node_id":"0.0-105.0"},{"result":180,"points":0,"place":6,"phase":1,"sequence":21,"prices":[188,200,165,172,198,174,177,154,177,180],"times":[676,509,434,550,420,503,485,451,527,319],"next_num":10,"trial_type":"ticket-choose","trial_index":106,"time_elapsed":1003278,"internal_node_id":"0.0-106.0"},{"result":163,"points":2,"place":1,"phase":1,"sequence":22,"prices":[176,186,163,214,179,187,176,166,153,208],"times":[542,488,776],"next_num":3,"trial_type":"ticket-choose","trial_index":107,"time_elapsed":1007070,"internal_node_id":"0.0-107.0"},{"result":156,"points":3,"place":0,"phase":1,"sequence":23,"prices":[156,201,162,166,185,214,165,202,204,179],"times":[683],"next_num":1,"trial_type":"ticket-choose","trial_index":108,"time_elapsed":1009335,"internal_node_id":"0.0-108.0"},{"result":163,"points":3,"place":0,"phase":1,"sequence":24,"prices":[168,199,196,198,185,195,227,163,177,166],"times":[499,557,498,472,499,500,554,706],"next_num":8,"trial_type":"ticket-choose","trial_index":109,"time_elapsed":1016869,"internal_node_id":"0.0-109.0"},{"result":168,"points":1,"place":2,"phase":1,"sequence":25,"prices":[174,186,167,211,181,188,178,168,208,156],"times":[1029,515,1386,534,460,496,556,697],"next_num":8,"trial_type":"ticket-choose","trial_index":110,"time_elapsed":1025622,"internal_node_id":"0.0-110.0"},{"result":163,"points":1,"place":2,"phase":1,"sequence":26,"prices":[183,163,185,180,166,148,160,186,176,184],"times":[429,759],"next_num":2,"trial_type":"ticket-choose","trial_index":111,"time_elapsed":1028641,"internal_node_id":"0.0-111.0"},{"result":158,"points":2,"place":1,"phase":1,"sequence":27,"prices":[176,187,177,225,181,187,158,165,208,153],"times":[593,499,471,525,463,445,796],"next_num":7,"trial_type":"ticket-choose","trial_index":112,"time_elapsed":1035313,"internal_node_id":"0.0-112.0"},{"result":170,"points":2,"place":1,"phase":1,"sequence":28,"prices":[201,187,157,184,198,179,188,185,178,170],"times":[570,605,406,393,533,534,489,532,547,429],"next_num":10,"trial_type":"ticket-choose","trial_index":113,"time_elapsed":1043846,"internal_node_id":"0.0-113.0"},{"result":148,"points":3,"place":0,"phase":1,"sequence":29,"prices":[148,171,150,163,167,220,162,186,187,165],"times":[1448],"next_num":1,"trial_type":"ticket-choose","trial_index":114,"time_elapsed":1047009,"internal_node_id":"0.0-114.0"},{"result":184,"points":1,"place":4,"phase":1,"sequence":30,"prices":[161,193,175,181,185,224,180,199,218,184],"times":[1112,462,602,424,382,577,612,486,629,715],"next_num":10,"trial_type":"ticket-choose","trial_index":115,"time_elapsed":1056681,"internal_node_id":"0.0-115.0"},{"result":178,"points":1,"place":2,"phase":1,"sequence":31,"prices":[222,173,202,197,143,205,198,183,178,186],"times":[976,517,482,488,499,463,526,487,491],"next_num":9,"trial_type":"ticket-choose","trial_index":116,"time_elapsed":1064995,"internal_node_id":"0.0-116.0"},{"result":158,"points":2,"place":1,"phase":1,"sequence":32,"prices":[176,187,158,210,181,187,177,165,208,153],"times":[604,499,715],"next_num":3,"trial_type":"ticket-choose","trial_index":117,"time_elapsed":1068852,"internal_node_id":"0.0-117.0"},{"result":163,"points":2,"place":1,"phase":1,"sequence":33,"prices":[174,186,163,212,181,187,176,166,153,209],"times":[587,638,709],"next_num":3,"trial_type":"ticket-choose","trial_index":118,"time_elapsed":1072807,"internal_node_id":"0.0-118.0"},{"result":167,"points":2,"place":1,"phase":1,"sequence":34,"prices":[175,187,178,209,179,187,167,169,208,153],"times":[631,484,466,543,489,502,955],"next_num":7,"trial_type":"ticket-choose","trial_index":119,"time_elapsed":1079705,"internal_node_id":"0.0-119.0"},{"result":158,"points":2,"place":1,"phase":1,"sequence":35,"prices":[175,186,177,221,180,187,158,166,209,153],"times":[513,508,501,561,682,470,780],"next_num":7,"trial_type":"ticket-choose","trial_index":120,"time_elapsed":1086580,"internal_node_id":"0.0-120.0"},{"result":166,"points":1,"place":2,"phase":1,"sequence":36,"prices":[175,186,158,211,180,187,177,166,209,153],"times":[935,522,401,405,466,491,494,604],"next_num":8,"trial_type":"ticket-choose","trial_index":121,"time_elapsed":1093980,"internal_node_id":"0.0-121.0"},{"result":167,"points":2,"place":1,"phase":1,"sequence":37,"prices":[175,186,178,212,179,187,167,169,209,153],"times":[2789,485,451,571,502,512,714],"next_num":7,"trial_type":"ticket-choose","trial_index":122,"time_elapsed":1103029,"internal_node_id":"0.0-122.0"},{"result":165,"points":3,"place":0,"phase":1,"sequence":38,"prices":[189,167,180,197,165,168,172,213,178,171],"times":[736,448,467,512,672],"next_num":5,"trial_type":"ticket-choose","trial_index":123,"time_elapsed":1108328,"internal_node_id":"0.0-123.0"},{"result":163,"points":2,"place":1,"phase":1,"sequence":39,"prices":[175,187,176,209,180,188,163,165,154,208],"times":[460,555,550,586,514,495,795],"next_num":7,"trial_type":"ticket-choose","trial_index":124,"time_elapsed":1115175,"internal_node_id":"0.0-124.0"},{"result":150,"points":3,"place":0,"phase":1,"sequence":40,"prices":[150,185,154,161,173,199,155,188,191,168],"times":[977],"next_num":1,"trial_type":"ticket-choose","trial_index":125,"time_elapsed":1117866,"internal_node_id":"0.0-125.0"},{"result":158,"points":3,"place":0,"phase":1,"sequence":41,"prices":[210,184,226,193,215,158,199,175,176,208],"times":[827,448,534,524,556,755],"next_num":6,"trial_type":"ticket-choose","trial_index":126,"time_elapsed":1124320,"internal_node_id":"0.0-126.0"},{"result":152,"points":3,"place":0,"phase":1,"sequence":42,"prices":[152,200,158,173,182,207,161,202,204,180],"times":[762],"next_num":1,"trial_type":"ticket-choose","trial_index":127,"time_elapsed":1126774,"internal_node_id":"0.0-127.0"},{"result":166,"points":1,"place":2,"phase":1,"sequence":43,"prices":[176,185,158,217,180,186,177,166,209,154],"times":[603,570,464,475,607,503,673,638],"next_num":8,"trial_type":"ticket-choose","trial_index":128,"time_elapsed":1134400,"internal_node_id":"0.0-128.0"},{"result":169,"points":1,"place":3,"phase":1,"sequence":44,"prices":[198,193,169,163,202,182,152,164,177,171],"times":[883,510,765],"next_num":3,"trial_type":"ticket-choose","trial_index":129,"time_elapsed":1138598,"internal_node_id":"0.0-129.0"},{"result":163,"points":1,"place":3,"phase":1,"sequence":45,"prices":[180,159,149,175,185,141,163,174,178,207],"times":[572,424,390,1108,481,454,798],"next_num":7,"trial_type":"ticket-choose","trial_index":130,"time_elapsed":1145711,"internal_node_id":"0.0-130.0"},{"result":167,"points":2,"place":1,"phase":1,"sequence":46,"prices":[175,186,167,225,179,187,178,169,209,153],"times":[2824,1037,742],"next_num":3,"trial_type":"ticket-choose","trial_index":131,"time_elapsed":1152328,"internal_node_id":"0.0-131.0"},{"result":158,"points":1,"place":3,"phase":1,"sequence":47,"prices":[201,207,155,158,156,165,167,135,178,177],"times":[664,463,468,710],"next_num":4,"trial_type":"ticket-choose","trial_index":132,"time_elapsed":1156915,"internal_node_id":"0.0-132.0"},{"result":165,"points":1,"place":2,"phase":1,"sequence":48,"prices":[175,186,163,211,179,187,176,165,153,210],"times":[819,445,425,526,473,529,526,726],"next_num":8,"trial_type":"ticket-choose","trial_index":133,"time_elapsed":1164558,"internal_node_id":"0.0-133.0"},{"result":182,"points":0,"place":6,"phase":1,"sequence":49,"prices":[181,215,169,147,182,193,177,184,176,179],"times":[1589,357,703,525,815],"next_num":5,"trial_type":"ticket-choose","trial_index":134,"time_elapsed":1171484,"internal_node_id":"0.0-134.0"},{"responses":[{"value":0,"offby":0,"category":"$106 - $134","category_index":0},{"value":1,"offby":0,"category":"$135 - $150","category_index":1},{"value":3,"offby":0,"category":"$151 - $165","category_index":2},{"value":6,"offby":0,"category":"$166 - $180","category_index":3},{"value":6,"offby":0,"category":"$181 - $195","category_index":4},{"value":3,"offby":0,"category":"$196 - $210","category_index":5},{"value":1,"offby":0,"category":"$211 - $225","category_index":6}],"phase":1,"number":1,"trial_type":"bar-choose","trial_index":135,"time_elapsed":1195451,"internal_node_id":"0.0-135.0"},{"special_comment":"no","trial_type":"special_sequence","trial_index":136,"time_elapsed":1200735,"internal_node_id":"0.0-136.0"},{"during":"Nothing","bonus":268,"trial_type":"final","trial_index":137,"time_elapsed":1222097,"internal_node_id":"0.0-137.0"}],"bonus":268}