{"start_time":"2017-02-15 09:51:24","end_time":"2017-02-15 10:09:36","points_phase0":105,"points_phase1":104,"phase_order":0,"age":29,"gender":"f","tries":1,"during":"Nothing","worker_id":"A3S300T3IVQ2GC","assignment_id":"31JLPPHS2VNASR1ON8XLQOAHHJU3O4","data":[{"rt":18677,"url":"\/tickets\/utils\/consent.html","trial_type":"html","trial_index":0,"time_elapsed":18981,"internal_node_id":"0.0-0.0"},{"age":29,"gender":"f","trial_type":"age","trial_index":1,"time_elapsed":24646,"internal_node_id":"0.0-1.0"},{"worker_id":"A3S300T3IVQ2GC","trial_type":"workerid","trial_index":2,"time_elapsed":32923,"internal_node_id":"0.0-2.0"},{"tries":1,"trial_type":"instructions_check","trial_index":3,"time_elapsed":62957,"internal_node_id":"0.0-3.0"},{"rt":25286,"url":"\/tickets\/utils\/start.html","trial_type":"html","trial_index":4,"time_elapsed":89400,"internal_node_id":"0.0-4.0"},{"trial_type":"number-animation","trial_index":5,"time_elapsed":99984,"internal_node_id":"0.0-5.0"},{"phase":0,"sequence":0,"avg":181,"response":177,"trial_type":"training_avg","trial_index":6,"time_elapsed":109199,"internal_node_id":"0.0-6.0"},{"trial_type":"number-animation","trial_index":7,"time_elapsed":116966,"internal_node_id":"0.0-7.0"},{"phase":0,"sequence":1,"avg":188,"response":185,"trial_type":"training_avg","trial_index":8,"time_elapsed":122528,"internal_node_id":"0.0-8.0"},{"trial_type":"number-animation","trial_index":9,"time_elapsed":130337,"internal_node_id":"0.0-9.0"},{"phase":0,"sequence":2,"avg":188,"response":191,"trial_type":"training_avg","trial_index":10,"time_elapsed":136406,"internal_node_id":"0.0-10.0"},{"trial_type":"number-animation","trial_index":11,"time_elapsed":144276,"internal_node_id":"0.0-11.0"},{"phase":0,"sequence":3,"avg":177,"response":161,"trial_type":"training_avg","trial_index":12,"time_elapsed":149173,"internal_node_id":"0.0-12.0"},{"trial_type":"number-animation","trial_index":13,"time_elapsed":157664,"internal_node_id":"0.0-13.0"},{"phase":0,"sequence":4,"avg":182,"response":187,"trial_type":"training_avg","trial_index":14,"time_elapsed":163754,"internal_node_id":"0.0-14.0"},{"responses":[{"value":0,"offby":0,"category":"$106 - $134","category_index":0},{"value":1,"offby":0,"category":"$135 - $150","category_index":1},{"value":3,"offby":0,"category":"$151 - $165","category_index":2},{"value":7,"offby":1,"category":"$166 - $180","category_index":3},{"value":6,"offby":0,"category":"$181 - $195","category_index":4},{"value":2,"offby":-1,"category":"$196 - $210","category_index":5},{"value":1,"offby":0,"category":"$211 - $225","category_index":6}],"phase":0,"number":0,"trial_type":"bar-choose","trial_index":15,"time_elapsed":226165,"internal_node_id":"0.0-15.0"},{"rt":16637,"url":"\/tickets\/\/utils\/testing.html","trial_type":"html","trial_index":16,"time_elapsed":243961,"internal_node_id":"0.0-16.0"},{"phase":0,"order":[43,18,23,14,17,31,3,38,22,27,33,39,21,30,1,48,40,46,35,8,13,42,9,16,41,6,47,37,5,19,49,20,44,11,25,2,4,34,24,15,26,0,12,29,45,32,7,10,36,28],"trial_type":"store_order","trial_index":17,"time_elapsed":244965,"internal_node_id":"0.0-17.0"},{"result":165,"points":2,"place":1,"phase":0,"sequence":-1,"times":[3044,2318,615,1460],"next_num":4,"trial_type":"ticket-choose","trial_index":18,"time_elapsed":255623,"internal_node_id":"0.0-18.0"},{"rt":18957,"url":"\/tickets\/utils\/testing_after.html","trial_type":"html","trial_index":19,"time_elapsed":275823,"internal_node_id":"0.0-19.0"},{"result":157,"points":3,"place":0,"phase":0,"sequence":0,"times":[1697,1566,1269],"next_num":3,"trial_type":"ticket-choose","trial_index":20,"time_elapsed":283778,"internal_node_id":"0.0-20.0"},{"result":158,"points":2,"place":1,"phase":0,"sequence":1,"times":[1218,637,1382],"next_num":3,"trial_type":"ticket-choose","trial_index":21,"time_elapsed":289700,"internal_node_id":"0.0-21.0"},{"result":158,"points":2,"place":1,"phase":0,"sequence":2,"times":[600,579,528,656,887,738,954],"next_num":7,"trial_type":"ticket-choose","trial_index":22,"time_elapsed":298127,"internal_node_id":"0.0-22.0"},{"result":167,"points":2,"place":1,"phase":0,"sequence":3,"times":[1110,535,581,779,596,606,1772],"next_num":7,"trial_type":"ticket-choose","trial_index":23,"time_elapsed":307784,"internal_node_id":"0.0-23.0"},{"result":158,"points":2,"place":1,"phase":0,"sequence":4,"times":[629,586,974],"next_num":3,"trial_type":"ticket-choose","trial_index":24,"time_elapsed":312323,"internal_node_id":"0.0-24.0"},{"result":148,"points":3,"place":0,"phase":0,"sequence":5,"times":[889],"next_num":1,"trial_type":"ticket-choose","trial_index":25,"time_elapsed":316466,"internal_node_id":"0.0-25.0"},{"result":153,"points":3,"place":0,"phase":0,"sequence":6,"times":[1299,645,1582,558,609,567,616,1588,758],"next_num":9,"trial_type":"ticket-choose","trial_index":26,"time_elapsed":328729,"internal_node_id":"0.0-26.0"},{"result":163,"points":3,"place":0,"phase":0,"sequence":7,"times":[957,542,525,493,512,781,547,1093],"next_num":8,"trial_type":"ticket-choose","trial_index":27,"time_elapsed":337727,"internal_node_id":"0.0-27.0"},{"result":158,"points":2,"place":1,"phase":0,"sequence":8,"times":[616,533,601,580,590,665,794],"next_num":7,"trial_type":"ticket-choose","trial_index":28,"time_elapsed":345244,"internal_node_id":"0.0-28.0"},{"result":186,"points":1,"place":4,"phase":0,"sequence":9,"times":[793,727,543,685,546,665,1139,898,1032,969],"next_num":10,"trial_type":"ticket-choose","trial_index":29,"time_elapsed":357428,"internal_node_id":"0.0-29.0"},{"result":159,"points":3,"place":0,"phase":0,"sequence":10,"times":[763],"next_num":1,"trial_type":"ticket-choose","trial_index":30,"time_elapsed":360169,"internal_node_id":"0.0-30.0"},{"result":165,"points":3,"place":0,"phase":0,"sequence":11,"times":[780,1685,561,579,880],"next_num":5,"trial_type":"ticket-choose","trial_index":31,"time_elapsed":367511,"internal_node_id":"0.0-31.0"},{"result":158,"points":2,"place":1,"phase":0,"sequence":12,"times":[674,1261,823,661,628,540,849],"next_num":7,"trial_type":"ticket-choose","trial_index":32,"time_elapsed":376330,"internal_node_id":"0.0-32.0"},{"result":176,"points":1,"place":4,"phase":0,"sequence":13,"times":[564,451,889,556,692,720,633,820,715,722],"next_num":10,"trial_type":"ticket-choose","trial_index":33,"time_elapsed":386928,"internal_node_id":"0.0-33.0"},{"result":163,"points":2,"place":1,"phase":0,"sequence":14,"times":[910,722,751],"next_num":3,"trial_type":"ticket-choose","trial_index":34,"time_elapsed":391500,"internal_node_id":"0.0-34.0"},{"result":147,"points":3,"place":0,"phase":0,"sequence":15,"times":[607,618,936,780],"next_num":4,"trial_type":"ticket-choose","trial_index":35,"time_elapsed":396999,"internal_node_id":"0.0-35.0"},{"result":150,"points":3,"place":0,"phase":0,"sequence":16,"times":[1316,878],"next_num":2,"trial_type":"ticket-choose","trial_index":36,"time_elapsed":401220,"internal_node_id":"0.0-36.0"},{"result":158,"points":3,"place":0,"phase":0,"sequence":17,"times":[855,569,605,701,857,879],"next_num":6,"trial_type":"ticket-choose","trial_index":37,"time_elapsed":409665,"internal_node_id":"0.0-37.0"},{"result":154,"points":2,"place":1,"phase":0,"sequence":18,"times":[949,679],"next_num":2,"trial_type":"ticket-choose","trial_index":38,"time_elapsed":413204,"internal_node_id":"0.0-38.0"},{"result":168,"points":1,"place":2,"phase":0,"sequence":19,"times":[597,673,880,530,548,537,539,790],"next_num":8,"trial_type":"ticket-choose","trial_index":39,"time_elapsed":421547,"internal_node_id":"0.0-39.0"},{"result":167,"points":2,"place":1,"phase":0,"sequence":20,"times":[652,657,532,610,676,670,731],"next_num":7,"trial_type":"ticket-choose","trial_index":40,"time_elapsed":429091,"internal_node_id":"0.0-40.0"},{"result":143,"points":3,"place":0,"phase":0,"sequence":21,"times":[749,524,592,791,687],"next_num":5,"trial_type":"ticket-choose","trial_index":41,"time_elapsed":434980,"internal_node_id":"0.0-41.0"},{"result":167,"points":2,"place":1,"phase":0,"sequence":22,"times":[635,618,1249],"next_num":3,"trial_type":"ticket-choose","trial_index":42,"time_elapsed":439633,"internal_node_id":"0.0-42.0"},{"result":158,"points":2,"place":1,"phase":0,"sequence":23,"times":[589,569,842],"next_num":3,"trial_type":"ticket-choose","trial_index":43,"time_elapsed":443768,"internal_node_id":"0.0-43.0"},{"result":155,"points":2,"place":1,"phase":0,"sequence":24,"times":[677,619,871],"next_num":3,"trial_type":"ticket-choose","trial_index":44,"time_elapsed":448075,"internal_node_id":"0.0-44.0"},{"result":163,"points":2,"place":1,"phase":0,"sequence":25,"times":[569,517,535,579,535,505,817],"next_num":7,"trial_type":"ticket-choose","trial_index":45,"time_elapsed":455132,"internal_node_id":"0.0-45.0"},{"result":152,"points":3,"place":0,"phase":0,"sequence":26,"times":[553,509,602,791],"next_num":4,"trial_type":"ticket-choose","trial_index":46,"time_elapsed":459988,"internal_node_id":"0.0-46.0"},{"result":169,"points":1,"place":3,"phase":0,"sequence":27,"times":[582,503,942],"next_num":3,"trial_type":"ticket-choose","trial_index":47,"time_elapsed":464125,"internal_node_id":"0.0-47.0"},{"result":163,"points":2,"place":1,"phase":0,"sequence":28,"times":[812,628,585,570,556,660,659],"next_num":7,"trial_type":"ticket-choose","trial_index":48,"time_elapsed":471590,"internal_node_id":"0.0-48.0"},{"result":158,"points":2,"place":1,"phase":0,"sequence":29,"times":[565,523,739],"next_num":3,"trial_type":"ticket-choose","trial_index":49,"time_elapsed":475614,"internal_node_id":"0.0-49.0"},{"result":163,"points":1,"place":2,"phase":0,"sequence":30,"times":[577,752],"next_num":2,"trial_type":"ticket-choose","trial_index":50,"time_elapsed":478840,"internal_node_id":"0.0-50.0"},{"result":158,"points":2,"place":1,"phase":0,"sequence":31,"times":[1093,616,544,659,618,883,720],"next_num":7,"trial_type":"ticket-choose","trial_index":51,"time_elapsed":486958,"internal_node_id":"0.0-51.0"},{"result":159,"points":1,"place":2,"phase":0,"sequence":32,"times":[588,632],"next_num":2,"trial_type":"ticket-choose","trial_index":52,"time_elapsed":490060,"internal_node_id":"0.0-52.0"},{"result":169,"points":1,"place":2,"phase":0,"sequence":33,"times":[853,569,1041,535,624,699,725,1612],"next_num":8,"trial_type":"ticket-choose","trial_index":53,"time_elapsed":500205,"internal_node_id":"0.0-53.0"},{"result":156,"points":3,"place":0,"phase":0,"sequence":34,"times":[807],"next_num":1,"trial_type":"ticket-choose","trial_index":54,"time_elapsed":503227,"internal_node_id":"0.0-54.0"},{"result":163,"points":2,"place":1,"phase":0,"sequence":35,"times":[803,522,805],"next_num":3,"trial_type":"ticket-choose","trial_index":55,"time_elapsed":507491,"internal_node_id":"0.0-55.0"},{"result":163,"points":2,"place":1,"phase":0,"sequence":36,"times":[794,470,541,564,595,540,742],"next_num":7,"trial_type":"ticket-choose","trial_index":56,"time_elapsed":514855,"internal_node_id":"0.0-56.0"},{"result":155,"points":2,"place":1,"phase":0,"sequence":37,"times":[536,788],"next_num":2,"trial_type":"ticket-choose","trial_index":57,"time_elapsed":518115,"internal_node_id":"0.0-57.0"},{"result":184,"points":1,"place":4,"phase":0,"sequence":38,"times":[556,574,581,531,628,585,771,676,747,636],"next_num":10,"trial_type":"ticket-choose","trial_index":58,"time_elapsed":528110,"internal_node_id":"0.0-58.0"},{"result":169,"points":1,"place":2,"phase":0,"sequence":39,"times":[932,526,528,638,642,568,741,932],"next_num":8,"trial_type":"ticket-choose","trial_index":59,"time_elapsed":536910,"internal_node_id":"0.0-59.0"},{"result":152,"points":3,"place":0,"phase":0,"sequence":40,"times":[806],"next_num":1,"trial_type":"ticket-choose","trial_index":60,"time_elapsed":539616,"internal_node_id":"0.0-60.0"},{"result":163,"points":2,"place":1,"phase":0,"sequence":41,"times":[640,596,724],"next_num":3,"trial_type":"ticket-choose","trial_index":61,"time_elapsed":543802,"internal_node_id":"0.0-61.0"},{"result":156,"points":3,"place":0,"phase":0,"sequence":42,"times":[1237,559,608,597,569,472,519,630,661,602],"next_num":10,"trial_type":"ticket-choose","trial_index":62,"time_elapsed":553994,"internal_node_id":"0.0-62.0"},{"result":150,"points":3,"place":0,"phase":0,"sequence":43,"times":[720],"next_num":1,"trial_type":"ticket-choose","trial_index":63,"time_elapsed":556468,"internal_node_id":"0.0-63.0"},{"result":167,"points":2,"place":1,"phase":0,"sequence":44,"times":[592,496,510,561,743],"next_num":5,"trial_type":"ticket-choose","trial_index":64,"time_elapsed":562195,"internal_node_id":"0.0-64.0"},{"result":161,"points":3,"place":0,"phase":0,"sequence":45,"times":[1292],"next_num":1,"trial_type":"ticket-choose","trial_index":65,"time_elapsed":565234,"internal_node_id":"0.0-65.0"},{"result":175,"points":1,"place":3,"phase":0,"sequence":46,"times":[1071],"next_num":1,"trial_type":"ticket-choose","trial_index":66,"time_elapsed":568055,"internal_node_id":"0.0-66.0"},{"result":167,"points":2,"place":1,"phase":0,"sequence":47,"times":[636,509,1022],"next_num":3,"trial_type":"ticket-choose","trial_index":67,"time_elapsed":572445,"internal_node_id":"0.0-67.0"},{"result":165,"points":2,"place":1,"phase":0,"sequence":48,"times":[657,683,854],"next_num":3,"trial_type":"ticket-choose","trial_index":68,"time_elapsed":576857,"internal_node_id":"0.0-68.0"},{"result":171,"points":1,"place":2,"phase":0,"sequence":49,"times":[1075,619,568,561,525,606,1087],"next_num":7,"trial_type":"ticket-choose","trial_index":69,"time_elapsed":585093,"internal_node_id":"0.0-69.0"},{"responses":[{"value":0,"offby":0,"category":"$106 - $134","category_index":0},{"value":1,"offby":0,"category":"$135 - $150","category_index":1},{"value":3,"offby":0,"category":"$151 - $165","category_index":2},{"value":7,"offby":1,"category":"$166 - $180","category_index":3},{"value":6,"offby":0,"category":"$181 - $195","category_index":4},{"value":2,"offby":-1,"category":"$196 - $210","category_index":5},{"value":1,"offby":0,"category":"$211 - $225","category_index":6}],"phase":0,"number":1,"trial_type":"bar-choose","trial_index":70,"time_elapsed":625185,"internal_node_id":"0.0-70.0"},{"rt":4647,"url":"\/tickets\/utils\/start2.html","trial_type":"html","trial_index":71,"time_elapsed":631069,"internal_node_id":"0.0-71.0"},{"trial_type":"number-animation","trial_index":72,"time_elapsed":640962,"internal_node_id":"0.0-72.0"},{"phase":1,"sequence":0,"avg":182,"response":176,"trial_type":"training_avg","trial_index":73,"time_elapsed":647040,"internal_node_id":"0.0-73.0"},{"trial_type":"number-animation","trial_index":74,"time_elapsed":655317,"internal_node_id":"0.0-74.0"},{"phase":1,"sequence":1,"avg":188,"response":175,"trial_type":"training_avg","trial_index":75,"time_elapsed":661798,"internal_node_id":"0.0-75.0"},{"trial_type":"number-animation","trial_index":76,"time_elapsed":670156,"internal_node_id":"0.0-76.0"},{"phase":1,"sequence":2,"avg":176,"response":172,"trial_type":"training_avg","trial_index":77,"time_elapsed":675581,"internal_node_id":"0.0-77.0"},{"trial_type":"number-animation","trial_index":78,"time_elapsed":682664,"internal_node_id":"0.0-78.0"},{"phase":1,"sequence":3,"avg":180,"response":181,"trial_type":"training_avg","trial_index":79,"time_elapsed":688470,"internal_node_id":"0.0-79.0"},{"trial_type":"number-animation","trial_index":80,"time_elapsed":695816,"internal_node_id":"0.0-80.0"},{"phase":1,"sequence":4,"avg":174,"response":172,"trial_type":"training_avg","trial_index":81,"time_elapsed":700369,"internal_node_id":"0.0-81.0"},{"responses":[{"value":0,"offby":-1,"category":"$90 - $120","category_index":0},{"value":2,"offby":-1,"category":"$121 - $145","category_index":1},{"value":4,"offby":1,"category":"$146 - $170","category_index":2},{"value":6,"offby":0,"category":"$171 - $195","category_index":3},{"value":5,"offby":1,"category":"$196 - $220","category_index":4},{"value":2,"offby":0,"category":"$221 - $245","category_index":5},{"value":1,"offby":0,"category":"$246 - $270","category_index":6}],"phase":1,"number":0,"trial_type":"bar-choose","trial_index":82,"time_elapsed":722987,"internal_node_id":"0.0-82.0"},{"rt":7192,"url":"\/tickets\/utils\/testing2.html","trial_type":"html","trial_index":83,"time_elapsed":731345,"internal_node_id":"0.0-83.0"},{"phase":1,"order":[8,33,20,26,19,11,12,37,30,41,47,14,13,22,24,38,21,5,32,39,42,9,16,23,46,43,2,28,17,10,0,49,35,45,29,40,27,7,18,25,31,34,3,15,48,1,4,36,6,44],"trial_type":"store_order","trial_index":84,"time_elapsed":732360,"internal_node_id":"0.0-84.0"},{"result":168,"points":1,"place":3,"phase":1,"sequence":0,"times":[2196],"next_num":1,"trial_type":"ticket-choose","trial_index":85,"time_elapsed":736541,"internal_node_id":"0.0-85.0"},{"result":137,"points":3,"place":0,"phase":1,"sequence":1,"times":[820],"next_num":1,"trial_type":"ticket-choose","trial_index":86,"time_elapsed":739153,"internal_node_id":"0.0-86.0"},{"result":136,"points":2,"place":1,"phase":1,"sequence":2,"times":[994,547,501,646,589,588,709],"next_num":7,"trial_type":"ticket-choose","trial_index":87,"time_elapsed":746810,"internal_node_id":"0.0-87.0"},{"result":124,"points":3,"place":0,"phase":1,"sequence":3,"times":[762],"next_num":1,"trial_type":"ticket-choose","trial_index":88,"time_elapsed":749365,"internal_node_id":"0.0-88.0"},{"result":136,"points":2,"place":1,"phase":1,"sequence":4,"times":[624,539,792],"next_num":3,"trial_type":"ticket-choose","trial_index":89,"time_elapsed":753385,"internal_node_id":"0.0-89.0"},{"result":158,"points":1,"place":2,"phase":1,"sequence":5,"times":[549,501,744,591,730,582,566,655],"next_num":8,"trial_type":"ticket-choose","trial_index":90,"time_elapsed":761503,"internal_node_id":"0.0-90.0"},{"result":154,"points":2,"place":1,"phase":1,"sequence":6,"times":[528,453,537,481,557,517,726],"next_num":7,"trial_type":"ticket-choose","trial_index":91,"time_elapsed":768246,"internal_node_id":"0.0-91.0"},{"result":158,"points":1,"place":3,"phase":1,"sequence":7,"times":[494,538,698],"next_num":3,"trial_type":"ticket-choose","trial_index":92,"time_elapsed":772063,"internal_node_id":"0.0-92.0"},{"result":135,"points":3,"place":0,"phase":1,"sequence":8,"times":[714],"next_num":1,"trial_type":"ticket-choose","trial_index":93,"time_elapsed":774494,"internal_node_id":"0.0-93.0"},{"result":136,"points":1,"place":3,"phase":1,"sequence":9,"times":[574,396,410,742],"next_num":4,"trial_type":"ticket-choose","trial_index":94,"time_elapsed":778939,"internal_node_id":"0.0-94.0"},{"result":124,"points":3,"place":0,"phase":1,"sequence":10,"times":[760,886,702,795],"next_num":4,"trial_type":"ticket-choose","trial_index":95,"time_elapsed":784504,"internal_node_id":"0.0-95.0"},{"result":154,"points":2,"place":1,"phase":1,"sequence":11,"times":[575,656,729,511,470,547,862],"next_num":7,"trial_type":"ticket-choose","trial_index":96,"time_elapsed":791833,"internal_node_id":"0.0-96.0"},{"result":157,"points":1,"place":2,"phase":1,"sequence":12,"times":[719,551,478,511,670,531,462,694],"next_num":8,"trial_type":"ticket-choose","trial_index":97,"time_elapsed":809685,"internal_node_id":"0.0-97.0"},{"result":150,"points":1,"place":2,"phase":1,"sequence":13,"times":[765,496,464,591,492,497,477,971],"next_num":8,"trial_type":"ticket-choose","trial_index":98,"time_elapsed":817891,"internal_node_id":"0.0-98.0"},{"result":142,"points":3,"place":0,"phase":1,"sequence":14,"times":[30886],"next_num":1,"trial_type":"ticket-choose","trial_index":99,"time_elapsed":850666,"internal_node_id":"0.0-99.0"},{"result":146,"points":3,"place":0,"phase":1,"sequence":15,"times":[1124,461,501,597,675,620,558,856],"next_num":8,"trial_type":"ticket-choose","trial_index":100,"time_elapsed":859337,"internal_node_id":"0.0-100.0"},{"result":136,"points":2,"place":1,"phase":1,"sequence":16,"times":[652,495,747,639,545,556,822],"next_num":7,"trial_type":"ticket-choose","trial_index":101,"time_elapsed":866827,"internal_node_id":"0.0-101.0"},{"result":146,"points":2,"place":1,"phase":1,"sequence":17,"times":[624,513,514,506,495,522,724],"next_num":7,"trial_type":"ticket-choose","trial_index":102,"time_elapsed":873740,"internal_node_id":"0.0-102.0"},{"result":143,"points":3,"place":0,"phase":1,"sequence":18,"times":[730],"next_num":1,"trial_type":"ticket-choose","trial_index":103,"time_elapsed":876143,"internal_node_id":"0.0-103.0"},{"result":153,"points":2,"place":1,"phase":1,"sequence":19,"times":[522,1421],"next_num":2,"trial_type":"ticket-choose","trial_index":104,"time_elapsed":880008,"internal_node_id":"0.0-104.0"},{"result":105,"points":3,"place":0,"phase":1,"sequence":20,"times":[665,519,540,588,758],"next_num":5,"trial_type":"ticket-choose","trial_index":105,"time_elapsed":885797,"internal_node_id":"0.0-105.0"},{"result":154,"points":2,"place":1,"phase":1,"sequence":21,"times":[657,485,941],"next_num":3,"trial_type":"ticket-choose","trial_index":106,"time_elapsed":890139,"internal_node_id":"0.0-106.0"},{"result":136,"points":2,"place":1,"phase":1,"sequence":22,"times":[619,508,704],"next_num":3,"trial_type":"ticket-choose","trial_index":107,"time_elapsed":894075,"internal_node_id":"0.0-107.0"},{"result":136,"points":2,"place":1,"phase":1,"sequence":23,"times":[561,663,474,569,635,530,697],"next_num":7,"trial_type":"ticket-choose","trial_index":108,"time_elapsed":901152,"internal_node_id":"0.0-108.0"},{"result":171,"points":1,"place":2,"phase":1,"sequence":24,"times":[637,606,545,514,596,474,597,589,677],"next_num":9,"trial_type":"ticket-choose","trial_index":109,"time_elapsed":909902,"internal_node_id":"0.0-109.0"},{"result":135,"points":3,"place":0,"phase":1,"sequence":25,"times":[2321,589,741],"next_num":3,"trial_type":"ticket-choose","trial_index":110,"time_elapsed":915726,"internal_node_id":"0.0-110.0"},{"result":146,"points":2,"place":1,"phase":1,"sequence":26,"times":[905,554,727],"next_num":3,"trial_type":"ticket-choose","trial_index":111,"time_elapsed":920221,"internal_node_id":"0.0-111.0"},{"result":157,"points":3,"place":0,"phase":1,"sequence":27,"times":[1129],"next_num":1,"trial_type":"ticket-choose","trial_index":112,"time_elapsed":923116,"internal_node_id":"0.0-112.0"},{"result":136,"points":2,"place":1,"phase":1,"sequence":28,"times":[593,512,651],"next_num":3,"trial_type":"ticket-choose","trial_index":113,"time_elapsed":927116,"internal_node_id":"0.0-113.0"},{"result":154,"points":2,"place":1,"phase":1,"sequence":29,"times":[847,590,658],"next_num":3,"trial_type":"ticket-choose","trial_index":114,"time_elapsed":931283,"internal_node_id":"0.0-114.0"},{"result":146,"points":2,"place":1,"phase":1,"sequence":30,"times":[608,516,781],"next_num":3,"trial_type":"ticket-choose","trial_index":115,"time_elapsed":935266,"internal_node_id":"0.0-115.0"},{"result":146,"points":1,"place":2,"phase":1,"sequence":31,"times":[574,652],"next_num":2,"trial_type":"ticket-choose","trial_index":116,"time_elapsed":938438,"internal_node_id":"0.0-116.0"},{"result":155,"points":1,"place":2,"phase":1,"sequence":32,"times":[837],"next_num":1,"trial_type":"ticket-choose","trial_index":117,"time_elapsed":941050,"internal_node_id":"0.0-117.0"},{"result":154,"points":2,"place":1,"phase":1,"sequence":33,"times":[528,571,581,497,843],"next_num":5,"trial_type":"ticket-choose","trial_index":118,"time_elapsed":946648,"internal_node_id":"0.0-118.0"},{"result":121,"points":3,"place":0,"phase":1,"sequence":34,"times":[807],"next_num":1,"trial_type":"ticket-choose","trial_index":119,"time_elapsed":949252,"internal_node_id":"0.0-119.0"},{"result":119,"points":3,"place":0,"phase":1,"sequence":35,"times":[844,770],"next_num":2,"trial_type":"ticket-choose","trial_index":120,"time_elapsed":952740,"internal_node_id":"0.0-120.0"},{"result":157,"points":3,"place":0,"phase":1,"sequence":36,"times":[1008],"next_num":1,"trial_type":"ticket-choose","trial_index":121,"time_elapsed":955450,"internal_node_id":"0.0-121.0"},{"result":146,"points":2,"place":1,"phase":1,"sequence":37,"times":[586,521,543,543,510,680,921],"next_num":7,"trial_type":"ticket-choose","trial_index":122,"time_elapsed":962718,"internal_node_id":"0.0-122.0"},{"result":136,"points":2,"place":1,"phase":1,"sequence":38,"times":[677,502,691],"next_num":3,"trial_type":"ticket-choose","trial_index":123,"time_elapsed":966662,"internal_node_id":"0.0-123.0"},{"result":132,"points":3,"place":0,"phase":1,"sequence":39,"times":[866],"next_num":1,"trial_type":"ticket-choose","trial_index":124,"time_elapsed":969164,"internal_node_id":"0.0-124.0"},{"result":117,"points":3,"place":0,"phase":1,"sequence":40,"times":[682],"next_num":1,"trial_type":"ticket-choose","trial_index":125,"time_elapsed":971796,"internal_node_id":"0.0-125.0"},{"result":130,"points":2,"place":1,"phase":1,"sequence":41,"times":[621,642],"next_num":2,"trial_type":"ticket-choose","trial_index":126,"time_elapsed":974960,"internal_node_id":"0.0-126.0"},{"result":149,"points":1,"place":2,"phase":1,"sequence":42,"times":[693,511,442,534,583,508,898,758],"next_num":8,"trial_type":"ticket-choose","trial_index":127,"time_elapsed":983183,"internal_node_id":"0.0-127.0"},{"result":154,"points":2,"place":1,"phase":1,"sequence":43,"times":[1162,516,542,687,684,664,676],"next_num":7,"trial_type":"ticket-choose","trial_index":128,"time_elapsed":991210,"internal_node_id":"0.0-128.0"},{"result":159,"points":2,"place":1,"phase":1,"sequence":44,"times":[567,561,708],"next_num":3,"trial_type":"ticket-choose","trial_index":129,"time_elapsed":995077,"internal_node_id":"0.0-129.0"},{"result":146,"points":2,"place":1,"phase":1,"sequence":45,"times":[580,507,861],"next_num":3,"trial_type":"ticket-choose","trial_index":130,"time_elapsed":999153,"internal_node_id":"0.0-130.0"},{"result":146,"points":2,"place":1,"phase":1,"sequence":46,"times":[538,499,544,633,535,536,644],"next_num":7,"trial_type":"ticket-choose","trial_index":131,"time_elapsed":1006003,"internal_node_id":"0.0-131.0"},{"result":149,"points":2,"place":1,"phase":1,"sequence":47,"times":[595,537,808],"next_num":3,"trial_type":"ticket-choose","trial_index":132,"time_elapsed":1010069,"internal_node_id":"0.0-132.0"},{"result":146,"points":2,"place":1,"phase":1,"sequence":48,"times":[799,558,629,594,590,596,747],"next_num":7,"trial_type":"ticket-choose","trial_index":133,"time_elapsed":1017548,"internal_node_id":"0.0-133.0"},{"result":138,"points":1,"place":2,"phase":1,"sequence":49,"times":[799,668],"next_num":2,"trial_type":"ticket-choose","trial_index":134,"time_elapsed":1020912,"internal_node_id":"0.0-134.0"},{"responses":[{"value":1,"offby":0,"category":"$90 - $120","category_index":0},{"value":2,"offby":-1,"category":"$121 - $145","category_index":1},{"value":4,"offby":1,"category":"$146 - $170","category_index":2},{"value":6,"offby":0,"category":"$171 - $195","category_index":3},{"value":4,"offby":0,"category":"$196 - $220","category_index":4},{"value":2,"offby":0,"category":"$221 - $245","category_index":5},{"value":1,"offby":0,"category":"$246 - $270","category_index":6}],"phase":1,"number":1,"trial_type":"bar-choose","trial_index":135,"time_elapsed":1048973,"internal_node_id":"0.0-135.0"},{"special_comment":"No.","trial_type":"special_sequence","trial_index":136,"time_elapsed":1054045,"internal_node_id":"0.0-136.0"},{"during":"Nothing","bonus":280,"trial_type":"final","trial_index":137,"time_elapsed":1089714,"internal_node_id":"0.0-137.0"}],"bonus":280}