{"start_time":"2017-02-21 11:20:35","end_time":"2017-02-21 11:45:27","points_phase0":103,"points_phase1":109,"phase_order":0,"age":44,"gender":"f","tries":2,"during":"Nothing","worker_id":"A3U761PEG7MFKT","assignment_id":"3TOK3KHVJUBSTA2BPK0B35MXN9N7OX","data":[{"rt":9279,"url":"\/tickets\/utils\/consent.html","trial_type":"html","trial_index":0,"time_elapsed":9650,"internal_node_id":"0.0-0.0"},{"age":44,"gender":"f","trial_type":"age","trial_index":1,"time_elapsed":14946,"internal_node_id":"0.0-1.0"},{"worker_id":"A3U761PEG7MFKT","trial_type":"workerid","trial_index":2,"time_elapsed":19231,"internal_node_id":"0.0-2.0"},{"tries":2,"trial_type":"instructions_check","trial_index":3,"time_elapsed":61399,"internal_node_id":"0.0-3.0"},{"rt":7178,"url":"\/tickets\/utils\/start.html","trial_type":"html","trial_index":4,"time_elapsed":69796,"internal_node_id":"0.0-4.0"},{"trial_type":"number-animation","trial_index":5,"time_elapsed":123895,"internal_node_id":"0.0-5.0"},{"phase":0,"sequence":0,"avg":181,"response":180,"trial_type":"training_avg","trial_index":6,"time_elapsed":154346,"internal_node_id":"0.0-6.0"},{"trial_type":"number-animation","trial_index":7,"time_elapsed":184028,"internal_node_id":"0.0-7.0"},{"phase":0,"sequence":1,"avg":188,"response":188,"trial_type":"training_avg","trial_index":8,"time_elapsed":210494,"internal_node_id":"0.0-8.0"},{"trial_type":"number-animation","trial_index":9,"time_elapsed":239276,"internal_node_id":"0.0-9.0"},{"phase":0,"sequence":2,"avg":188,"response":188,"trial_type":"training_avg","trial_index":10,"time_elapsed":263580,"internal_node_id":"0.0-10.0"},{"trial_type":"number-animation","trial_index":11,"time_elapsed":293384,"internal_node_id":"0.0-11.0"},{"phase":0,"sequence":3,"avg":177,"response":177,"trial_type":"training_avg","trial_index":12,"time_elapsed":317344,"internal_node_id":"0.0-12.0"},{"trial_type":"number-animation","trial_index":13,"time_elapsed":347413,"internal_node_id":"0.0-13.0"},{"phase":0,"sequence":4,"avg":182,"response":182,"trial_type":"training_avg","trial_index":14,"time_elapsed":373743,"internal_node_id":"0.0-14.0"},{"responses":[{"value":0,"offby":0,"category":"$106 - $134","category_index":0},{"value":3,"offby":2,"category":"$135 - $150","category_index":1},{"value":4,"offby":1,"category":"$151 - $165","category_index":2},{"value":6,"offby":0,"category":"$166 - $180","category_index":3},{"value":4,"offby":-2,"category":"$181 - $195","category_index":4},{"value":3,"offby":0,"category":"$196 - $210","category_index":5},{"value":0,"offby":-1,"category":"$211 - $225","category_index":6}],"phase":0,"number":0,"trial_type":"bar-choose","trial_index":15,"time_elapsed":436329,"internal_node_id":"0.0-15.0"},{"rt":14214,"url":"\/tickets\/\/utils\/testing.html","trial_type":"html","trial_index":16,"time_elapsed":451744,"internal_node_id":"0.0-16.0"},{"phase":0,"order":[36,7,39,38,4,42,13,32,23,27,15,20,1,47,0,28,9,35,30,16,31,12,48,14,5,11,46,21,26,3,22,24,19,45,10,29,41,6,37,25,2,18,17,43,8,40,33,34,49,44],"trial_type":"store_order","trial_index":17,"time_elapsed":452745,"internal_node_id":"0.0-17.0"},{"result":165,"points":2,"place":1,"phase":0,"sequence":-1,"prices":[184,180,224,165,181,199,185,193,218,126],"times":[5700,1071,783,7176],"next_num":4,"trial_type":"ticket-choose","trial_index":18,"time_elapsed":470588,"internal_node_id":"0.0-18.0"},{"rt":23751,"url":"\/tickets\/utils\/testing_after.html","trial_type":"html","trial_index":19,"time_elapsed":495483,"internal_node_id":"0.0-19.0"},{"result":165,"points":2,"place":1,"phase":0,"sequence":0,"prices":[188,200,165,172,198,174,177,154,177,180],"times":[2262,829,1639],"next_num":3,"trial_type":"ticket-choose","trial_index":20,"time_elapsed":503079,"internal_node_id":"0.0-20.0"},{"result":163,"points":2,"place":1,"phase":0,"sequence":1,"prices":[175,186,176,224,179,187,163,165,153,210],"times":[1369,637,922,688,702,774,1199],"next_num":7,"trial_type":"ticket-choose","trial_index":21,"time_elapsed":513101,"internal_node_id":"0.0-21.0"},{"result":167,"points":2,"place":1,"phase":0,"sequence":2,"prices":[189,167,180,197,165,168,172,213,178,171],"times":[1222,1862],"next_num":2,"trial_type":"ticket-choose","trial_index":22,"time_elapsed":518414,"internal_node_id":"0.0-22.0"},{"result":163,"points":3,"place":0,"phase":0,"sequence":3,"prices":[168,199,196,198,185,195,227,163,177,166],"times":[1036,619,602,581,622,641,744,1108],"next_num":8,"trial_type":"ticket-choose","trial_index":23,"time_elapsed":529653,"internal_node_id":"0.0-23.0"},{"result":163,"points":2,"place":1,"phase":0,"sequence":4,"prices":[176,186,176,210,179,187,163,166,153,208],"times":[2292,623,583,575,573,581,1187],"next_num":7,"trial_type":"ticket-choose","trial_index":24,"time_elapsed":539367,"internal_node_id":"0.0-24.0"},{"result":143,"points":3,"place":0,"phase":0,"sequence":5,"prices":[222,173,202,197,143,205,198,183,178,186],"times":[841,621,595,574,1116],"next_num":5,"trial_type":"ticket-choose","trial_index":25,"time_elapsed":545993,"internal_node_id":"0.0-25.0"},{"result":168,"points":1,"place":2,"phase":0,"sequence":6,"prices":[175,185,178,215,181,186,167,168,208,156],"times":[1005,566,505,517,625,625,1233,1367],"next_num":8,"trial_type":"ticket-choose","trial_index":26,"time_elapsed":555861,"internal_node_id":"0.0-26.0"},{"result":167,"points":2,"place":1,"phase":0,"sequence":7,"prices":[161,193,167,187,190,224,174,194,195,188],"times":[503,534,1416],"next_num":3,"trial_type":"ticket-choose","trial_index":27,"time_elapsed":560857,"internal_node_id":"0.0-27.0"},{"result":158,"points":2,"place":1,"phase":0,"sequence":8,"prices":[176,185,177,218,180,186,158,166,209,154],"times":[1350,593,570,620,586,606,1144],"next_num":7,"trial_type":"ticket-choose","trial_index":28,"time_elapsed":569518,"internal_node_id":"0.0-28.0"},{"result":186,"points":1,"place":4,"phase":0,"sequence":9,"prices":[168,192,171,178,188,217,172,195,197,186],"times":[959,619,651,642,705,586,877,760,902,978],"next_num":10,"trial_type":"ticket-choose","trial_index":29,"time_elapsed":581270,"internal_node_id":"0.0-29.0"},{"result":167,"points":2,"place":1,"phase":0,"sequence":10,"prices":[175,187,178,209,179,187,167,169,208,153],"times":[963,813,618,582,610,575,983],"next_num":7,"trial_type":"ticket-choose","trial_index":30,"time_elapsed":589598,"internal_node_id":"0.0-30.0"},{"result":158,"points":2,"place":1,"phase":0,"sequence":11,"prices":[175,186,177,221,180,187,158,166,209,153],"times":[492,588,583,621,605,560,1052],"next_num":7,"trial_type":"ticket-choose","trial_index":31,"time_elapsed":597258,"internal_node_id":"0.0-31.0"},{"result":163,"points":2,"place":1,"phase":0,"sequence":12,"prices":[175,187,163,209,180,188,176,165,154,208],"times":[539,579,1002],"next_num":3,"trial_type":"ticket-choose","trial_index":32,"time_elapsed":601637,"internal_node_id":"0.0-32.0"},{"result":152,"points":3,"place":0,"phase":0,"sequence":13,"prices":[200,181,203,152,175,171,160,154,176,191],"times":[860,604,593,1010],"next_num":4,"trial_type":"ticket-choose","trial_index":33,"time_elapsed":607498,"internal_node_id":"0.0-33.0"},{"result":163,"points":2,"place":1,"phase":0,"sequence":14,"prices":[176,186,163,214,179,187,176,166,153,208],"times":[1061,822,995],"next_num":3,"trial_type":"ticket-choose","trial_index":34,"time_elapsed":612574,"internal_node_id":"0.0-34.0"},{"result":185,"points":1,"place":4,"phase":0,"sequence":15,"prices":[169,196,170,184,187,211,171,201,202,185],"times":[860,599,769,668,623,650,719,692,653,1752],"next_num":10,"trial_type":"ticket-choose","trial_index":35,"time_elapsed":624498,"internal_node_id":"0.0-35.0"},{"result":168,"points":1,"place":2,"phase":0,"sequence":16,"prices":[175,185,167,224,181,186,178,168,208,156],"times":[1076,665,973,686,723,678,693,1183],"next_num":8,"trial_type":"ticket-choose","trial_index":36,"time_elapsed":634578,"internal_node_id":"0.0-36.0"},{"result":154,"points":2,"place":1,"phase":0,"sequence":17,"prices":[168,154,172,185,195,144,184,211,177,227],"times":[1097,1195],"next_num":2,"trial_type":"ticket-choose","trial_index":37,"time_elapsed":639117,"internal_node_id":"0.0-37.0"},{"result":157,"points":3,"place":0,"phase":0,"sequence":18,"prices":[157,191,165,175,182,203,170,195,200,176],"times":[2020],"next_num":1,"trial_type":"ticket-choose","trial_index":38,"time_elapsed":644026,"internal_node_id":"0.0-38.0"},{"result":158,"points":2,"place":1,"phase":0,"sequence":19,"prices":[175,186,158,211,180,187,177,166,209,153],"times":[2990,879,1022],"next_num":3,"trial_type":"ticket-choose","trial_index":39,"time_elapsed":651236,"internal_node_id":"0.0-39.0"},{"result":150,"points":2,"place":1,"phase":0,"sequence":20,"prices":[148,171,150,163,167,220,162,186,187,165],"times":[868,1035,929],"next_num":3,"trial_type":"ticket-choose","trial_index":40,"time_elapsed":656409,"internal_node_id":"0.0-40.0"},{"result":167,"points":2,"place":1,"phase":0,"sequence":21,"prices":[174,186,178,217,181,188,167,168,208,156],"times":[862,644,651,664,606,683,1175],"next_num":7,"trial_type":"ticket-choose","trial_index":41,"time_elapsed":664713,"internal_node_id":"0.0-41.0"},{"result":147,"points":3,"place":0,"phase":0,"sequence":22,"prices":[181,215,169,147,182,193,177,184,176,179],"times":[813,672,1167,1029],"next_num":4,"trial_type":"ticket-choose","trial_index":42,"time_elapsed":671084,"internal_node_id":"0.0-42.0"},{"result":169,"points":1,"place":2,"phase":0,"sequence":23,"prices":[175,186,178,212,179,187,167,169,209,153],"times":[793,649,658,693,644,687,1437,1521],"next_num":8,"trial_type":"ticket-choose","trial_index":43,"time_elapsed":681573,"internal_node_id":"0.0-43.0"},{"result":163,"points":2,"place":1,"phase":0,"sequence":24,"prices":[175,187,176,209,180,188,163,165,154,208],"times":[1176,610,650,663,621,619,2189],"next_num":7,"trial_type":"ticket-choose","trial_index":44,"time_elapsed":691190,"internal_node_id":"0.0-44.0"},{"result":153,"points":3,"place":0,"phase":0,"sequence":25,"prices":[175,187,167,212,179,187,178,169,208,153],"times":[4574,608,992,636,603,564,643,1090,646,933],"next_num":10,"trial_type":"ticket-choose","trial_index":45,"time_elapsed":706536,"internal_node_id":"0.0-45.0"},{"result":158,"points":3,"place":0,"phase":0,"sequence":26,"prices":[210,184,226,193,215,158,199,175,176,208],"times":[781,588,624,667,707,1111],"next_num":6,"trial_type":"ticket-choose","trial_index":46,"time_elapsed":713990,"internal_node_id":"0.0-46.0"},{"result":158,"points":2,"place":1,"phase":0,"sequence":27,"prices":[175,186,177,209,181,188,158,167,208,154],"times":[683,576,767,601,863,607,1078],"next_num":7,"trial_type":"ticket-choose","trial_index":47,"time_elapsed":722458,"internal_node_id":"0.0-47.0"},{"result":152,"points":3,"place":0,"phase":0,"sequence":28,"prices":[152,200,158,173,182,207,161,202,204,180],"times":[1619],"next_num":1,"trial_type":"ticket-choose","trial_index":48,"time_elapsed":726349,"internal_node_id":"0.0-48.0"},{"result":163,"points":2,"place":1,"phase":0,"sequence":29,"prices":[175,186,163,211,179,187,176,165,153,210],"times":[1061,645,2790],"next_num":3,"trial_type":"ticket-choose","trial_index":49,"time_elapsed":733202,"internal_node_id":"0.0-49.0"},{"result":158,"points":2,"place":1,"phase":0,"sequence":30,"prices":[176,187,177,225,181,187,158,165,208,153],"times":[1246,542,610,680,642,586,1102],"next_num":7,"trial_type":"ticket-choose","trial_index":50,"time_elapsed":741875,"internal_node_id":"0.0-50.0"},{"result":184,"points":1,"place":4,"phase":0,"sequence":31,"prices":[161,193,175,181,185,224,180,199,218,184],"times":[1685,550,628,591,556,576,611,699,616,1362],"next_num":10,"trial_type":"ticket-choose","trial_index":51,"time_elapsed":753432,"internal_node_id":"0.0-51.0"},{"result":158,"points":2,"place":1,"phase":0,"sequence":32,"prices":[176,185,158,217,180,186,177,166,209,154],"times":[773,670,1028],"next_num":3,"trial_type":"ticket-choose","trial_index":52,"time_elapsed":758154,"internal_node_id":"0.0-52.0"},{"result":167,"points":2,"place":1,"phase":0,"sequence":33,"prices":[212,192,188,184,167,193,189,164,176,170],"times":[4586,551,609,540,1070],"next_num":5,"trial_type":"ticket-choose","trial_index":53,"time_elapsed":768204,"internal_node_id":"0.0-53.0"},{"result":169,"points":1,"place":2,"phase":0,"sequence":34,"prices":[175,186,167,225,179,187,178,169,209,153],"times":[683,546,1012,554,555,583,567,2156],"next_num":8,"trial_type":"ticket-choose","trial_index":54,"time_elapsed":778153,"internal_node_id":"0.0-54.0"},{"result":150,"points":3,"place":0,"phase":0,"sequence":35,"prices":[150,185,154,161,173,199,155,188,191,168],"times":[1401],"next_num":1,"trial_type":"ticket-choose","trial_index":55,"time_elapsed":781655,"internal_node_id":"0.0-55.0"},{"result":155,"points":2,"place":1,"phase":0,"sequence":36,"prices":[201,207,155,158,156,165,167,135,178,177],"times":[775,580,1092],"next_num":3,"trial_type":"ticket-choose","trial_index":56,"time_elapsed":786490,"internal_node_id":"0.0-56.0"},{"result":163,"points":2,"place":1,"phase":0,"sequence":37,"prices":[174,186,176,217,181,187,163,166,153,209],"times":[670,568,582,636,609,578,979],"next_num":7,"trial_type":"ticket-choose","trial_index":57,"time_elapsed":794379,"internal_node_id":"0.0-57.0"},{"result":163,"points":2,"place":1,"phase":0,"sequence":38,"prices":[198,193,169,163,202,182,152,164,177,171],"times":[688,535,1026,1029],"next_num":4,"trial_type":"ticket-choose","trial_index":58,"time_elapsed":800151,"internal_node_id":"0.0-58.0"},{"result":156,"points":3,"place":0,"phase":0,"sequence":39,"prices":[156,201,162,166,185,214,165,202,204,179],"times":[1376],"next_num":1,"trial_type":"ticket-choose","trial_index":59,"time_elapsed":803502,"internal_node_id":"0.0-59.0"},{"result":163,"points":2,"place":1,"phase":0,"sequence":40,"prices":[174,186,163,212,181,187,176,166,153,209],"times":[753,613,1524],"next_num":3,"trial_type":"ticket-choose","trial_index":60,"time_elapsed":813442,"internal_node_id":"0.0-60.0"},{"result":158,"points":2,"place":1,"phase":0,"sequence":41,"prices":[176,187,158,210,181,187,177,165,208,153],"times":[1070,597,1428],"next_num":3,"trial_type":"ticket-choose","trial_index":61,"time_elapsed":818897,"internal_node_id":"0.0-61.0"},{"result":158,"points":2,"place":1,"phase":0,"sequence":42,"prices":[175,186,158,209,181,188,177,167,208,154],"times":[469,533,1161],"next_num":3,"trial_type":"ticket-choose","trial_index":62,"time_elapsed":823189,"internal_node_id":"0.0-62.0"},{"result":157,"points":3,"place":0,"phase":0,"sequence":43,"prices":[201,187,157,184,198,179,188,185,178,170],"times":[640,531,1337],"next_num":3,"trial_type":"ticket-choose","trial_index":63,"time_elapsed":827835,"internal_node_id":"0.0-63.0"},{"result":168,"points":1,"place":2,"phase":0,"sequence":44,"prices":[174,186,167,211,181,188,178,168,208,156],"times":[700,595,1004,601,572,564,595,1097],"next_num":8,"trial_type":"ticket-choose","trial_index":64,"time_elapsed":836946,"internal_node_id":"0.0-64.0"},{"result":150,"points":3,"place":0,"phase":0,"sequence":45,"prices":[189,150,175,160,188,207,158,194,178,199],"times":[499,898],"next_num":2,"trial_type":"ticket-choose","trial_index":65,"time_elapsed":840466,"internal_node_id":"0.0-65.0"},{"result":159,"points":3,"place":0,"phase":0,"sequence":46,"prices":[159,183,166,168,173,205,167,187,191,170],"times":[1371],"next_num":1,"trial_type":"ticket-choose","trial_index":66,"time_elapsed":843741,"internal_node_id":"0.0-66.0"},{"result":155,"points":2,"place":1,"phase":0,"sequence":47,"prices":[181,155,148,161,168,187,172,199,176,194],"times":[721,844],"next_num":2,"trial_type":"ticket-choose","trial_index":67,"time_elapsed":847455,"internal_node_id":"0.0-67.0"},{"result":163,"points":1,"place":2,"phase":0,"sequence":48,"prices":[183,163,185,180,166,148,160,186,176,184],"times":[693,867],"next_num":2,"trial_type":"ticket-choose","trial_index":68,"time_elapsed":851184,"internal_node_id":"0.0-68.0"},{"result":159,"points":1,"place":2,"phase":0,"sequence":49,"prices":[180,159,149,175,185,141,163,174,178,207],"times":[652,936],"next_num":2,"trial_type":"ticket-choose","trial_index":69,"time_elapsed":854974,"internal_node_id":"0.0-69.0"},{"responses":[{"value":0,"offby":0,"category":"$106 - $134","category_index":0},{"value":0,"offby":-1,"category":"$135 - $150","category_index":1},{"value":5,"offby":2,"category":"$151 - $165","category_index":2},{"value":6,"offby":0,"category":"$166 - $180","category_index":3},{"value":7,"offby":1,"category":"$181 - $195","category_index":4},{"value":2,"offby":-1,"category":"$196 - $210","category_index":5},{"value":0,"offby":-1,"category":"$211 - $225","category_index":6}],"phase":0,"number":1,"trial_type":"bar-choose","trial_index":70,"time_elapsed":892390,"internal_node_id":"0.0-70.0"},{"rt":5862,"url":"\/tickets\/utils\/start2.html","trial_type":"html","trial_index":71,"time_elapsed":899405,"internal_node_id":"0.0-71.0"},{"trial_type":"number-animation","trial_index":72,"time_elapsed":945233,"internal_node_id":"0.0-72.0"},{"phase":1,"sequence":0,"avg":182,"response":152,"trial_type":"training_avg","trial_index":73,"time_elapsed":957575,"internal_node_id":"0.0-73.0"},{"trial_type":"number-animation","trial_index":74,"time_elapsed":964791,"internal_node_id":"0.0-74.0"},{"phase":1,"sequence":1,"avg":188,"response":178,"trial_type":"training_avg","trial_index":75,"time_elapsed":975734,"internal_node_id":"0.0-75.0"},{"trial_type":"number-animation","trial_index":76,"time_elapsed":982012,"internal_node_id":"0.0-76.0"},{"phase":1,"sequence":2,"avg":176,"response":163,"trial_type":"training_avg","trial_index":77,"time_elapsed":991345,"internal_node_id":"0.0-77.0"},{"trial_type":"number-animation","trial_index":78,"time_elapsed":997884,"internal_node_id":"0.0-78.0"},{"phase":1,"sequence":3,"avg":180,"response":187,"trial_type":"training_avg","trial_index":79,"time_elapsed":1007067,"internal_node_id":"0.0-79.0"},{"trial_type":"number-animation","trial_index":80,"time_elapsed":1013515,"internal_node_id":"0.0-80.0"},{"phase":1,"sequence":4,"avg":174,"response":175,"trial_type":"training_avg","trial_index":81,"time_elapsed":1020049,"internal_node_id":"0.0-81.0"},{"responses":[{"value":0,"offby":-1,"category":"$90 - $120","category_index":0},{"value":4,"offby":1,"category":"$121 - $145","category_index":1},{"value":5,"offby":2,"category":"$146 - $170","category_index":2},{"value":7,"offby":1,"category":"$171 - $195","category_index":3},{"value":3,"offby":-1,"category":"$196 - $220","category_index":4},{"value":1,"offby":-1,"category":"$221 - $245","category_index":5},{"value":0,"offby":-1,"category":"$246 - $270","category_index":6}],"phase":1,"number":0,"trial_type":"bar-choose","trial_index":82,"time_elapsed":1047685,"internal_node_id":"0.0-82.0"},{"rt":3960,"url":"\/tickets\/utils\/testing2.html","trial_type":"html","trial_index":83,"time_elapsed":1052810,"internal_node_id":"0.0-83.0"},{"phase":1,"order":[31,6,24,10,2,27,42,32,7,26,0,22,37,44,48,9,46,19,40,3,39,47,28,1,4,41,12,23,13,11,49,45,29,43,18,30,14,36,25,38,5,16,17,34,35,8,15,33,21,20],"trial_type":"store_order","trial_index":84,"time_elapsed":1053813,"internal_node_id":"0.0-84.0"},{"result":117,"points":3,"place":0,"phase":1,"sequence":0,"prices":[117,161,120,147,153,259,144,191,195,149],"times":[2592],"next_num":1,"trial_type":"ticket-choose","trial_index":85,"time_elapsed":1058464,"internal_node_id":"0.0-85.0"},{"result":146,"points":2,"place":1,"phase":1,"sequence":1,"prices":[168,191,172,240,183,193,146,151,125,238],"times":[1172,595,546,802,604,543,1039],"next_num":7,"trial_type":"ticket-choose","trial_index":86,"time_elapsed":1066902,"internal_node_id":"0.0-86.0"},{"result":188,"points":1,"place":4,"phase":1,"sequence":2,"prices":[142,207,171,182,190,269,180,218,256,188],"times":[3019,585,489,546,518,516,554,593,575,974],"next_num":10,"trial_type":"ticket-choose","trial_index":87,"time_elapsed":1079049,"internal_node_id":"0.0-87.0"},{"result":154,"points":2,"place":1,"phase":1,"sequence":3,"prices":[169,193,154,255,178,194,176,158,239,126],"times":[1110,519,1083],"next_num":3,"trial_type":"ticket-choose","trial_index":88,"time_elapsed":1084039,"internal_node_id":"0.0-88.0"},{"result":146,"points":2,"place":1,"phase":1,"sequence":4,"prices":[168,191,146,252,183,193,172,153,126,238],"times":[801,528,981],"next_num":3,"trial_type":"ticket-choose","trial_index":89,"time_elapsed":1088848,"internal_node_id":"0.0-89.0"},{"result":165,"points":1,"place":2,"phase":1,"sequence":5,"prices":[157,205,161,175,197,254,165,210,214,192],"times":[3557,528,533,553,514,578,1014],"next_num":7,"trial_type":"ticket-choose","trial_index":90,"time_elapsed":1099230,"internal_node_id":"0.0-90.0"},{"result":105,"points":3,"place":0,"phase":1,"sequence":6,"prices":[263,165,224,214,105,230,215,185,177,193],"times":[608,526,523,630,1032],"next_num":5,"trial_type":"ticket-choose","trial_index":91,"time_elapsed":1105429,"internal_node_id":"0.0-91.0"},{"result":196,"points":1,"place":4,"phase":1,"sequence":7,"prices":[143,206,153,194,201,267,168,208,210,196],"times":[891,519,1311,504,551,526,550,571,568,1090],"next_num":10,"trial_type":"ticket-choose","trial_index":92,"time_elapsed":1116431,"internal_node_id":"0.0-92.0"},{"result":146,"points":2,"place":1,"phase":1,"sequence":8,"prices":[171,191,172,268,179,194,146,150,127,239],"times":[580,528,559,631,650,803,994],"next_num":7,"trial_type":"ticket-choose","trial_index":93,"time_elapsed":1124356,"internal_node_id":"0.0-93.0"},{"result":124,"points":3,"place":0,"phase":1,"sequence":9,"prices":[124,220,136,165,185,234,143,225,228,179],"times":[1051],"next_num":1,"trial_type":"ticket-choose","trial_index":94,"time_elapsed":1127299,"internal_node_id":"0.0-94.0"},{"result":146,"points":2,"place":1,"phase":1,"sequence":10,"prices":[173,191,146,242,178,194,172,152,126,235],"times":[692,537,905],"next_num":3,"trial_type":"ticket-choose","trial_index":95,"time_elapsed":1131566,"internal_node_id":"0.0-95.0"},{"result":136,"points":2,"place":1,"phase":1,"sequence":11,"prices":[172,194,174,243,182,193,136,150,237,126],"times":[607,607,569,625,632,571,962],"next_num":7,"trial_type":"ticket-choose","trial_index":96,"time_elapsed":1139242,"internal_node_id":"0.0-96.0"},{"result":124,"points":3,"place":0,"phase":1,"sequence":12,"prices":[216,206,158,145,224,185,124,149,175,162],"times":[670,657,782,829,661,565,1023],"next_num":7,"trial_type":"ticket-choose","trial_index":97,"time_elapsed":1147610,"internal_node_id":"0.0-97.0"},{"result":138,"points":1,"place":2,"phase":1,"sequence":13,"prices":[181,138,118,170,190,101,146,169,175,233],"times":[698,990],"next_num":2,"trial_type":"ticket-choose","trial_index":98,"time_elapsed":1151441,"internal_node_id":"0.0-98.0"},{"result":114,"points":3,"place":0,"phase":1,"sequence":14,"prices":[182,249,159,114,184,205,175,189,172,178],"times":[653,548,605,883],"next_num":4,"trial_type":"ticket-choose","trial_index":99,"time_elapsed":1156642,"internal_node_id":"0.0-99.0"},{"result":133,"points":3,"place":0,"phase":1,"sequence":15,"prices":[169,191,154,268,183,197,176,155,236,133],"times":[635,553,682,548,640,561,589,1248,584,879],"next_num":10,"trial_type":"ticket-choose","trial_index":100,"time_elapsed":1167340,"internal_node_id":"0.0-100.0"},{"result":136,"points":3,"place":0,"phase":1,"sequence":16,"prices":[240,188,273,207,250,136,217,170,171,236],"times":[699,571,537,531,593,1086],"next_num":6,"trial_type":"ticket-choose","trial_index":101,"time_elapsed":1174274,"internal_node_id":"0.0-101.0"},{"result":136,"points":2,"place":1,"phase":1,"sequence":17,"prices":[172,190,136,270,179,192,174,152,237,129],"times":[664,539,914],"next_num":3,"trial_type":"ticket-choose","trial_index":102,"time_elapsed":1178728,"internal_node_id":"0.0-102.0"},{"result":119,"points":3,"place":0,"phase":1,"sequence":18,"prices":[198,119,169,141,195,233,136,208,177,217],"times":[3897,985],"next_num":2,"trial_type":"ticket-choose","trial_index":103,"time_elapsed":1185752,"internal_node_id":"0.0-103.0"},{"result":149,"points":1,"place":2,"phase":1,"sequence":19,"prices":[170,193,146,268,178,195,172,149,126,241],"times":[650,512,895,523,555,584,766,1397],"next_num":8,"trial_type":"ticket-choose","trial_index":104,"time_elapsed":1194915,"internal_node_id":"0.0-104.0"},{"result":162,"points":1,"place":3,"phase":1,"sequence":20,"prices":[197,153,181,215,150,155,164,247,177,162],"times":[666,566,606,613,594,797,688,582,774,1416],"next_num":10,"trial_type":"ticket-choose","trial_index":105,"time_elapsed":1205966,"internal_node_id":"0.0-105.0"},{"result":124,"points":3,"place":0,"phase":1,"sequence":21,"prices":[219,183,227,124,176,161,140,129,171,201],"times":[638,627,587,1043],"next_num":4,"trial_type":"ticket-choose","trial_index":106,"time_elapsed":1211359,"internal_node_id":"0.0-106.0"},{"result":189,"points":1,"place":4,"phase":1,"sequence":22,"prices":[157,213,159,187,194,242,161,222,225,189],"times":[567,560,592,603,611,572,1007,548,643,1261],"next_num":10,"trial_type":"ticket-choose","trial_index":107,"time_elapsed":1221956,"internal_node_id":"0.0-107.0"},{"result":150,"points":1,"place":2,"phase":1,"sequence":23,"prices":[169,193,146,237,180,196,172,150,129,236],"times":[1798,661,1129,570,518,586,578,1125],"next_num":8,"trial_type":"ticket-choose","trial_index":108,"time_elapsed":1232231,"internal_node_id":"0.0-108.0"},{"result":146,"points":2,"place":1,"phase":1,"sequence":24,"prices":[172,191,176,272,179,194,146,152,126,235],"times":[810,823,542,581,550,559,1009],"next_num":7,"trial_type":"ticket-choose","trial_index":109,"time_elapsed":1240167,"internal_node_id":"0.0-109.0"},{"result":131,"points":2,"place":1,"phase":1,"sequence":25,"prices":[221,234,131,136,132,149,154,90,176,173],"times":[781,572,987],"next_num":3,"trial_type":"ticket-choose","trial_index":110,"time_elapsed":1244824,"internal_node_id":"0.0-110.0"},{"result":156,"points":1,"place":2,"phase":1,"sequence":26,"prices":[168,192,176,242,183,197,154,156,237,132],"times":[1026,642,625,593,652,568,897,1119],"next_num":8,"trial_type":"ticket-choose","trial_index":111,"time_elapsed":1255159,"internal_node_id":"0.0-111.0"},{"result":136,"points":2,"place":1,"phase":1,"sequence":27,"prices":[173,191,174,270,180,193,136,153,239,129],"times":[877,564,530,557,502,618,991],"next_num":7,"trial_type":"ticket-choose","trial_index":112,"time_elapsed":1275477,"internal_node_id":"0.0-112.0"},{"result":157,"points":1,"place":2,"phase":1,"sequence":28,"prices":[170,190,176,251,183,192,154,157,236,131],"times":[870,529,500,599,577,535,562,1443],"next_num":8,"trial_type":"ticket-choose","trial_index":113,"time_elapsed":1284258,"internal_node_id":"0.0-113.0"},{"result":127,"points":3,"place":0,"phase":1,"sequence":29,"prices":[169,194,154,271,178,201,176,158,236,127],"times":[811,633,998,529,512,590,537,999,537,895],"next_num":10,"trial_type":"ticket-choose","trial_index":114,"time_elapsed":1295411,"internal_node_id":"0.0-114.0"},{"result":152,"points":1,"place":3,"phase":1,"sequence":30,"prices":[186,146,191,179,152,116,140,201,172,187],"times":[789,514,557,512,962],"next_num":5,"trial_type":"ticket-choose","trial_index":115,"time_elapsed":1301584,"internal_node_id":"0.0-115.0"},{"result":149,"points":3,"place":0,"phase":1,"sequence":31,"prices":[244,203,196,189,154,206,197,149,171,159],"times":[675,585,551,551,908,568,544,971],"next_num":8,"trial_type":"ticket-choose","trial_index":116,"time_elapsed":1310335,"internal_node_id":"0.0-116.0"},{"result":121,"points":3,"place":0,"phase":1,"sequence":32,"prices":[121,191,128,141,166,217,129,196,202,157],"times":[1024],"next_num":1,"trial_type":"ticket-choose","trial_index":117,"time_elapsed":1313247,"internal_node_id":"0.0-117.0"},{"result":135,"points":3,"place":0,"phase":1,"sequence":33,"prices":[221,193,135,188,217,179,196,190,175,159],"times":[801,597,953],"next_num":3,"trial_type":"ticket-choose","trial_index":118,"time_elapsed":1317821,"internal_node_id":"0.0-118.0"},{"result":136,"points":2,"place":1,"phase":1,"sequence":34,"prices":[173,194,136,239,182,200,174,150,236,127],"times":[682,515,894],"next_num":3,"trial_type":"ticket-choose","trial_index":119,"time_elapsed":1322225,"internal_node_id":"0.0-119.0"},{"result":135,"points":3,"place":0,"phase":1,"sequence":35,"prices":[135,202,150,169,183,225,160,211,220,172],"times":[863],"next_num":1,"trial_type":"ticket-choose","trial_index":120,"time_elapsed":1324974,"internal_node_id":"0.0-120.0"},{"result":154,"points":2,"place":1,"phase":1,"sequence":36,"prices":[169,192,176,244,178,194,154,159,237,125],"times":[728,528,550,646,556,596,948],"next_num":7,"trial_type":"ticket-choose","trial_index":121,"time_elapsed":1332647,"internal_node_id":"0.0-121.0"},{"result":128,"points":3,"place":0,"phase":1,"sequence":37,"prices":[196,221,149,164,216,167,175,128,176,181],"times":[698,531,881,535,579,527,569,1041],"next_num":8,"trial_type":"ticket-choose","trial_index":122,"time_elapsed":1341358,"internal_node_id":"0.0-122.0"},{"result":132,"points":3,"place":0,"phase":1,"sequence":38,"prices":[132,222,144,153,190,248,151,224,228,179],"times":[971],"next_num":1,"trial_type":"ticket-choose","trial_index":123,"time_elapsed":1344275,"internal_node_id":"0.0-123.0"},{"result":146,"points":3,"place":0,"phase":1,"sequence":39,"prices":[156,218,212,216,191,210,275,146,174,152],"times":[739,586,628,675,627,678,604,1061],"next_num":8,"trial_type":"ticket-choose","trial_index":124,"time_elapsed":1353251,"internal_node_id":"0.0-124.0"},{"result":146,"points":2,"place":1,"phase":1,"sequence":40,"prices":[171,195,172,242,179,196,146,150,128,235],"times":[830,572,625,657,761,725,1092],"next_num":7,"trial_type":"ticket-choose","trial_index":125,"time_elapsed":1361747,"internal_node_id":"0.0-125.0"},{"result":136,"points":2,"place":1,"phase":1,"sequence":41,"prices":[171,192,136,265,180,194,174,152,239,127],"times":[1437,585,1018],"next_num":3,"trial_type":"ticket-choose","trial_index":126,"time_elapsed":1367098,"internal_node_id":"0.0-126.0"},{"result":136,"points":2,"place":1,"phase":1,"sequence":42,"prices":[171,192,136,243,182,195,174,154,236,128],"times":[802,584,1173],"next_num":3,"trial_type":"ticket-choose","trial_index":127,"time_elapsed":1372025,"internal_node_id":"0.0-127.0"},{"result":130,"points":2,"place":1,"phase":1,"sequence":43,"prices":[181,130,116,142,157,193,165,218,173,207],"times":[829,1114],"next_num":2,"trial_type":"ticket-choose","trial_index":128,"time_elapsed":1376058,"internal_node_id":"0.0-128.0"},{"result":129,"points":2,"place":1,"phase":1,"sequence":44,"prices":[155,129,164,189,210,108,187,241,174,275],"times":[870,1161],"next_num":2,"trial_type":"ticket-choose","trial_index":129,"time_elapsed":1380208,"internal_node_id":"0.0-129.0"},{"result":133,"points":3,"place":0,"phase":1,"sequence":45,"prices":[168,192,154,237,182,196,176,156,235,133],"times":[735,573,1152,609,624,690,582,4181,641,915],"next_num":10,"trial_type":"ticket-choose","trial_index":130,"time_elapsed":1394898,"internal_node_id":"0.0-130.0"},{"result":126,"points":3,"place":0,"phase":1,"sequence":46,"prices":[170,193,176,245,178,194,154,159,236,126],"times":[1092,573,522,568,578,601,1335,1316,667,879],"next_num":10,"trial_type":"ticket-choose","trial_index":131,"time_elapsed":1407734,"internal_node_id":"0.0-131.0"},{"result":137,"points":3,"place":0,"phase":1,"sequence":47,"prices":[137,187,152,156,166,231,155,194,202,160],"times":[2801],"next_num":1,"trial_type":"ticket-choose","trial_index":132,"time_elapsed":1412690,"internal_node_id":"0.0-132.0"},{"result":136,"points":2,"place":1,"phase":1,"sequence":48,"prices":[170,192,174,242,181,196,136,153,236,128],"times":[1250,529,732,597,543,565,1040],"next_num":7,"trial_type":"ticket-choose","trial_index":133,"time_elapsed":1421222,"internal_node_id":"0.0-133.0"},{"result":136,"points":2,"place":1,"phase":1,"sequence":49,"prices":[169,192,174,246,180,195,136,152,238,126],"times":[1166,565,513,750,595,569,1187],"next_num":7,"trial_type":"ticket-choose","trial_index":134,"time_elapsed":1429824,"internal_node_id":"0.0-134.0"},{"responses":[{"value":2,"offby":1,"category":"$90 - $120","category_index":0},{"value":4,"offby":1,"category":"$121 - $145","category_index":1},{"value":4,"offby":1,"category":"$146 - $170","category_index":2},{"value":6,"offby":0,"category":"$171 - $195","category_index":3},{"value":3,"offby":-1,"category":"$196 - $220","category_index":4},{"value":1,"offby":-1,"category":"$221 - $245","category_index":5},{"value":0,"offby":-1,"category":"$246 - $270","category_index":6}],"phase":1,"number":1,"trial_type":"bar-choose","trial_index":135,"time_elapsed":1459135,"internal_node_id":"0.0-135.0"},{"special_comment":"no","trial_type":"special_sequence","trial_index":136,"time_elapsed":1463540,"internal_node_id":"0.0-136.0"},{"during":"Nothing","bonus":284,"trial_type":"final","trial_index":137,"time_elapsed":1488813,"internal_node_id":"0.0-137.0"}],"bonus":284}