{"start_time":"2017-01-30 10:32:02","end_time":"2017-01-30 10:57:21","points_phase0":117,"points_phase1":116,"phase_order":1,"age":52,"gender":"m","tries":1,"during":"Nothing","worker_id":"A3UEJQ4EJB9DBD","assignment_id":"3180JW2OT55Z5VXVLET9XPRFURAJ50","data":[{"rt":14180,"url":"\/tickets\/utils\/consent.html","trial_type":"html","trial_index":0,"time_elapsed":14387,"internal_node_id":"0.0-0.0"},{"age":52,"gender":"m","trial_type":"age","trial_index":1,"time_elapsed":20880,"internal_node_id":"0.0-1.0"},{"worker_id":"A3UEJQ4EJB9DBD","trial_type":"workerid","trial_index":2,"time_elapsed":30187,"internal_node_id":"0.0-2.0"},{"tries":1,"trial_type":"instructions_check","trial_index":3,"time_elapsed":54935,"internal_node_id":"0.0-3.0"},{"rt":12672,"url":"\/tickets\/utils\/start.html","trial_type":"html","trial_index":4,"time_elapsed":68747,"internal_node_id":"0.0-4.0"},{"trial_type":"number-animation","trial_index":5,"time_elapsed":89227,"internal_node_id":"0.0-5.0"},{"phase":0,"sequence":0,"avg":184,"response":172,"trial_type":"training_avg","trial_index":6,"time_elapsed":101289,"internal_node_id":"0.0-6.0"},{"trial_type":"number-animation","trial_index":7,"time_elapsed":120473,"internal_node_id":"0.0-7.0"},{"phase":0,"sequence":1,"avg":199,"response":202,"trial_type":"training_avg","trial_index":8,"time_elapsed":131753,"internal_node_id":"0.0-8.0"},{"trial_type":"number-animation","trial_index":9,"time_elapsed":147784,"internal_node_id":"0.0-9.0"},{"phase":0,"sequence":2,"avg":199,"response":185,"trial_type":"training_avg","trial_index":10,"time_elapsed":155252,"internal_node_id":"0.0-10.0"},{"trial_type":"number-animation","trial_index":11,"time_elapsed":170989,"internal_node_id":"0.0-11.0"},{"phase":0,"sequence":3,"avg":210,"response":196,"trial_type":"training_avg","trial_index":12,"time_elapsed":178826,"internal_node_id":"0.0-12.0"},{"trial_type":"number-animation","trial_index":13,"time_elapsed":195021,"internal_node_id":"0.0-13.0"},{"phase":0,"sequence":4,"avg":202,"response":206,"trial_type":"training_avg","trial_index":14,"time_elapsed":203160,"internal_node_id":"0.0-14.0"},{"responses":[{"value":0,"offby":-1,"category":"$105 - $130","category_index":0},{"value":1,"offby":-1,"category":"$131 - $155","category_index":1},{"value":3,"offby":1,"category":"$156 - $180","category_index":2},{"value":3,"offby":-2,"category":"$181 - $205","category_index":3},{"value":7,"offby":2,"category":"$206 - $230","category_index":4},{"value":5,"offby":2,"category":"$231 - $255","category_index":5},{"value":1,"offby":-1,"category":"$256 - $280","category_index":6}],"phase":0,"number":0,"trial_type":"bar-choose","trial_index":15,"time_elapsed":297501,"internal_node_id":"0.0-15.0"},{"rt":8943,"url":"\/tickets\/\/utils\/testing.html","trial_type":"html","trial_index":16,"time_elapsed":307623,"internal_node_id":"0.0-16.0"},{"phase":0,"order":[6,39,49,42,0,1,9,47,23,34,16,46,11,15,33,3,8,7,18,31,17,10,2,14,20,41,36,38,22,30,4,29,45,37,32,19,26,5,28,40,24,21,43,48,35,44,12,13,27,25],"trial_type":"store_order","trial_index":17,"time_elapsed":308628,"internal_node_id":"0.0-17.0"},{"result":165,"points":2,"place":1,"phase":0,"sequence":-1,"times":[1987,2129,833,1610],"next_num":4,"trial_type":"ticket-choose","trial_index":18,"time_elapsed":318919,"internal_node_id":"0.0-18.0"},{"rt":15133,"url":"\/tickets\/utils\/testing_after.html","trial_type":"html","trial_index":19,"time_elapsed":335222,"internal_node_id":"0.0-19.0"},{"result":139,"points":3,"place":0,"phase":0,"sequence":0,"times":[2801,1087,1257,2103,1142,1025,1230,1221,1544],"next_num":9,"trial_type":"ticket-choose","trial_index":20,"time_elapsed":354573,"internal_node_id":"0.0-20.0"},{"result":156,"points":3,"place":0,"phase":0,"sequence":1,"times":[1366,1079,1049,1027,980,1449],"next_num":6,"trial_type":"ticket-choose","trial_index":21,"time_elapsed":365928,"internal_node_id":"0.0-21.0"},{"result":133,"points":3,"place":0,"phase":0,"sequence":2,"times":[1326,945,1363],"next_num":3,"trial_type":"ticket-choose","trial_index":22,"time_elapsed":372719,"internal_node_id":"0.0-22.0"},{"result":140,"points":3,"place":0,"phase":0,"sequence":3,"times":[1415,2011],"next_num":2,"trial_type":"ticket-choose","trial_index":23,"time_elapsed":378958,"internal_node_id":"0.0-23.0"},{"result":145,"points":3,"place":0,"phase":0,"sequence":4,"times":[3382],"next_num":1,"trial_type":"ticket-choose","trial_index":24,"time_elapsed":385110,"internal_node_id":"0.0-24.0"},{"result":183,"points":1,"place":3,"phase":0,"sequence":5,"times":[1223,930,803,794,972,950,976,877,1214,934],"next_num":10,"trial_type":"ticket-choose","trial_index":25,"time_elapsed":399965,"internal_node_id":"0.0-25.0"},{"result":158,"points":3,"place":0,"phase":0,"sequence":6,"times":[4060],"next_num":1,"trial_type":"ticket-choose","trial_index":26,"time_elapsed":406655,"internal_node_id":"0.0-26.0"},{"result":157,"points":2,"place":1,"phase":0,"sequence":7,"times":[1305,753,1870],"next_num":3,"trial_type":"ticket-choose","trial_index":27,"time_elapsed":414508,"internal_node_id":"0.0-27.0"},{"result":147,"points":3,"place":0,"phase":0,"sequence":8,"times":[1300,928,1006,859,892,878,1023,972,1061,1079],"next_num":10,"trial_type":"ticket-choose","trial_index":28,"time_elapsed":428956,"internal_node_id":"0.0-28.0"},{"result":155,"points":3,"place":0,"phase":0,"sequence":9,"times":[1514,954,981],"next_num":3,"trial_type":"ticket-choose","trial_index":29,"time_elapsed":435434,"internal_node_id":"0.0-29.0"},{"result":126,"points":3,"place":0,"phase":0,"sequence":10,"times":[1222,1027,895,855,1153],"next_num":5,"trial_type":"ticket-choose","trial_index":30,"time_elapsed":443867,"internal_node_id":"0.0-30.0"},{"result":165,"points":2,"place":1,"phase":0,"sequence":11,"times":[2803,748,1983,816,1113,802,929],"next_num":7,"trial_type":"ticket-choose","trial_index":31,"time_elapsed":456673,"internal_node_id":"0.0-31.0"},{"result":170,"points":2,"place":1,"phase":0,"sequence":12,"times":[11251,931,1032,752,779,781,1089],"next_num":7,"trial_type":"ticket-choose","trial_index":32,"time_elapsed":476954,"internal_node_id":"0.0-32.0"},{"result":158,"points":1,"place":2,"phase":0,"sequence":13,"times":[1989,1205],"next_num":2,"trial_type":"ticket-choose","trial_index":33,"time_elapsed":483564,"internal_node_id":"0.0-33.0"},{"result":140,"points":2,"place":1,"phase":0,"sequence":14,"times":[1369,796,1090],"next_num":3,"trial_type":"ticket-choose","trial_index":34,"time_elapsed":489625,"internal_node_id":"0.0-34.0"},{"result":169,"points":3,"place":0,"phase":0,"sequence":15,"times":[1093,761,762,793,889,767,775,964],"next_num":8,"trial_type":"ticket-choose","trial_index":35,"time_elapsed":500568,"internal_node_id":"0.0-35.0"},{"result":148,"points":2,"place":1,"phase":0,"sequence":16,"times":[4830,1018,890,698,735,784,1035],"next_num":7,"trial_type":"ticket-choose","trial_index":36,"time_elapsed":514244,"internal_node_id":"0.0-36.0"},{"result":140,"points":2,"place":1,"phase":0,"sequence":17,"times":[1403,719,1332,706,927,705,986],"next_num":7,"trial_type":"ticket-choose","trial_index":37,"time_elapsed":524663,"internal_node_id":"0.0-37.0"},{"result":145,"points":3,"place":0,"phase":0,"sequence":18,"times":[1625,738,1177,1882,665,730,888],"next_num":7,"trial_type":"ticket-choose","trial_index":38,"time_elapsed":536255,"internal_node_id":"0.0-38.0"},{"result":171,"points":1,"place":2,"phase":0,"sequence":19,"times":[1297,693,1077,941,951,695,3565],"next_num":7,"trial_type":"ticket-choose","trial_index":39,"time_elapsed":549985,"internal_node_id":"0.0-39.0"},{"result":149,"points":2,"place":1,"phase":0,"sequence":20,"times":[1238,1170],"next_num":2,"trial_type":"ticket-choose","trial_index":40,"time_elapsed":554976,"internal_node_id":"0.0-40.0"},{"result":167,"points":3,"place":0,"phase":0,"sequence":21,"times":[1030,691,820,761,763,851,734,965],"next_num":8,"trial_type":"ticket-choose","trial_index":41,"time_elapsed":565447,"internal_node_id":"0.0-41.0"},{"result":141,"points":3,"place":0,"phase":0,"sequence":22,"times":[1201],"next_num":1,"trial_type":"ticket-choose","trial_index":42,"time_elapsed":568966,"internal_node_id":"0.0-42.0"},{"result":144,"points":3,"place":0,"phase":0,"sequence":23,"times":[1300,700,753,1059],"next_num":4,"trial_type":"ticket-choose","trial_index":43,"time_elapsed":576030,"internal_node_id":"0.0-43.0"},{"result":162,"points":3,"place":0,"phase":0,"sequence":24,"times":[3676],"next_num":1,"trial_type":"ticket-choose","trial_index":44,"time_elapsed":582127,"internal_node_id":"0.0-44.0"},{"result":162,"points":1,"place":3,"phase":0,"sequence":25,"times":[1187,679,1125],"next_num":3,"trial_type":"ticket-choose","trial_index":45,"time_elapsed":587926,"internal_node_id":"0.0-45.0"},{"result":151,"points":2,"place":1,"phase":0,"sequence":26,"times":[1256,723,3101],"next_num":3,"trial_type":"ticket-choose","trial_index":46,"time_elapsed":595822,"internal_node_id":"0.0-46.0"},{"result":150,"points":3,"place":0,"phase":0,"sequence":27,"times":[1139,690,831,654,684,724,954,739,709,974],"next_num":10,"trial_type":"ticket-choose","trial_index":47,"time_elapsed":608145,"internal_node_id":"0.0-47.0"},{"result":154,"points":3,"place":0,"phase":0,"sequence":28,"times":[5523],"next_num":1,"trial_type":"ticket-choose","trial_index":48,"time_elapsed":616049,"internal_node_id":"0.0-48.0"},{"result":217,"points":1,"place":4,"phase":0,"sequence":29,"times":[1211,584,761,693,648,675,931,668,728,1164],"next_num":10,"trial_type":"ticket-choose","trial_index":49,"time_elapsed":628855,"internal_node_id":"0.0-49.0"},{"result":166,"points":1,"place":2,"phase":0,"sequence":30,"times":[1277,1085],"next_num":2,"trial_type":"ticket-choose","trial_index":50,"time_elapsed":633753,"internal_node_id":"0.0-50.0"},{"result":142,"points":3,"place":0,"phase":0,"sequence":31,"times":[1128,722,720,780,702,721,1124,897,706,966],"next_num":10,"trial_type":"ticket-choose","trial_index":51,"time_elapsed":646503,"internal_node_id":"0.0-51.0"},{"result":161,"points":2,"place":1,"phase":0,"sequence":32,"times":[1240,572,668,706,682,1094],"next_num":6,"trial_type":"ticket-choose","trial_index":52,"time_elapsed":654878,"internal_node_id":"0.0-52.0"},{"result":150,"points":2,"place":1,"phase":0,"sequence":33,"times":[1125,1011],"next_num":2,"trial_type":"ticket-choose","trial_index":53,"time_elapsed":659693,"internal_node_id":"0.0-53.0"},{"result":135,"points":3,"place":0,"phase":0,"sequence":34,"times":[1184,674,814,1092],"next_num":4,"trial_type":"ticket-choose","trial_index":54,"time_elapsed":666334,"internal_node_id":"0.0-54.0"},{"result":153,"points":3,"place":0,"phase":0,"sequence":35,"times":[2036],"next_num":1,"trial_type":"ticket-choose","trial_index":55,"time_elapsed":670673,"internal_node_id":"0.0-55.0"},{"result":210,"points":1,"place":4,"phase":0,"sequence":36,"times":[1048,597,764,620,758,712,1093,604,676,1125],"next_num":10,"trial_type":"ticket-choose","trial_index":56,"time_elapsed":683319,"internal_node_id":"0.0-56.0"},{"result":173,"points":2,"place":1,"phase":0,"sequence":37,"times":[1049,708,736,629,691,741,1118],"next_num":7,"trial_type":"ticket-choose","trial_index":57,"time_elapsed":692510,"internal_node_id":"0.0-57.0"},{"result":150,"points":3,"place":0,"phase":0,"sequence":38,"times":[1093,656,1067,631,641,648,1076,684,645,979],"next_num":10,"trial_type":"ticket-choose","trial_index":58,"time_elapsed":704823,"internal_node_id":"0.0-58.0"},{"result":137,"points":3,"place":0,"phase":0,"sequence":39,"times":[1538],"next_num":1,"trial_type":"ticket-choose","trial_index":59,"time_elapsed":708544,"internal_node_id":"0.0-59.0"},{"result":134,"points":3,"place":0,"phase":0,"sequence":40,"times":[1194,660,2083,622,749,684,857,775,692,901],"next_num":10,"trial_type":"ticket-choose","trial_index":60,"time_elapsed":721789,"internal_node_id":"0.0-60.0"},{"result":182,"points":2,"place":1,"phase":0,"sequence":41,"times":[4721,747,725,680,746,735,1040],"next_num":7,"trial_type":"ticket-choose","trial_index":61,"time_elapsed":735117,"internal_node_id":"0.0-61.0"},{"result":175,"points":1,"place":2,"phase":0,"sequence":42,"times":[1127,621,1463,836,891,692,1116],"next_num":7,"trial_type":"ticket-choose","trial_index":62,"time_elapsed":747602,"internal_node_id":"0.0-62.0"},{"result":148,"points":2,"place":1,"phase":0,"sequence":43,"times":[1722,789,1193],"next_num":3,"trial_type":"ticket-choose","trial_index":63,"time_elapsed":754552,"internal_node_id":"0.0-63.0"},{"result":151,"points":3,"place":0,"phase":0,"sequence":44,"times":[996,1050],"next_num":2,"trial_type":"ticket-choose","trial_index":64,"time_elapsed":759289,"internal_node_id":"0.0-64.0"},{"result":191,"points":2,"place":1,"phase":0,"sequence":45,"times":[1084,555,590,639,654,662,1051],"next_num":7,"trial_type":"ticket-choose","trial_index":65,"time_elapsed":768145,"internal_node_id":"0.0-65.0"},{"result":180,"points":2,"place":1,"phase":0,"sequence":46,"times":[1040,613,794,637,635,682,1255],"next_num":7,"trial_type":"ticket-choose","trial_index":66,"time_elapsed":777586,"internal_node_id":"0.0-66.0"},{"result":148,"points":3,"place":0,"phase":0,"sequence":47,"times":[1088,575,591,589,646,967,749,1016],"next_num":8,"trial_type":"ticket-choose","trial_index":67,"time_elapsed":787594,"internal_node_id":"0.0-67.0"},{"result":116,"points":3,"place":0,"phase":0,"sequence":48,"times":[1838,704,1579,710,626,1051],"next_num":6,"trial_type":"ticket-choose","trial_index":68,"time_elapsed":797808,"internal_node_id":"0.0-68.0"},{"result":212,"points":1,"place":4,"phase":0,"sequence":49,"times":[1542,670,827,740,756,821,1212,641,671,1054],"next_num":10,"trial_type":"ticket-choose","trial_index":69,"time_elapsed":811034,"internal_node_id":"0.0-69.0"},{"responses":[{"value":0,"offby":-1,"category":"$105 - $130","category_index":0},{"value":2,"offby":0,"category":"$131 - $155","category_index":1},{"value":6,"offby":4,"category":"$156 - $180","category_index":2},{"value":5,"offby":0,"category":"$181 - $205","category_index":3},{"value":4,"offby":-1,"category":"$206 - $230","category_index":4},{"value":2,"offby":-1,"category":"$231 - $255","category_index":5},{"value":1,"offby":-1,"category":"$256 - $280","category_index":6}],"phase":0,"number":1,"trial_type":"bar-choose","trial_index":70,"time_elapsed":867053,"internal_node_id":"0.0-70.0"},{"rt":7755,"url":"\/tickets\/utils\/start2.html","trial_type":"html","trial_index":71,"time_elapsed":875950,"internal_node_id":"0.0-71.0"},{"trial_type":"number-animation","trial_index":72,"time_elapsed":887841,"internal_node_id":"0.0-72.0"},{"phase":1,"sequence":0,"avg":181,"response":174,"trial_type":"training_avg","trial_index":73,"time_elapsed":896035,"internal_node_id":"0.0-73.0"},{"trial_type":"number-animation","trial_index":74,"time_elapsed":909580,"internal_node_id":"0.0-74.0"},{"phase":1,"sequence":1,"avg":188,"response":182,"trial_type":"training_avg","trial_index":75,"time_elapsed":920947,"internal_node_id":"0.0-75.0"},{"trial_type":"number-animation","trial_index":76,"time_elapsed":934414,"internal_node_id":"0.0-76.0"},{"phase":1,"sequence":2,"avg":188,"response":181,"trial_type":"training_avg","trial_index":77,"time_elapsed":942386,"internal_node_id":"0.0-77.0"},{"trial_type":"number-animation","trial_index":78,"time_elapsed":955030,"internal_node_id":"0.0-78.0"},{"phase":1,"sequence":3,"avg":177,"response":174,"trial_type":"training_avg","trial_index":79,"time_elapsed":962019,"internal_node_id":"0.0-79.0"},{"trial_type":"number-animation","trial_index":80,"time_elapsed":975661,"internal_node_id":"0.0-80.0"},{"phase":1,"sequence":4,"avg":182,"response":177,"trial_type":"training_avg","trial_index":81,"time_elapsed":984339,"internal_node_id":"0.0-81.0"},{"responses":[{"value":0,"offby":0,"category":"$106 - $134","category_index":0},{"value":2,"offby":1,"category":"$135 - $150","category_index":1},{"value":5,"offby":2,"category":"$151 - $165","category_index":2},{"value":6,"offby":0,"category":"$166 - $180","category_index":3},{"value":4,"offby":-2,"category":"$181 - $195","category_index":4},{"value":2,"offby":-1,"category":"$196 - $210","category_index":5},{"value":1,"offby":0,"category":"$211 - $225","category_index":6}],"phase":1,"number":0,"trial_type":"bar-choose","trial_index":82,"time_elapsed":1030133,"internal_node_id":"0.0-82.0"},{"rt":5013,"url":"\/tickets\/utils\/testing2.html","trial_type":"html","trial_index":83,"time_elapsed":1036374,"internal_node_id":"0.0-83.0"},{"phase":1,"order":[11,46,32,40,22,39,29,0,2,43,42,16,18,44,5,45,13,17,37,1,35,38,25,47,20,10,41,6,26,28,49,4,31,34,48,21,24,15,7,27,8,14,9,3,33,19,12,36,30,23],"trial_type":"store_order","trial_index":84,"time_elapsed":1037392,"internal_node_id":"0.0-84.0"},{"result":155,"points":3,"place":0,"phase":1,"sequence":0,"times":[1976,789,883,742,739,740,956,745,698,1312],"next_num":10,"trial_type":"ticket-choose","trial_index":85,"time_elapsed":1051166,"internal_node_id":"0.0-85.0"},{"result":165,"points":3,"place":0,"phase":1,"sequence":1,"times":[1218,1398,622,663,1123],"next_num":5,"trial_type":"ticket-choose","trial_index":86,"time_elapsed":1059533,"internal_node_id":"0.0-86.0"},{"result":184,"points":0,"place":7,"phase":1,"sequence":2,"times":[1035,1178,729,677,864,735,778,1749,805,1208],"next_num":10,"trial_type":"ticket-choose","trial_index":87,"time_elapsed":1073848,"internal_node_id":"0.0-87.0"},{"result":143,"points":3,"place":0,"phase":1,"sequence":3,"times":[1305,778,697,855,1042],"next_num":5,"trial_type":"ticket-choose","trial_index":88,"time_elapsed":1081600,"internal_node_id":"0.0-88.0"},{"result":158,"points":2,"place":1,"phase":1,"sequence":4,"times":[1019,704,1063],"next_num":3,"trial_type":"ticket-choose","trial_index":89,"time_elapsed":1087063,"internal_node_id":"0.0-89.0"},{"result":154,"points":3,"place":0,"phase":1,"sequence":5,"times":[955,625,1517,651,932,684,1020,1402,725,988],"next_num":10,"trial_type":"ticket-choose","trial_index":90,"time_elapsed":1100462,"internal_node_id":"0.0-90.0"},{"result":167,"points":1,"place":2,"phase":1,"sequence":6,"times":[1424,769,1651,998,1022,929,2532],"next_num":7,"trial_type":"ticket-choose","trial_index":91,"time_elapsed":1113873,"internal_node_id":"0.0-91.0"},{"result":152,"points":3,"place":0,"phase":1,"sequence":7,"times":[930,719,684,1006],"next_num":4,"trial_type":"ticket-choose","trial_index":92,"time_elapsed":1120544,"internal_node_id":"0.0-92.0"},{"result":168,"points":3,"place":0,"phase":1,"sequence":8,"times":[1264],"next_num":1,"trial_type":"ticket-choose","trial_index":93,"time_elapsed":1124233,"internal_node_id":"0.0-93.0"},{"result":155,"points":2,"place":1,"phase":1,"sequence":9,"times":[1101,1040],"next_num":2,"trial_type":"ticket-choose","trial_index":94,"time_elapsed":1129206,"internal_node_id":"0.0-94.0"},{"result":162,"points":2,"place":1,"phase":1,"sequence":10,"times":[852,670,720,645,723,749,1023],"next_num":7,"trial_type":"ticket-choose","trial_index":95,"time_elapsed":1138242,"internal_node_id":"0.0-95.0"},{"result":158,"points":3,"place":0,"phase":1,"sequence":11,"times":[1188,745,690,712,716,952],"next_num":6,"trial_type":"ticket-choose","trial_index":96,"time_elapsed":1146537,"internal_node_id":"0.0-96.0"},{"result":174,"points":1,"place":3,"phase":1,"sequence":12,"times":[1095,615,982],"next_num":3,"trial_type":"ticket-choose","trial_index":97,"time_elapsed":1152168,"internal_node_id":"0.0-97.0"},{"result":166,"points":2,"place":1,"phase":1,"sequence":13,"times":[945,658,1023,647,727,762,971],"next_num":7,"trial_type":"ticket-choose","trial_index":98,"time_elapsed":1161527,"internal_node_id":"0.0-98.0"},{"result":155,"points":3,"place":0,"phase":1,"sequence":14,"times":[912,889],"next_num":2,"trial_type":"ticket-choose","trial_index":99,"time_elapsed":1165794,"internal_node_id":"0.0-99.0"},{"result":154,"points":2,"place":1,"phase":1,"sequence":15,"times":[1124,621,919],"next_num":3,"trial_type":"ticket-choose","trial_index":100,"time_elapsed":1171217,"internal_node_id":"0.0-100.0"},{"result":147,"points":3,"place":0,"phase":1,"sequence":16,"times":[960,1128,1127,666,832,684,970,775,757,1009],"next_num":10,"trial_type":"ticket-choose","trial_index":101,"time_elapsed":1184846,"internal_node_id":"0.0-101.0"},{"result":172,"points":1,"place":2,"phase":1,"sequence":17,"times":[1210,745,760,724,806,1164,1014],"next_num":7,"trial_type":"ticket-choose","trial_index":102,"time_elapsed":1195008,"internal_node_id":"0.0-102.0"},{"result":165,"points":2,"place":1,"phase":1,"sequence":18,"times":[1093,675,731,731,729,860,1012],"next_num":7,"trial_type":"ticket-choose","trial_index":103,"time_elapsed":1204422,"internal_node_id":"0.0-103.0"},{"result":162,"points":1,"place":2,"phase":1,"sequence":19,"times":[1573],"next_num":1,"trial_type":"ticket-choose","trial_index":104,"time_elapsed":1208282,"internal_node_id":"0.0-104.0"},{"result":150,"points":2,"place":1,"phase":1,"sequence":20,"times":[1240,621,692,685,699,769,1109],"next_num":7,"trial_type":"ticket-choose","trial_index":105,"time_elapsed":1217502,"internal_node_id":"0.0-105.0"},{"result":161,"points":1,"place":3,"phase":1,"sequence":21,"times":[1231,669,1044],"next_num":3,"trial_type":"ticket-choose","trial_index":106,"time_elapsed":1223054,"internal_node_id":"0.0-106.0"},{"result":153,"points":3,"place":0,"phase":1,"sequence":22,"times":[770,649,663,647,762,702,846,1029,748,870],"next_num":10,"trial_type":"ticket-choose","trial_index":107,"time_elapsed":1235175,"internal_node_id":"0.0-107.0"},{"result":171,"points":2,"place":1,"phase":1,"sequence":23,"times":[1265,775,690,741,908,717,1004],"next_num":7,"trial_type":"ticket-choose","trial_index":108,"time_elapsed":1245213,"internal_node_id":"0.0-108.0"},{"result":161,"points":3,"place":0,"phase":1,"sequence":24,"times":[1458],"next_num":1,"trial_type":"ticket-choose","trial_index":109,"time_elapsed":1249063,"internal_node_id":"0.0-109.0"},{"result":155,"points":2,"place":1,"phase":1,"sequence":25,"times":[1045,677,1014],"next_num":3,"trial_type":"ticket-choose","trial_index":110,"time_elapsed":1254489,"internal_node_id":"0.0-110.0"},{"result":165,"points":2,"place":1,"phase":1,"sequence":26,"times":[1017,668,1038],"next_num":3,"trial_type":"ticket-choose","trial_index":111,"time_elapsed":1260031,"internal_node_id":"0.0-111.0"},{"result":163,"points":3,"place":0,"phase":1,"sequence":27,"times":[1005,622,711,687,915,705,687,1005],"next_num":8,"trial_type":"ticket-choose","trial_index":112,"time_elapsed":1270276,"internal_node_id":"0.0-112.0"},{"result":152,"points":3,"place":0,"phase":1,"sequence":28,"times":[1185],"next_num":1,"trial_type":"ticket-choose","trial_index":113,"time_elapsed":1273829,"internal_node_id":"0.0-113.0"},{"result":138,"points":3,"place":0,"phase":1,"sequence":29,"times":[1040,630,849,666,734,1109],"next_num":6,"trial_type":"ticket-choose","trial_index":114,"time_elapsed":1282197,"internal_node_id":"0.0-114.0"},{"result":140,"points":3,"place":0,"phase":1,"sequence":30,"times":[1219,653,677,701,733,685,938,931,718,894],"next_num":10,"trial_type":"ticket-choose","trial_index":115,"time_elapsed":1294422,"internal_node_id":"0.0-115.0"},{"result":159,"points":3,"place":0,"phase":1,"sequence":31,"times":[1560],"next_num":1,"trial_type":"ticket-choose","trial_index":116,"time_elapsed":1298221,"internal_node_id":"0.0-116.0"},{"result":164,"points":3,"place":0,"phase":1,"sequence":32,"times":[1181,2306,1293,777,1718,1164,712,938],"next_num":8,"trial_type":"ticket-choose","trial_index":117,"time_elapsed":1313467,"internal_node_id":"0.0-117.0"},{"result":163,"points":2,"place":1,"phase":1,"sequence":33,"times":[1388,759,1425,1173],"next_num":4,"trial_type":"ticket-choose","trial_index":118,"time_elapsed":1321283,"internal_node_id":"0.0-118.0"},{"result":200,"points":0,"place":5,"phase":1,"sequence":34,"times":[15839,769,569,928,687,1070,715,1105,767,1202],"next_num":10,"trial_type":"ticket-choose","trial_index":119,"time_elapsed":1349828,"internal_node_id":"0.0-119.0"},{"result":158,"points":3,"place":0,"phase":1,"sequence":35,"times":[1245,707,856,708,710,759,2195,843,1085],"next_num":9,"trial_type":"ticket-choose","trial_index":120,"time_elapsed":1362936,"internal_node_id":"0.0-120.0"},{"result":157,"points":3,"place":0,"phase":1,"sequence":36,"times":[1361],"next_num":1,"trial_type":"ticket-choose","trial_index":121,"time_elapsed":1366361,"internal_node_id":"0.0-121.0"},{"result":150,"points":2,"place":1,"phase":1,"sequence":37,"times":[1229,589,1001],"next_num":3,"trial_type":"ticket-choose","trial_index":122,"time_elapsed":1371990,"internal_node_id":"0.0-122.0"},{"result":161,"points":3,"place":0,"phase":1,"sequence":38,"times":[1372],"next_num":1,"trial_type":"ticket-choose","trial_index":123,"time_elapsed":1375883,"internal_node_id":"0.0-123.0"},{"result":150,"points":3,"place":0,"phase":1,"sequence":39,"times":[1135,979],"next_num":2,"trial_type":"ticket-choose","trial_index":124,"time_elapsed":1380552,"internal_node_id":"0.0-124.0"},{"result":169,"points":3,"place":0,"phase":1,"sequence":40,"times":[4752],"next_num":1,"trial_type":"ticket-choose","trial_index":125,"time_elapsed":1387693,"internal_node_id":"0.0-125.0"},{"result":156,"points":3,"place":0,"phase":1,"sequence":41,"times":[1216],"next_num":1,"trial_type":"ticket-choose","trial_index":126,"time_elapsed":1391321,"internal_node_id":"0.0-126.0"},{"result":157,"points":3,"place":0,"phase":1,"sequence":42,"times":[1320,659,974],"next_num":3,"trial_type":"ticket-choose","trial_index":127,"time_elapsed":1396969,"internal_node_id":"0.0-127.0"},{"result":147,"points":3,"place":0,"phase":1,"sequence":43,"times":[1247,646,2920,1602],"next_num":4,"trial_type":"ticket-choose","trial_index":128,"time_elapsed":1406773,"internal_node_id":"0.0-128.0"},{"result":168,"points":1,"place":2,"phase":1,"sequence":44,"times":[2070],"next_num":1,"trial_type":"ticket-choose","trial_index":129,"time_elapsed":1411433,"internal_node_id":"0.0-129.0"},{"result":159,"points":1,"place":2,"phase":1,"sequence":45,"times":[1176,1679],"next_num":2,"trial_type":"ticket-choose","trial_index":130,"time_elapsed":1416962,"internal_node_id":"0.0-130.0"},{"result":148,"points":3,"place":0,"phase":1,"sequence":46,"times":[1023,676,708,668,784,755,2033,793,1018],"next_num":9,"trial_type":"ticket-choose","trial_index":131,"time_elapsed":1429324,"internal_node_id":"0.0-131.0"},{"result":163,"points":1,"place":3,"phase":1,"sequence":47,"times":[3462,744,1001],"next_num":3,"trial_type":"ticket-choose","trial_index":132,"time_elapsed":1437307,"internal_node_id":"0.0-132.0"},{"result":148,"points":3,"place":0,"phase":1,"sequence":48,"times":[1009],"next_num":1,"trial_type":"ticket-choose","trial_index":133,"time_elapsed":1440774,"internal_node_id":"0.0-133.0"},{"result":150,"points":3,"place":0,"phase":1,"sequence":49,"times":[1770],"next_num":1,"trial_type":"ticket-choose","trial_index":134,"time_elapsed":1445168,"internal_node_id":"0.0-134.0"},{"responses":[{"value":0,"offby":0,"category":"$106 - $134","category_index":0},{"value":2,"offby":1,"category":"$135 - $150","category_index":1},{"value":4,"offby":1,"category":"$151 - $165","category_index":2},{"value":7,"offby":1,"category":"$166 - $180","category_index":3},{"value":5,"offby":-1,"category":"$181 - $195","category_index":4},{"value":2,"offby":-1,"category":"$196 - $210","category_index":5},{"value":0,"offby":-1,"category":"$211 - $225","category_index":6}],"phase":1,"number":1,"trial_type":"bar-choose","trial_index":135,"time_elapsed":1485908,"internal_node_id":"0.0-135.0"},{"during":"Nothing","bonus":312,"trial_type":"final","trial_index":136,"time_elapsed":1513662,"internal_node_id":"0.0-136.0"}],"bonus":312}