{"start_time":"2017-02-22 10:46:37","end_time":"2017-02-22 11:01:29","points_phase0":103,"points_phase1":99,"phase_order":1,"age":33,"gender":"m","tries":1,"during":"Nothing","worker_id":"A610SH5RY1NG1","assignment_id":"3UOUJI6MTE7HLUSZ3JGIWARA7TDUXP","data":[{"rt":4946,"url":"\/tickets\/utils\/consent.html","trial_type":"html","trial_index":0,"time_elapsed":5178,"internal_node_id":"0.0-0.0"},{"age":33,"gender":"m","trial_type":"age","trial_index":1,"time_elapsed":9200,"internal_node_id":"0.0-1.0"},{"worker_id":"A610SH5RY1NG1","trial_type":"workerid","trial_index":2,"time_elapsed":13469,"internal_node_id":"0.0-2.0"},{"tries":1,"trial_type":"instructions_check","trial_index":3,"time_elapsed":25417,"internal_node_id":"0.0-3.0"},{"rt":5069,"url":"\/tickets\/utils\/start.html","trial_type":"html","trial_index":4,"time_elapsed":31620,"internal_node_id":"0.0-4.0"},{"trial_type":"number-animation","trial_index":5,"time_elapsed":41637,"internal_node_id":"0.0-5.0"},{"phase":0,"sequence":0,"avg":182,"response":192,"trial_type":"training_avg","trial_index":6,"time_elapsed":49872,"internal_node_id":"0.0-6.0"},{"trial_type":"number-animation","trial_index":7,"time_elapsed":56420,"internal_node_id":"0.0-7.0"},{"phase":0,"sequence":1,"avg":188,"response":195,"trial_type":"training_avg","trial_index":8,"time_elapsed":63792,"internal_node_id":"0.0-8.0"},{"trial_type":"number-animation","trial_index":9,"time_elapsed":71514,"internal_node_id":"0.0-9.0"},{"phase":0,"sequence":2,"avg":176,"response":179,"trial_type":"training_avg","trial_index":10,"time_elapsed":77736,"internal_node_id":"0.0-10.0"},{"trial_type":"number-animation","trial_index":11,"time_elapsed":83981,"internal_node_id":"0.0-11.0"},{"phase":0,"sequence":3,"avg":180,"response":167,"trial_type":"training_avg","trial_index":12,"time_elapsed":92872,"internal_node_id":"0.0-12.0"},{"trial_type":"number-animation","trial_index":13,"time_elapsed":99160,"internal_node_id":"0.0-13.0"},{"phase":0,"sequence":4,"avg":174,"response":162,"trial_type":"training_avg","trial_index":14,"time_elapsed":105352,"internal_node_id":"0.0-14.0"},{"responses":[{"value":0,"offby":-1,"category":"$90 - $120","category_index":0},{"value":0,"offby":-3,"category":"$121 - $145","category_index":1},{"value":10,"offby":7,"category":"$146 - $170","category_index":2},{"value":10,"offby":4,"category":"$171 - $195","category_index":3},{"value":0,"offby":-4,"category":"$196 - $220","category_index":4},{"value":0,"offby":-2,"category":"$221 - $245","category_index":5},{"value":0,"offby":-1,"category":"$246 - $270","category_index":6}],"phase":0,"number":0,"trial_type":"bar-choose","trial_index":15,"time_elapsed":135396,"internal_node_id":"0.0-15.0"},{"rt":10962,"url":"\/tickets\/\/utils\/testing.html","trial_type":"html","trial_index":16,"time_elapsed":147491,"internal_node_id":"0.0-16.0"},{"phase":0,"order":[3,24,39,12,42,6,19,35,45,33,10,18,2,28,32,13,47,29,21,38,11,22,30,26,0,31,48,20,40,8,44,34,43,5,15,27,37,25,7,16,41,14,23,17,1,4,36,9,46,49],"trial_type":"store_order","trial_index":17,"time_elapsed":148493,"internal_node_id":"0.0-17.0"},{"result":165,"points":2,"place":1,"phase":0,"sequence":-1,"prices":[184,180,224,165,181,199,185,193,218,126],"times":[2830,542,790,1387],"next_num":4,"trial_type":"ticket-choose","trial_index":18,"time_elapsed":156987,"internal_node_id":"0.0-18.0"},{"rt":18449,"url":"\/tickets\/utils\/testing_after.html","trial_type":"html","trial_index":19,"time_elapsed":176567,"internal_node_id":"0.0-19.0"},{"result":168,"points":1,"place":3,"phase":0,"sequence":0,"prices":[168,191,172,240,183,193,146,151,125,238],"times":[2459],"next_num":1,"trial_type":"ticket-choose","trial_index":20,"time_elapsed":182777,"internal_node_id":"0.0-20.0"},{"result":105,"points":3,"place":0,"phase":0,"sequence":1,"prices":[263,165,224,214,105,230,215,185,177,193],"times":[1239,381,542,486,875],"next_num":5,"trial_type":"ticket-choose","trial_index":21,"time_elapsed":189588,"internal_node_id":"0.0-21.0"},{"result":135,"points":3,"place":0,"phase":0,"sequence":2,"prices":[135,202,150,169,183,225,160,211,220,172],"times":[1261],"next_num":1,"trial_type":"ticket-choose","trial_index":22,"time_elapsed":193851,"internal_node_id":"0.0-22.0"},{"result":150,"points":1,"place":2,"phase":0,"sequence":3,"prices":[173,194,136,239,182,200,174,150,236,127],"times":[737,498,484,684,605,580,763,957],"next_num":8,"trial_type":"ticket-choose","trial_index":23,"time_elapsed":202607,"internal_node_id":"0.0-23.0"},{"result":136,"points":2,"place":1,"phase":0,"sequence":4,"prices":[170,192,174,242,181,196,136,153,236,128],"times":[663,615,666,574,653,644,790],"next_num":7,"trial_type":"ticket-choose","trial_index":24,"time_elapsed":210406,"internal_node_id":"0.0-24.0"},{"result":168,"points":1,"place":3,"phase":0,"sequence":5,"prices":[168,191,146,252,183,193,172,153,126,238],"times":[1189],"next_num":1,"trial_type":"ticket-choose","trial_index":25,"time_elapsed":213807,"internal_node_id":"0.0-25.0"},{"result":119,"points":3,"place":0,"phase":0,"sequence":6,"prices":[198,119,169,141,195,233,136,208,177,217],"times":[2182,821],"next_num":2,"trial_type":"ticket-choose","trial_index":26,"time_elapsed":218978,"internal_node_id":"0.0-26.0"},{"result":172,"points":1,"place":4,"phase":0,"sequence":7,"prices":[171,195,172,242,179,196,146,150,128,235],"times":[786,752,854],"next_num":3,"trial_type":"ticket-choose","trial_index":27,"time_elapsed":223749,"internal_node_id":"0.0-27.0"},{"result":154,"points":2,"place":1,"phase":0,"sequence":8,"prices":[170,193,176,245,178,194,154,159,236,126],"times":[1155,566,528,603,601,651,801],"next_num":7,"trial_type":"ticket-choose","trial_index":28,"time_elapsed":232129,"internal_node_id":"0.0-28.0"},{"result":146,"points":2,"place":1,"phase":0,"sequence":9,"prices":[170,193,146,268,178,195,172,149,126,241],"times":[1210,522,1334],"next_num":3,"trial_type":"ticket-choose","trial_index":29,"time_elapsed":237585,"internal_node_id":"0.0-29.0"},{"result":149,"points":2,"place":1,"phase":0,"sequence":10,"prices":[196,221,149,164,216,167,175,128,176,181],"times":[943,540,760],"next_num":3,"trial_type":"ticket-choose","trial_index":30,"time_elapsed":242158,"internal_node_id":"0.0-30.0"},{"result":154,"points":2,"place":1,"phase":0,"sequence":11,"prices":[169,192,176,244,178,194,154,159,237,125],"times":[790,475,582,606,655,620,1159],"next_num":7,"trial_type":"ticket-choose","trial_index":31,"time_elapsed":250282,"internal_node_id":"0.0-31.0"},{"result":159,"points":2,"place":1,"phase":0,"sequence":12,"prices":[182,249,159,114,184,205,175,189,172,178],"times":[978,578,819],"next_num":3,"trial_type":"ticket-choose","trial_index":32,"time_elapsed":254943,"internal_node_id":"0.0-32.0"},{"result":136,"points":2,"place":1,"phase":0,"sequence":13,"prices":[171,192,136,243,182,195,174,154,236,128],"times":[791,577,799],"next_num":3,"trial_type":"ticket-choose","trial_index":33,"time_elapsed":259780,"internal_node_id":"0.0-33.0"},{"result":130,"points":2,"place":1,"phase":0,"sequence":14,"prices":[181,130,116,142,157,193,165,218,173,207],"times":[966,882],"next_num":2,"trial_type":"ticket-choose","trial_index":34,"time_elapsed":263819,"internal_node_id":"0.0-34.0"},{"result":156,"points":1,"place":2,"phase":0,"sequence":15,"prices":[156,218,212,216,191,210,275,146,174,152],"times":[906],"next_num":1,"trial_type":"ticket-choose","trial_index":35,"time_elapsed":266671,"internal_node_id":"0.0-35.0"},{"result":138,"points":1,"place":2,"phase":0,"sequence":16,"prices":[181,138,118,170,190,101,146,169,175,233],"times":[681,1302],"next_num":2,"trial_type":"ticket-choose","trial_index":36,"time_elapsed":270742,"internal_node_id":"0.0-36.0"},{"result":154,"points":2,"place":1,"phase":0,"sequence":17,"prices":[168,192,154,237,182,196,176,156,235,133],"times":[1669,599,784],"next_num":3,"trial_type":"ticket-choose","trial_index":37,"time_elapsed":276088,"internal_node_id":"0.0-37.0"},{"result":146,"points":2,"place":1,"phase":0,"sequence":18,"prices":[169,193,146,237,180,196,172,150,129,236],"times":[1335,727,739],"next_num":3,"trial_type":"ticket-choose","trial_index":38,"time_elapsed":281097,"internal_node_id":"0.0-38.0"},{"result":132,"points":3,"place":0,"phase":0,"sequence":19,"prices":[132,222,144,153,190,248,151,224,228,179],"times":[1211],"next_num":1,"trial_type":"ticket-choose","trial_index":39,"time_elapsed":284161,"internal_node_id":"0.0-39.0"},{"result":146,"points":2,"place":1,"phase":0,"sequence":20,"prices":[173,191,146,242,178,194,172,152,126,235],"times":[573,537,784],"next_num":3,"trial_type":"ticket-choose","trial_index":40,"time_elapsed":288317,"internal_node_id":"0.0-40.0"},{"result":136,"points":2,"place":1,"phase":0,"sequence":21,"prices":[172,194,174,243,182,193,136,150,237,126],"times":[650,560,564,666,646,602,784],"next_num":7,"trial_type":"ticket-choose","trial_index":41,"time_elapsed":295966,"internal_node_id":"0.0-41.0"},{"result":136,"points":2,"place":1,"phase":0,"sequence":22,"prices":[172,190,136,270,179,192,174,152,237,129],"times":[806,534,884],"next_num":3,"trial_type":"ticket-choose","trial_index":42,"time_elapsed":300474,"internal_node_id":"0.0-42.0"},{"result":136,"points":2,"place":1,"phase":0,"sequence":23,"prices":[171,192,136,265,180,194,174,152,239,127],"times":[537,566,793],"next_num":3,"trial_type":"ticket-choose","trial_index":43,"time_elapsed":304652,"internal_node_id":"0.0-43.0"},{"result":124,"points":3,"place":0,"phase":0,"sequence":24,"prices":[219,183,227,124,176,161,140,129,171,201],"times":[1280,695,737,915],"next_num":4,"trial_type":"ticket-choose","trial_index":44,"time_elapsed":310927,"internal_node_id":"0.0-44.0"},{"result":142,"points":3,"place":0,"phase":0,"sequence":25,"prices":[142,207,171,182,190,269,180,218,256,188],"times":[959],"next_num":1,"trial_type":"ticket-choose","trial_index":45,"time_elapsed":313939,"internal_node_id":"0.0-45.0"},{"result":131,"points":2,"place":1,"phase":0,"sequence":26,"prices":[221,234,131,136,132,149,154,90,176,173],"times":[598,553,779],"next_num":3,"trial_type":"ticket-choose","trial_index":46,"time_elapsed":318198,"internal_node_id":"0.0-46.0"},{"result":145,"points":2,"place":1,"phase":0,"sequence":27,"prices":[216,206,158,145,224,185,124,149,175,162],"times":[749,1120,844,977],"next_num":4,"trial_type":"ticket-choose","trial_index":47,"time_elapsed":324399,"internal_node_id":"0.0-47.0"},{"result":136,"points":2,"place":1,"phase":0,"sequence":28,"prices":[173,191,174,270,180,193,136,153,239,129],"times":[682,575,595,541,691,567,918],"next_num":7,"trial_type":"ticket-choose","trial_index":48,"time_elapsed":332061,"internal_node_id":"0.0-48.0"},{"result":136,"points":3,"place":0,"phase":0,"sequence":29,"prices":[240,188,273,207,250,136,217,170,171,236],"times":[579,599,550,731,589,847],"next_num":6,"trial_type":"ticket-choose","trial_index":49,"time_elapsed":338931,"internal_node_id":"0.0-49.0"},{"result":108,"points":3,"place":0,"phase":0,"sequence":30,"prices":[155,129,164,189,210,108,187,241,174,275],"times":[1450,512,626,593,585,891],"next_num":6,"trial_type":"ticket-choose","trial_index":50,"time_elapsed":346589,"internal_node_id":"0.0-50.0"},{"result":192,"points":1,"place":4,"phase":0,"sequence":31,"prices":[157,205,161,175,197,254,165,210,214,192],"times":[931,580,626,579,573,617,1710,710,800,825],"next_num":10,"trial_type":"ticket-choose","trial_index":51,"time_elapsed":358490,"internal_node_id":"0.0-51.0"},{"result":161,"points":1,"place":2,"phase":0,"sequence":32,"prices":[157,213,159,187,194,242,161,222,225,189],"times":[1345,660,964,586,628,539,916],"next_num":7,"trial_type":"ticket-choose","trial_index":52,"time_elapsed":367333,"internal_node_id":"0.0-52.0"},{"result":146,"points":2,"place":1,"phase":0,"sequence":33,"prices":[172,191,176,272,179,194,146,152,126,235],"times":[955,788,711,629,650,641,889],"next_num":7,"trial_type":"ticket-choose","trial_index":53,"time_elapsed":375771,"internal_node_id":"0.0-53.0"},{"result":154,"points":2,"place":1,"phase":0,"sequence":34,"prices":[169,191,154,268,183,197,176,155,236,133],"times":[1539,684,870],"next_num":3,"trial_type":"ticket-choose","trial_index":54,"time_elapsed":381108,"internal_node_id":"0.0-54.0"},{"result":153,"points":2,"place":1,"phase":0,"sequence":35,"prices":[197,153,181,215,150,155,164,247,177,162],"times":[606,772],"next_num":2,"trial_type":"ticket-choose","trial_index":55,"time_elapsed":384514,"internal_node_id":"0.0-55.0"},{"result":154,"points":2,"place":1,"phase":0,"sequence":36,"prices":[169,194,154,271,178,201,176,158,236,127],"times":[653,567,739],"next_num":3,"trial_type":"ticket-choose","trial_index":56,"time_elapsed":388721,"internal_node_id":"0.0-56.0"},{"result":124,"points":3,"place":0,"phase":0,"sequence":37,"prices":[124,220,136,165,185,234,143,225,228,179],"times":[786],"next_num":1,"trial_type":"ticket-choose","trial_index":57,"time_elapsed":391334,"internal_node_id":"0.0-57.0"},{"result":117,"points":3,"place":0,"phase":0,"sequence":38,"prices":[117,161,120,147,153,259,144,191,195,149],"times":[1046],"next_num":1,"trial_type":"ticket-choose","trial_index":58,"time_elapsed":394641,"internal_node_id":"0.0-58.0"},{"result":146,"points":1,"place":2,"phase":0,"sequence":39,"prices":[186,146,191,179,152,116,140,201,172,187],"times":[689,800],"next_num":2,"trial_type":"ticket-choose","trial_index":59,"time_elapsed":398222,"internal_node_id":"0.0-59.0"},{"result":154,"points":2,"place":1,"phase":0,"sequence":40,"prices":[170,190,176,251,183,192,154,157,236,131],"times":[524,482,488,487,679,669,962],"next_num":7,"trial_type":"ticket-choose","trial_index":60,"time_elapsed":405553,"internal_node_id":"0.0-60.0"},{"result":135,"points":3,"place":0,"phase":0,"sequence":41,"prices":[221,193,135,188,217,179,196,190,175,159],"times":[837,571,886],"next_num":3,"trial_type":"ticket-choose","trial_index":61,"time_elapsed":410068,"internal_node_id":"0.0-61.0"},{"result":154,"points":2,"place":1,"phase":0,"sequence":42,"prices":[244,203,196,189,154,206,197,149,171,159],"times":[690,758,656,658,707],"next_num":5,"trial_type":"ticket-choose","trial_index":62,"time_elapsed":416159,"internal_node_id":"0.0-62.0"},{"result":154,"points":2,"place":1,"phase":0,"sequence":43,"prices":[168,192,176,242,183,197,154,156,237,132],"times":[673,470,498,507,678,622,835],"next_num":7,"trial_type":"ticket-choose","trial_index":63,"time_elapsed":424144,"internal_node_id":"0.0-63.0"},{"result":121,"points":3,"place":0,"phase":0,"sequence":44,"prices":[121,191,128,141,166,217,129,196,202,157],"times":[781],"next_num":1,"trial_type":"ticket-choose","trial_index":64,"time_elapsed":426766,"internal_node_id":"0.0-64.0"},{"result":146,"points":2,"place":1,"phase":0,"sequence":45,"prices":[171,191,172,268,179,194,146,150,127,239],"times":[769,528,518,547,598,589,793],"next_num":7,"trial_type":"ticket-choose","trial_index":65,"time_elapsed":434752,"internal_node_id":"0.0-65.0"},{"result":196,"points":1,"place":4,"phase":0,"sequence":46,"prices":[143,206,153,194,201,267,168,208,210,196],"times":[1364,491,599,531,561,614,1348,598,551,975],"next_num":10,"trial_type":"ticket-choose","trial_index":66,"time_elapsed":446489,"internal_node_id":"0.0-66.0"},{"result":137,"points":3,"place":0,"phase":0,"sequence":47,"prices":[137,187,152,156,166,231,155,194,202,160],"times":[1187],"next_num":1,"trial_type":"ticket-choose","trial_index":67,"time_elapsed":450510,"internal_node_id":"0.0-67.0"},{"result":136,"points":2,"place":1,"phase":0,"sequence":48,"prices":[169,192,174,246,180,195,136,152,238,126],"times":[3753,601,601,664,3069,554,915],"next_num":7,"trial_type":"ticket-choose","trial_index":68,"time_elapsed":464315,"internal_node_id":"0.0-68.0"},{"result":154,"points":2,"place":1,"phase":0,"sequence":49,"prices":[169,193,154,255,178,194,176,158,239,126],"times":[972,1035,930],"next_num":3,"trial_type":"ticket-choose","trial_index":69,"time_elapsed":469585,"internal_node_id":"0.0-69.0"},{"responses":[{"value":0,"offby":-1,"category":"$90 - $120","category_index":0},{"value":0,"offby":-3,"category":"$121 - $145","category_index":1},{"value":4,"offby":1,"category":"$146 - $170","category_index":2},{"value":6,"offby":0,"category":"$171 - $195","category_index":3},{"value":8,"offby":4,"category":"$196 - $220","category_index":4},{"value":2,"offby":0,"category":"$221 - $245","category_index":5},{"value":0,"offby":-1,"category":"$246 - $270","category_index":6}],"phase":0,"number":1,"trial_type":"bar-choose","trial_index":70,"time_elapsed":487768,"internal_node_id":"0.0-70.0"},{"rt":2780,"url":"\/tickets\/utils\/start2.html","trial_type":"html","trial_index":71,"time_elapsed":491662,"internal_node_id":"0.0-71.0"},{"trial_type":"number-animation","trial_index":72,"time_elapsed":498542,"internal_node_id":"0.0-72.0"},{"phase":1,"sequence":0,"avg":181,"response":177,"trial_type":"training_avg","trial_index":73,"time_elapsed":503326,"internal_node_id":"0.0-73.0"},{"trial_type":"number-animation","trial_index":74,"time_elapsed":512042,"internal_node_id":"0.0-74.0"},{"phase":1,"sequence":1,"avg":188,"response":165,"trial_type":"training_avg","trial_index":75,"time_elapsed":516364,"internal_node_id":"0.0-75.0"},{"trial_type":"number-animation","trial_index":76,"time_elapsed":522418,"internal_node_id":"0.0-76.0"},{"phase":1,"sequence":2,"avg":188,"response":179,"trial_type":"training_avg","trial_index":77,"time_elapsed":527044,"internal_node_id":"0.0-77.0"},{"trial_type":"number-animation","trial_index":78,"time_elapsed":533277,"internal_node_id":"0.0-78.0"},{"phase":1,"sequence":3,"avg":177,"response":170,"trial_type":"training_avg","trial_index":79,"time_elapsed":538189,"internal_node_id":"0.0-79.0"},{"trial_type":"number-animation","trial_index":80,"time_elapsed":543991,"internal_node_id":"0.0-80.0"},{"phase":1,"sequence":4,"avg":182,"response":183,"trial_type":"training_avg","trial_index":81,"time_elapsed":548960,"internal_node_id":"0.0-81.0"},{"responses":[{"value":0,"offby":0,"category":"$106 - $134","category_index":0},{"value":0,"offby":-1,"category":"$135 - $150","category_index":1},{"value":2,"offby":-1,"category":"$151 - $165","category_index":2},{"value":6,"offby":0,"category":"$166 - $180","category_index":3},{"value":7,"offby":1,"category":"$181 - $195","category_index":4},{"value":5,"offby":2,"category":"$196 - $210","category_index":5},{"value":0,"offby":-1,"category":"$211 - $225","category_index":6}],"phase":1,"number":0,"trial_type":"bar-choose","trial_index":82,"time_elapsed":566172,"internal_node_id":"0.0-82.0"},{"rt":7994,"url":"\/tickets\/utils\/testing2.html","trial_type":"html","trial_index":83,"time_elapsed":575303,"internal_node_id":"0.0-83.0"},{"phase":1,"order":[6,42,30,18,21,2,40,5,15,3,36,14,48,17,34,38,44,8,1,25,0,22,19,16,47,24,41,37,23,46,35,27,28,4,9,39,11,26,31,49,13,43,45,12,29,7,32,33,20,10],"trial_type":"store_order","trial_index":84,"time_elapsed":576306,"internal_node_id":"0.0-84.0"},{"result":165,"points":1,"place":2,"phase":1,"sequence":0,"prices":[175,186,163,211,179,187,176,165,153,210],"times":[817,518,443,542,483,480,570,695],"next_num":8,"trial_type":"ticket-choose","trial_index":85,"time_elapsed":584366,"internal_node_id":"0.0-85.0"},{"result":184,"points":1,"place":4,"phase":1,"sequence":1,"prices":[161,193,175,181,185,224,180,199,218,184],"times":[1974,513,535,552,538,556,510,835,673,641],"next_num":10,"trial_type":"ticket-choose","trial_index":86,"time_elapsed":595502,"internal_node_id":"0.0-86.0"},{"result":167,"points":2,"place":1,"phase":1,"sequence":2,"prices":[189,167,180,197,165,168,172,213,178,171],"times":[833,860],"next_num":2,"trial_type":"ticket-choose","trial_index":87,"time_elapsed":599281,"internal_node_id":"0.0-87.0"},{"result":167,"points":2,"place":1,"phase":1,"sequence":3,"prices":[174,186,178,217,181,188,167,168,208,156],"times":[737,539,705,660,890,637,858],"next_num":7,"trial_type":"ticket-choose","trial_index":88,"time_elapsed":607401,"internal_node_id":"0.0-88.0"},{"result":143,"points":3,"place":0,"phase":1,"sequence":4,"prices":[222,173,202,197,143,205,198,183,178,186],"times":[612,646,595,1375,782],"next_num":5,"trial_type":"ticket-choose","trial_index":89,"time_elapsed":614014,"internal_node_id":"0.0-89.0"},{"result":174,"points":1,"place":3,"phase":1,"sequence":5,"prices":[174,186,176,217,181,187,163,166,153,209],"times":[950],"next_num":1,"trial_type":"ticket-choose","trial_index":90,"time_elapsed":616836,"internal_node_id":"0.0-90.0"},{"result":166,"points":1,"place":2,"phase":1,"sequence":6,"prices":[176,185,158,217,180,186,177,166,209,154],"times":[1071,508,516,863,574,820,536,685],"next_num":8,"trial_type":"ticket-choose","trial_index":91,"time_elapsed":625708,"internal_node_id":"0.0-91.0"},{"result":168,"points":1,"place":2,"phase":1,"sequence":7,"prices":[168,154,172,185,195,144,184,211,177,227],"times":[941],"next_num":1,"trial_type":"ticket-choose","trial_index":92,"time_elapsed":628527,"internal_node_id":"0.0-92.0"},{"result":167,"points":2,"place":1,"phase":1,"sequence":8,"prices":[212,192,188,184,167,193,189,164,176,170],"times":[609,622,772,601,4132],"next_num":5,"trial_type":"ticket-choose","trial_index":93,"time_elapsed":637941,"internal_node_id":"0.0-93.0"},{"result":159,"points":3,"place":0,"phase":1,"sequence":9,"prices":[159,183,166,168,173,205,167,187,191,170],"times":[1953],"next_num":1,"trial_type":"ticket-choose","trial_index":94,"time_elapsed":641709,"internal_node_id":"0.0-94.0"},{"result":167,"points":2,"place":1,"phase":1,"sequence":10,"prices":[175,186,167,225,179,187,178,169,209,153],"times":[709,625,745],"next_num":3,"trial_type":"ticket-choose","trial_index":95,"time_elapsed":645913,"internal_node_id":"0.0-95.0"},{"result":158,"points":2,"place":1,"phase":1,"sequence":11,"prices":[176,187,158,210,181,187,177,165,208,153],"times":[952,506,695],"next_num":3,"trial_type":"ticket-choose","trial_index":96,"time_elapsed":650205,"internal_node_id":"0.0-96.0"},{"result":174,"points":1,"place":3,"phase":1,"sequence":12,"prices":[174,186,163,212,181,187,176,166,153,209],"times":[1747],"next_num":1,"trial_type":"ticket-choose","trial_index":97,"time_elapsed":653679,"internal_node_id":"0.0-97.0"},{"result":169,"points":3,"place":0,"phase":1,"sequence":13,"prices":[169,196,170,184,187,211,171,201,202,185],"times":[978],"next_num":1,"trial_type":"ticket-choose","trial_index":98,"time_elapsed":656692,"internal_node_id":"0.0-98.0"},{"result":161,"points":3,"place":0,"phase":1,"sequence":14,"prices":[161,193,167,187,190,224,174,194,195,188],"times":[617],"next_num":1,"trial_type":"ticket-choose","trial_index":99,"time_elapsed":659116,"internal_node_id":"0.0-99.0"},{"result":175,"points":1,"place":3,"phase":1,"sequence":15,"prices":[175,185,178,215,181,186,167,168,208,156],"times":[939],"next_num":1,"trial_type":"ticket-choose","trial_index":100,"time_elapsed":661823,"internal_node_id":"0.0-100.0"},{"result":152,"points":3,"place":0,"phase":1,"sequence":16,"prices":[200,181,203,152,175,171,160,154,176,191],"times":[521,571,559,758],"next_num":4,"trial_type":"ticket-choose","trial_index":101,"time_elapsed":666580,"internal_node_id":"0.0-101.0"},{"result":150,"points":3,"place":0,"phase":1,"sequence":17,"prices":[150,185,154,161,173,199,155,188,191,168],"times":[869],"next_num":1,"trial_type":"ticket-choose","trial_index":102,"time_elapsed":669159,"internal_node_id":"0.0-102.0"},{"result":158,"points":2,"place":1,"phase":1,"sequence":18,"prices":[175,186,177,209,181,188,158,167,208,154],"times":[731,526,697,570,659,538,813],"next_num":7,"trial_type":"ticket-choose","trial_index":103,"time_elapsed":676672,"internal_node_id":"0.0-103.0"},{"result":168,"points":1,"place":2,"phase":1,"sequence":19,"prices":[168,199,196,198,185,195,227,163,177,166],"times":[697],"next_num":1,"trial_type":"ticket-choose","trial_index":104,"time_elapsed":679088,"internal_node_id":"0.0-104.0"},{"result":167,"points":2,"place":1,"phase":1,"sequence":20,"prices":[175,187,167,212,179,187,178,169,208,153],"times":[941,466,725],"next_num":3,"trial_type":"ticket-choose","trial_index":105,"time_elapsed":683390,"internal_node_id":"0.0-105.0"},{"result":158,"points":2,"place":1,"phase":1,"sequence":21,"prices":[176,187,177,225,181,187,158,165,208,153],"times":[1733,495,503,539,539,490,777],"next_num":7,"trial_type":"ticket-choose","trial_index":106,"time_elapsed":691485,"internal_node_id":"0.0-106.0"},{"result":157,"points":3,"place":0,"phase":1,"sequence":22,"prices":[157,191,165,175,182,203,170,195,200,176],"times":[1160],"next_num":1,"trial_type":"ticket-choose","trial_index":107,"time_elapsed":694397,"internal_node_id":"0.0-107.0"},{"result":152,"points":3,"place":0,"phase":1,"sequence":23,"prices":[152,200,158,173,182,207,161,202,204,180],"times":[933],"next_num":1,"trial_type":"ticket-choose","trial_index":108,"time_elapsed":697050,"internal_node_id":"0.0-108.0"},{"result":163,"points":2,"place":1,"phase":1,"sequence":24,"prices":[176,186,163,214,179,187,176,166,153,208],"times":[1199,486,929],"next_num":3,"trial_type":"ticket-choose","trial_index":109,"time_elapsed":701828,"internal_node_id":"0.0-109.0"},{"result":148,"points":3,"place":0,"phase":1,"sequence":25,"prices":[148,171,150,163,167,220,162,186,187,165],"times":[827],"next_num":1,"trial_type":"ticket-choose","trial_index":110,"time_elapsed":704410,"internal_node_id":"0.0-110.0"},{"result":169,"points":2,"place":1,"phase":1,"sequence":26,"prices":[181,215,169,147,182,193,177,184,176,179],"times":[931,507,667],"next_num":3,"trial_type":"ticket-choose","trial_index":111,"time_elapsed":708703,"internal_node_id":"0.0-111.0"},{"result":175,"points":1,"place":3,"phase":1,"sequence":27,"prices":[175,186,177,221,180,187,158,166,209,153],"times":[978],"next_num":1,"trial_type":"ticket-choose","trial_index":112,"time_elapsed":711520,"internal_node_id":"0.0-112.0"},{"result":150,"points":3,"place":0,"phase":1,"sequence":28,"prices":[189,150,175,160,188,207,158,194,178,199],"times":[790,843],"next_num":2,"trial_type":"ticket-choose","trial_index":113,"time_elapsed":715247,"internal_node_id":"0.0-113.0"},{"result":167,"points":2,"place":1,"phase":1,"sequence":29,"prices":[174,186,167,211,181,188,178,168,208,156],"times":[818,488,700],"next_num":3,"trial_type":"ticket-choose","trial_index":114,"time_elapsed":719387,"internal_node_id":"0.0-114.0"},{"result":159,"points":1,"place":2,"phase":1,"sequence":30,"prices":[180,159,149,175,185,141,163,174,178,207],"times":[943,835],"next_num":2,"trial_type":"ticket-choose","trial_index":115,"time_elapsed":723297,"internal_node_id":"0.0-115.0"},{"result":155,"points":2,"place":1,"phase":1,"sequence":31,"prices":[181,155,148,161,168,187,172,199,176,194],"times":[1151,1091],"next_num":2,"trial_type":"ticket-choose","trial_index":116,"time_elapsed":727573,"internal_node_id":"0.0-116.0"},{"result":157,"points":3,"place":0,"phase":1,"sequence":32,"prices":[201,187,157,184,198,179,188,185,178,170],"times":[506,562,690],"next_num":3,"trial_type":"ticket-choose","trial_index":117,"time_elapsed":731457,"internal_node_id":"0.0-117.0"},{"result":163,"points":2,"place":1,"phase":1,"sequence":33,"prices":[175,187,176,209,180,188,163,165,154,208],"times":[2164,497,691,538,495,1983,803],"next_num":7,"trial_type":"ticket-choose","trial_index":118,"time_elapsed":741618,"internal_node_id":"0.0-118.0"},{"result":167,"points":2,"place":1,"phase":1,"sequence":34,"prices":[175,187,178,209,179,187,167,169,208,153],"times":[855,552,502,733,814,682,778],"next_num":7,"trial_type":"ticket-choose","trial_index":119,"time_elapsed":749513,"internal_node_id":"0.0-119.0"},{"result":168,"points":3,"place":0,"phase":1,"sequence":35,"prices":[168,192,171,178,188,217,172,195,197,186],"times":[721],"next_num":1,"trial_type":"ticket-choose","trial_index":120,"time_elapsed":752118,"internal_node_id":"0.0-120.0"},{"result":169,"points":1,"place":3,"phase":1,"sequence":36,"prices":[198,193,169,163,202,182,152,164,177,171],"times":[1217,538,866],"next_num":3,"trial_type":"ticket-choose","trial_index":121,"time_elapsed":756976,"internal_node_id":"0.0-121.0"},{"result":156,"points":3,"place":0,"phase":1,"sequence":37,"prices":[156,201,162,166,185,214,165,202,204,179],"times":[765],"next_num":1,"trial_type":"ticket-choose","trial_index":122,"time_elapsed":759447,"internal_node_id":"0.0-122.0"},{"result":163,"points":2,"place":1,"phase":1,"sequence":38,"prices":[175,186,176,224,179,187,163,165,153,210],"times":[858,549,674,562,590,588,823],"next_num":7,"trial_type":"ticket-choose","trial_index":123,"time_elapsed":767222,"internal_node_id":"0.0-123.0"},{"result":158,"points":2,"place":1,"phase":1,"sequence":39,"prices":[175,186,158,211,180,187,177,166,209,153],"times":[831,587,829],"next_num":3,"trial_type":"ticket-choose","trial_index":124,"time_elapsed":771645,"internal_node_id":"0.0-124.0"},{"result":155,"points":2,"place":1,"phase":1,"sequence":40,"prices":[201,207,155,158,156,165,167,135,178,177],"times":[880,562,891],"next_num":3,"trial_type":"ticket-choose","trial_index":125,"time_elapsed":776176,"internal_node_id":"0.0-125.0"},{"result":167,"points":2,"place":1,"phase":1,"sequence":41,"prices":[175,186,178,212,179,187,167,169,209,153],"times":[720,514,493,507,559,514,709],"next_num":7,"trial_type":"ticket-choose","trial_index":126,"time_elapsed":783141,"internal_node_id":"0.0-126.0"},{"result":176,"points":1,"place":3,"phase":1,"sequence":42,"prices":[176,185,177,218,180,186,158,166,209,154],"times":[1771],"next_num":1,"trial_type":"ticket-choose","trial_index":127,"time_elapsed":786690,"internal_node_id":"0.0-127.0"},{"result":158,"points":2,"place":1,"phase":1,"sequence":43,"prices":[175,186,158,209,181,188,177,167,208,154],"times":[596,618,780],"next_num":3,"trial_type":"ticket-choose","trial_index":128,"time_elapsed":790808,"internal_node_id":"0.0-128.0"},{"result":163,"points":2,"place":1,"phase":1,"sequence":44,"prices":[175,187,163,209,180,188,176,165,154,208],"times":[713,474,801],"next_num":3,"trial_type":"ticket-choose","trial_index":129,"time_elapsed":794986,"internal_node_id":"0.0-129.0"},{"result":163,"points":2,"place":1,"phase":1,"sequence":45,"prices":[176,186,176,210,179,187,163,166,153,208],"times":[1305,487,603,535,534,541,793],"next_num":7,"trial_type":"ticket-choose","trial_index":130,"time_elapsed":802780,"internal_node_id":"0.0-130.0"},{"result":165,"points":2,"place":1,"phase":1,"sequence":46,"prices":[188,200,165,172,198,174,177,154,177,180],"times":[1481,609,753],"next_num":3,"trial_type":"ticket-choose","trial_index":131,"time_elapsed":807720,"internal_node_id":"0.0-131.0"},{"result":167,"points":2,"place":1,"phase":1,"sequence":47,"prices":[175,185,167,224,181,186,178,168,208,156],"times":[777,359,833],"next_num":3,"trial_type":"ticket-choose","trial_index":132,"time_elapsed":811874,"internal_node_id":"0.0-132.0"},{"result":176,"points":1,"place":2,"phase":1,"sequence":48,"prices":[210,184,226,193,215,158,199,175,176,208],"times":[640,477,724,561,556,531,542,720,1496],"next_num":9,"trial_type":"ticket-choose","trial_index":133,"time_elapsed":821768,"internal_node_id":"0.0-133.0"},{"result":163,"points":1,"place":2,"phase":1,"sequence":49,"prices":[183,163,185,180,166,148,160,186,176,184],"times":[701,1017],"next_num":2,"trial_type":"ticket-choose","trial_index":134,"time_elapsed":825786,"internal_node_id":"0.0-134.0"},{"responses":[{"value":0,"offby":0,"category":"$106 - $134","category_index":0},{"value":0,"offby":-1,"category":"$135 - $150","category_index":1},{"value":4,"offby":1,"category":"$151 - $165","category_index":2},{"value":6,"offby":0,"category":"$166 - $180","category_index":3},{"value":6,"offby":0,"category":"$181 - $195","category_index":4},{"value":4,"offby":1,"category":"$196 - $210","category_index":5},{"value":0,"offby":-1,"category":"$211 - $225","category_index":6}],"phase":1,"number":1,"trial_type":"bar-choose","trial_index":135,"time_elapsed":849118,"internal_node_id":"0.0-135.0"},{"special_comment":"Seemedrandom to me.","trial_type":"special_sequence","trial_index":136,"time_elapsed":857906,"internal_node_id":"0.0-136.0"},{"during":"Nothing","bonus":268,"trial_type":"final","trial_index":137,"time_elapsed":889974,"internal_node_id":"0.0-137.0"}],"bonus":268}