{"start_time":"2017-02-27 12:20:56","end_time":"2017-02-27 12:48:43","points_phase0":109,"points_phase1":104,"phase_order":0,"age":26,"gender":"f","tries":1,"during":"Nothing","worker_id":"A7204W9E8IR1R","assignment_id":"3X0H8UUIT2HMHHV549PWFQVFDFSSWQ","data":[{"rt":10359,"url":"\/tickets\/utils\/consent.html","trial_type":"html","trial_index":0,"time_elapsed":10432,"internal_node_id":"0.0-0.0"},{"age":26,"gender":"f","trial_type":"age","trial_index":1,"time_elapsed":16311,"internal_node_id":"0.0-1.0"},{"worker_id":"A7204W9E8IR1R","trial_type":"workerid","trial_index":2,"time_elapsed":23125,"internal_node_id":"0.0-2.0"},{"tries":1,"trial_type":"instructions_check","trial_index":3,"time_elapsed":64203,"internal_node_id":"0.0-3.0"},{"rt":23537,"url":"\/tickets\/utils\/start.html","trial_type":"html","trial_index":4,"time_elapsed":88854,"internal_node_id":"0.0-4.0"},{"trial_type":"number-animation","trial_index":5,"time_elapsed":153364,"internal_node_id":"0.0-5.0"},{"phase":0,"sequence":0,"avg":180,"response":178,"trial_type":"training_avg","trial_index":6,"time_elapsed":178309,"internal_node_id":"0.0-6.0"},{"trial_type":"number-animation","trial_index":7,"time_elapsed":201515,"internal_node_id":"0.0-7.0"},{"phase":0,"sequence":1,"avg":178,"response":178,"trial_type":"training_avg","trial_index":8,"time_elapsed":209717,"internal_node_id":"0.0-8.0"},{"trial_type":"number-animation","trial_index":9,"time_elapsed":224948,"internal_node_id":"0.0-9.0"},{"phase":0,"sequence":2,"avg":176,"response":175,"trial_type":"training_avg","trial_index":10,"time_elapsed":232108,"internal_node_id":"0.0-10.0"},{"trial_type":"number-animation","trial_index":11,"time_elapsed":248154,"internal_node_id":"0.0-11.0"},{"phase":0,"sequence":3,"avg":178,"response":172,"trial_type":"training_avg","trial_index":12,"time_elapsed":255992,"internal_node_id":"0.0-12.0"},{"trial_type":"number-animation","trial_index":13,"time_elapsed":269903,"internal_node_id":"0.0-13.0"},{"phase":0,"sequence":4,"avg":179,"response":175,"trial_type":"training_avg","trial_index":14,"time_elapsed":275284,"internal_node_id":"0.0-14.0"},{"responses":[{"value":0,"offby":0,"category":"$140 - $250","category_index":0},{"value":4,"offby":4,"category":"$151 - $160","category_index":1},{"value":5,"offby":1,"category":"$161 - $170","category_index":2},{"value":6,"offby":0,"category":"$171 - $180","category_index":3},{"value":3,"offby":-4,"category":"$181 - $190","category_index":4},{"value":2,"offby":-1,"category":"$191 - $200","category_index":5},{"value":0,"offby":0,"category":"$201 - $210","category_index":6}],"phase":0,"number":0,"trial_type":"bar-choose","trial_index":15,"time_elapsed":426206,"internal_node_id":"0.0-15.0"},{"rt":24646,"url":"\/tickets\/\/utils\/testing.html","trial_type":"html","trial_index":16,"time_elapsed":451955,"internal_node_id":"0.0-16.0"},{"phase":0,"order":[46,29,40,39,17,3,36,23,30,20,0,12,4,10,1,34,11,22,25,19,9,7,49,26,41,48,47,6,31,45,21,43,37,38,5,8,27,35,32,16,24,42,14,44,2,15,28,33,13,18],"trial_type":"store_order","trial_index":17,"time_elapsed":452957,"internal_node_id":"0.0-17.0"},{"result":165,"points":2,"place":1,"phase":0,"sequence":-1,"prices":[184,180,224,165,181,199,185,193,218,126],"times":[3501,2476,1655,2974],"next_num":4,"trial_type":"ticket-choose","trial_index":18,"time_elapsed":468707,"internal_node_id":"0.0-18.0"},{"rt":61692,"url":"\/tickets\/utils\/testing_after.html","trial_type":"html","trial_index":19,"time_elapsed":531493,"internal_node_id":"0.0-19.0"},{"result":166,"points":3,"place":0,"phase":0,"sequence":0,"prices":[179,186,197,201,166,187,188,193,190,177],"times":[19965,1018,716,724,2177],"next_num":5,"trial_type":"ticket-choose","trial_index":20,"time_elapsed":562732,"internal_node_id":"0.0-20.0"},{"result":172,"points":1,"place":2,"phase":0,"sequence":1,"prices":[166,190,170,173,178,203,172,192,198,174],"times":[1444,524,489,2959,763,1355,3582],"next_num":7,"trial_type":"ticket-choose","trial_index":21,"time_elapsed":579926,"internal_node_id":"0.0-21.0"},{"result":167,"points":3,"place":0,"phase":0,"sequence":2,"prices":[179,174,199,178,196,167,170,184,177,190],"times":[1842,946,601,492,664,1818],"next_num":6,"trial_type":"ticket-choose","trial_index":22,"time_elapsed":591628,"internal_node_id":"0.0-22.0"},{"result":156,"points":3,"place":0,"phase":0,"sequence":3,"prices":[195,177,197,179,171,173,175,156,163,204],"times":[6538,993,525,1688,1056,646,548,2328],"next_num":8,"trial_type":"ticket-choose","trial_index":23,"time_elapsed":615754,"internal_node_id":"0.0-23.0"},{"result":168,"points":2,"place":1,"phase":0,"sequence":4,"prices":[174,178,168,192,177,181,176,171,163,182],"times":[1746,541,1692],"next_num":3,"trial_type":"ticket-choose","trial_index":24,"time_elapsed":623009,"internal_node_id":"0.0-24.0"},{"result":169,"points":2,"place":1,"phase":0,"sequence":5,"prices":[174,179,169,194,178,183,177,173,165,184],"times":[925,556,1864],"next_num":3,"trial_type":"ticket-choose","trial_index":25,"time_elapsed":628814,"internal_node_id":"0.0-25.0"},{"result":168,"points":2,"place":1,"phase":0,"sequence":6,"prices":[189,185,169,168,167,171,180,173,174,188],"times":[523,503,775,1675],"next_num":4,"trial_type":"ticket-choose","trial_index":26,"time_elapsed":635206,"internal_node_id":"0.0-26.0"},{"result":168,"points":2,"place":1,"phase":0,"sequence":7,"prices":[173,178,176,193,177,182,168,172,164,183],"times":[1827,495,558,579,626,611,2221],"next_num":7,"trial_type":"ticket-choose","trial_index":27,"time_elapsed":645926,"internal_node_id":"0.0-27.0"},{"result":160,"points":3,"place":0,"phase":0,"sequence":8,"prices":[160,185,170,174,182,196,173,186,194,177],"times":[2752],"next_num":1,"trial_type":"ticket-choose","trial_index":28,"time_elapsed":651302,"internal_node_id":"0.0-28.0"},{"result":168,"points":2,"place":1,"phase":0,"sequence":9,"prices":[174,178,176,192,177,181,168,171,163,182],"times":[1547,448,519,506,494,1043,1937],"next_num":7,"trial_type":"ticket-choose","trial_index":29,"time_elapsed":662418,"internal_node_id":"0.0-29.0"},{"result":169,"points":2,"place":1,"phase":0,"sequence":10,"prices":[175,179,169,193,178,182,177,172,164,183],"times":[994,412,1805],"next_num":3,"trial_type":"ticket-choose","trial_index":30,"time_elapsed":668225,"internal_node_id":"0.0-30.0"},{"result":170,"points":2,"place":1,"phase":0,"sequence":11,"prices":[176,180,178,194,179,183,170,173,165,184],"times":[469,439,421,507,477,553,2293],"next_num":7,"trial_type":"ticket-choose","trial_index":31,"time_elapsed":677716,"internal_node_id":"0.0-31.0"},{"result":169,"points":2,"place":1,"phase":0,"sequence":12,"prices":[175,179,177,193,178,182,169,172,164,183],"times":[3326,515,1396,2024,881,552,1698],"next_num":7,"trial_type":"ticket-choose","trial_index":32,"time_elapsed":691549,"internal_node_id":"0.0-32.0"},{"result":166,"points":3,"place":0,"phase":0,"sequence":13,"prices":[175,180,170,195,179,184,178,174,166,185],"times":[1411,464,464,552,507,529,1162,1880,1520],"next_num":9,"trial_type":"ticket-choose","trial_index":33,"time_elapsed":704194,"internal_node_id":"0.0-33.0"},{"result":169,"points":2,"place":1,"phase":0,"sequence":14,"prices":[175,179,169,193,178,182,177,172,164,183],"times":[1033,460,1985],"next_num":3,"trial_type":"ticket-choose","trial_index":34,"time_elapsed":710102,"internal_node_id":"0.0-34.0"},{"result":165,"points":2,"place":1,"phase":0,"sequence":15,"prices":[181,180,191,186,165,197,159,167,194,185],"times":[501,425,461,452,1746],"next_num":5,"trial_type":"ticket-choose","trial_index":35,"time_elapsed":716563,"internal_node_id":"0.0-35.0"},{"result":166,"points":3,"place":0,"phase":0,"sequence":16,"prices":[175,180,170,195,179,184,178,174,166,185],"times":[477,442,430,504,499,647,1169,2375,2047],"next_num":9,"trial_type":"ticket-choose","trial_index":36,"time_elapsed":728890,"internal_node_id":"0.0-36.0"},{"result":168,"points":2,"place":1,"phase":0,"sequence":17,"prices":[173,178,176,193,177,182,168,172,164,183],"times":[8846,445,506,561,457,1000,1702],"next_num":7,"trial_type":"ticket-choose","trial_index":37,"time_elapsed":745615,"internal_node_id":"0.0-37.0"},{"result":163,"points":3,"place":0,"phase":0,"sequence":18,"prices":[163,185,165,174,181,198,173,186,187,180],"times":[1275],"next_num":1,"trial_type":"ticket-choose","trial_index":38,"time_elapsed":748992,"internal_node_id":"0.0-38.0"},{"result":168,"points":2,"place":1,"phase":0,"sequence":19,"prices":[173,178,168,193,177,182,176,172,164,183],"times":[1233,438,1696],"next_num":3,"trial_type":"ticket-choose","trial_index":39,"time_elapsed":754658,"internal_node_id":"0.0-39.0"},{"result":165,"points":3,"place":0,"phase":0,"sequence":20,"prices":[176,180,170,194,179,183,178,173,165,184],"times":[534,480,442,492,730,922,564,806,2016],"next_num":9,"trial_type":"ticket-choose","trial_index":40,"time_elapsed":765251,"internal_node_id":"0.0-40.0"},{"result":169,"points":2,"place":1,"phase":0,"sequence":21,"prices":[174,179,177,194,178,183,169,173,165,184],"times":[473,401,382,438,415,479,1978],"next_num":7,"trial_type":"ticket-choose","trial_index":41,"time_elapsed":772944,"internal_node_id":"0.0-41.0"},{"result":165,"points":3,"place":0,"phase":0,"sequence":22,"prices":[175,189,193,170,179,165,180,186,177,184],"times":[351,389,623,450,597,1742],"next_num":6,"trial_type":"ticket-choose","trial_index":42,"time_elapsed":779996,"internal_node_id":"0.0-42.0"},{"result":181,"points":1,"place":4,"phase":0,"sequence":23,"prices":[165,187,173,177,186,196,176,191,192,181],"times":[350,637,486,464,500,910,1375,550,604,2278],"next_num":10,"trial_type":"ticket-choose","trial_index":43,"time_elapsed":792742,"internal_node_id":"0.0-43.0"},{"result":165,"points":3,"place":0,"phase":0,"sequence":24,"prices":[180,165,177,193,186,196,187,169,171,182],"times":[777,1621],"next_num":2,"trial_type":"ticket-choose","trial_index":44,"time_elapsed":797166,"internal_node_id":"0.0-44.0"},{"result":187,"points":0,"place":7,"phase":0,"sequence":25,"prices":[193,173,175,182,179,198,181,171,176,187],"times":[447,434,464,450,464,484,676,801,844,1284],"next_num":10,"trial_type":"ticket-choose","trial_index":45,"time_elapsed":807454,"internal_node_id":"0.0-45.0"},{"result":174,"points":2,"place":1,"phase":0,"sequence":26,"prices":[180,175,173,177,191,190,184,196,174,181],"times":[1017,554,818,644,752,515,1097,746,1534],"next_num":9,"trial_type":"ticket-choose","trial_index":46,"time_elapsed":818978,"internal_node_id":"0.0-46.0"},{"result":169,"points":2,"place":1,"phase":0,"sequence":27,"prices":[174,179,177,194,178,183,169,173,165,184],"times":[2416,976,506,603,1001,609,1847],"next_num":7,"trial_type":"ticket-choose","trial_index":47,"time_elapsed":830069,"internal_node_id":"0.0-47.0"},{"result":157,"points":3,"place":0,"phase":0,"sequence":28,"prices":[157,184,163,174,181,190,168,187,189,177],"times":[1848],"next_num":1,"trial_type":"ticket-choose","trial_index":48,"time_elapsed":833782,"internal_node_id":"0.0-48.0"},{"result":162,"points":3,"place":0,"phase":0,"sequence":29,"prices":[179,174,172,162,202,184,165,197,185,169],"times":[489,504,577,1597],"next_num":4,"trial_type":"ticket-choose","trial_index":49,"time_elapsed":839525,"internal_node_id":"0.0-49.0"},{"result":168,"points":2,"place":1,"phase":0,"sequence":30,"prices":[174,178,176,192,177,181,168,171,163,182],"times":[838,459,588,634,586,676,1941],"next_num":7,"trial_type":"ticket-choose","trial_index":50,"time_elapsed":848309,"internal_node_id":"0.0-50.0"},{"result":157,"points":2,"place":1,"phase":0,"sequence":31,"prices":[188,191,179,157,181,164,166,156,175,182],"times":[369,457,469,1868],"next_num":4,"trial_type":"ticket-choose","trial_index":51,"time_elapsed":853975,"internal_node_id":"0.0-51.0"},{"result":168,"points":2,"place":1,"phase":0,"sequence":32,"prices":[181,175,182,168,183,173,153,170,193,179],"times":[416,434,474,1834],"next_num":4,"trial_type":"ticket-choose","trial_index":52,"time_elapsed":859515,"internal_node_id":"0.0-52.0"},{"result":177,"points":1,"place":2,"phase":0,"sequence":33,"prices":[181,179,199,188,170,172,178,187,191,177],"times":[464,431,427,397,413,494,850,652,711,1254],"next_num":10,"trial_type":"ticket-choose","trial_index":53,"time_elapsed":869307,"internal_node_id":"0.0-53.0"},{"result":169,"points":2,"place":1,"phase":0,"sequence":34,"prices":[175,179,177,193,178,182,169,172,164,183],"times":[465,500,689,630,777,572,1744],"next_num":7,"trial_type":"ticket-choose","trial_index":54,"time_elapsed":877600,"internal_node_id":"0.0-54.0"},{"result":173,"points":1,"place":2,"phase":0,"sequence":35,"prices":[176,180,170,194,179,183,178,173,165,184],"times":[444,457,513,519,454,704,640,2266],"next_num":8,"trial_type":"ticket-choose","trial_index":55,"time_elapsed":886952,"internal_node_id":"0.0-55.0"},{"result":183,"points":1,"place":4,"phase":0,"sequence":36,"prices":[168,188,171,181,184,196,180,194,195,183],"times":[406,463,495,524,462,512,492,953,665,1411],"next_num":10,"trial_type":"ticket-choose","trial_index":56,"time_elapsed":897296,"internal_node_id":"0.0-56.0"},{"result":154,"points":3,"place":0,"phase":0,"sequence":37,"prices":[188,179,154,183,173,170,177,160,169,175],"times":[459,452,1601],"next_num":3,"trial_type":"ticket-choose","trial_index":57,"time_elapsed":901924,"internal_node_id":"0.0-57.0"},{"result":175,"points":1,"place":4,"phase":0,"sequence":38,"prices":[171,180,172,174,179,188,173,183,186,175],"times":[443,401,553,440,454,565,460,626,673,1435],"next_num":10,"trial_type":"ticket-choose","trial_index":58,"time_elapsed":911674,"internal_node_id":"0.0-58.0"},{"result":168,"points":2,"place":1,"phase":0,"sequence":39,"prices":[174,178,168,192,177,181,176,171,163,182],"times":[433,441,1710],"next_num":3,"trial_type":"ticket-choose","trial_index":59,"time_elapsed":916357,"internal_node_id":"0.0-59.0"},{"result":173,"points":1,"place":2,"phase":0,"sequence":40,"prices":[161,180,170,174,178,198,173,182,188,176],"times":[640,848,494,533,490,569,2202],"next_num":7,"trial_type":"ticket-choose","trial_index":60,"time_elapsed":925193,"internal_node_id":"0.0-60.0"},{"result":160,"points":3,"place":0,"phase":0,"sequence":41,"prices":[175,193,175,160,180,170,175,205,177,167],"times":[446,540,395,1940],"next_num":4,"trial_type":"ticket-choose","trial_index":61,"time_elapsed":930872,"internal_node_id":"0.0-61.0"},{"result":166,"points":3,"place":0,"phase":0,"sequence":42,"prices":[175,180,178,195,179,184,170,174,166,185],"times":[1370,490,451,572,505,632,759,843,1629],"next_num":9,"trial_type":"ticket-choose","trial_index":62,"time_elapsed":941536,"internal_node_id":"0.0-62.0"},{"result":150,"points":3,"place":0,"phase":0,"sequence":43,"prices":[175,150,164,155,171,199,158,180,184,196],"times":[760,1680],"next_num":2,"trial_type":"ticket-choose","trial_index":63,"time_elapsed":945875,"internal_node_id":"0.0-63.0"},{"result":169,"points":2,"place":1,"phase":0,"sequence":44,"prices":[174,179,169,194,178,183,177,173,165,184],"times":[830,435,1637],"next_num":3,"trial_type":"ticket-choose","trial_index":64,"time_elapsed":951688,"internal_node_id":"0.0-64.0"},{"result":166,"points":3,"place":0,"phase":0,"sequence":45,"prices":[175,180,178,195,179,184,170,174,166,185],"times":[487,437,504,561,598,621,849,495,1680],"next_num":9,"trial_type":"ticket-choose","trial_index":65,"time_elapsed":961426,"internal_node_id":"0.0-65.0"},{"result":159,"points":3,"place":0,"phase":0,"sequence":46,"prices":[159,178,170,174,176,194,173,182,185,175],"times":[2020],"next_num":1,"trial_type":"ticket-choose","trial_index":66,"time_elapsed":965624,"internal_node_id":"0.0-66.0"},{"result":179,"points":1,"place":4,"phase":0,"sequence":47,"prices":[170,183,172,175,180,189,174,187,188,179],"times":[515,459,450,435,517,474,973,549,826,1043],"next_num":10,"trial_type":"ticket-choose","trial_index":67,"time_elapsed":975575,"internal_node_id":"0.0-67.0"},{"result":165,"points":3,"place":0,"phase":0,"sequence":48,"prices":[176,180,178,194,179,183,170,173,165,184],"times":[467,402,474,704,495,649,615,1244,1698],"next_num":9,"trial_type":"ticket-choose","trial_index":68,"time_elapsed":985864,"internal_node_id":"0.0-68.0"},{"result":168,"points":2,"place":1,"phase":0,"sequence":49,"prices":[173,178,168,193,177,182,176,172,164,183],"times":[980,533,1748],"next_num":3,"trial_type":"ticket-choose","trial_index":69,"time_elapsed":991800,"internal_node_id":"0.0-69.0"},{"responses":[{"value":0,"offby":0,"category":"$140 - $250","category_index":0},{"value":2,"offby":2,"category":"$151 - $160","category_index":1},{"value":4,"offby":0,"category":"$161 - $170","category_index":2},{"value":6,"offby":0,"category":"$171 - $180","category_index":3},{"value":5,"offby":-2,"category":"$181 - $190","category_index":4},{"value":3,"offby":0,"category":"$191 - $200","category_index":5},{"value":0,"offby":0,"category":"$201 - $210","category_index":6}],"phase":0,"number":1,"trial_type":"bar-choose","trial_index":70,"time_elapsed":1024080,"internal_node_id":"0.0-70.0"},{"rt":25033,"url":"\/tickets\/utils\/start2.html","trial_type":"html","trial_index":71,"time_elapsed":1050229,"internal_node_id":"0.0-71.0"},{"trial_type":"number-animation","trial_index":72,"time_elapsed":1063962,"internal_node_id":"0.0-72.0"},{"phase":1,"sequence":0,"avg":166,"response":155,"trial_type":"training_avg","trial_index":73,"time_elapsed":1074045,"internal_node_id":"0.0-73.0"},{"trial_type":"number-animation","trial_index":74,"time_elapsed":1086393,"internal_node_id":"0.0-74.0"},{"phase":1,"sequence":1,"avg":198,"response":165,"trial_type":"training_avg","trial_index":75,"time_elapsed":1098332,"internal_node_id":"0.0-75.0"},{"trial_type":"number-animation","trial_index":76,"time_elapsed":1111788,"internal_node_id":"0.0-76.0"},{"phase":1,"sequence":2,"avg":177,"response":180,"trial_type":"training_avg","trial_index":77,"time_elapsed":1119508,"internal_node_id":"0.0-77.0"},{"trial_type":"number-animation","trial_index":78,"time_elapsed":1129451,"internal_node_id":"0.0-78.0"},{"phase":1,"sequence":3,"avg":190,"response":167,"trial_type":"training_avg","trial_index":79,"time_elapsed":1136671,"internal_node_id":"0.0-79.0"},{"trial_type":"number-animation","trial_index":80,"time_elapsed":1148288,"internal_node_id":"0.0-80.0"},{"phase":1,"sequence":4,"avg":201,"response":184,"trial_type":"training_avg","trial_index":81,"time_elapsed":1155283,"internal_node_id":"0.0-81.0"},{"responses":[{"value":1,"offby":0,"category":"$30 - $75","category_index":0},{"value":2,"offby":0,"category":"$76 - $120","category_index":1},{"value":4,"offby":0,"category":"$121 - $165","category_index":2},{"value":4,"offby":-2,"category":"$166 - $210","category_index":3},{"value":6,"offby":0,"category":"$211 - $255","category_index":4},{"value":3,"offby":2,"category":"$256 - $300","category_index":5},{"value":0,"offby":0,"category":"$301 - $345","category_index":6}],"phase":1,"number":0,"trial_type":"bar-choose","trial_index":82,"time_elapsed":1196232,"internal_node_id":"0.0-82.0"},{"rt":9731,"url":"\/tickets\/utils\/testing2.html","trial_type":"html","trial_index":83,"time_elapsed":1207066,"internal_node_id":"0.0-83.0"},{"phase":1,"order":[37,26,5,13,44,8,19,46,23,39,0,48,14,18,12,2,36,34,21,31,3,41,30,47,17,35,38,40,32,49,25,29,28,15,6,27,4,45,42,16,22,24,1,33,9,20,11,43,10,7],"trial_type":"store_order","trial_index":84,"time_elapsed":1208070,"internal_node_id":"0.0-84.0"},{"result":156,"points":1,"place":4,"phase":1,"sequence":0,"prices":[186,156,191,120,195,145,45,130,246,176],"times":[27231,1811],"next_num":2,"trial_type":"ticket-choose","trial_index":85,"time_elapsed":1240578,"internal_node_id":"0.0-85.0"},{"result":105,"points":3,"place":0,"phase":1,"sequence":1,"prices":[105,216,146,165,210,260,161,235,241,185],"times":[2803],"next_num":1,"trial_type":"ticket-choose","trial_index":86,"time_elapsed":1245544,"internal_node_id":"0.0-86.0"},{"result":126,"points":2,"place":1,"phase":1,"sequence":2,"prices":[156,176,165,246,171,190,126,141,101,196],"times":[736,563,722,701,732,648,1623],"next_num":7,"trial_type":"ticket-choose","trial_index":87,"time_elapsed":1254556,"internal_node_id":"0.0-87.0"},{"result":131,"points":2,"place":1,"phase":1,"sequence":3,"prices":[160,180,170,251,176,195,131,146,105,200],"times":[566,506,500,585,536,923,1836],"next_num":7,"trial_type":"ticket-choose","trial_index":88,"time_elapsed":1263083,"internal_node_id":"0.0-88.0"},{"result":30,"points":3,"place":0,"phase":1,"sequence":4,"prices":[155,30,101,55,136,276,70,181,200,261],"times":[818,1770],"next_num":2,"trial_type":"ticket-choose","trial_index":89,"time_elapsed":1267873,"internal_node_id":"0.0-89.0"},{"result":131,"points":2,"place":1,"phase":1,"sequence":5,"prices":[161,180,131,251,175,196,171,146,105,201],"times":[479,476,1731],"next_num":3,"trial_type":"ticket-choose","trial_index":90,"time_elapsed":1272882,"internal_node_id":"0.0-90.0"},{"result":121,"points":2,"place":1,"phase":1,"sequence":6,"prices":[146,170,121,245,166,190,161,141,100,195],"times":[482,499,1489],"next_num":3,"trial_type":"ticket-choose","trial_index":91,"time_elapsed":1277566,"internal_node_id":"0.0-91.0"},{"result":111,"points":3,"place":0,"phase":1,"sequence":7,"prices":[175,211,266,286,111,216,220,245,230,165],"times":[1413,541,514,513,2011],"next_num":5,"trial_type":"ticket-choose","trial_index":92,"time_elapsed":1285247,"internal_node_id":"0.0-92.0"},{"result":120,"points":2,"place":1,"phase":1,"sequence":8,"prices":[145,170,160,245,165,190,120,141,100,195],"times":[656,440,543,599,854,497,1794],"next_num":7,"trial_type":"ticket-choose","trial_index":93,"time_elapsed":1293771,"internal_node_id":"0.0-93.0"},{"result":136,"points":1,"place":2,"phase":1,"sequence":9,"prices":[255,166,266,175,136,145,155,61,96,301],"times":[542,13197,499,590,2184],"next_num":5,"trial_type":"ticket-choose","trial_index":94,"time_elapsed":1313469,"internal_node_id":"0.0-94.0"},{"result":140,"points":1,"place":2,"phase":1,"sequence":10,"prices":[156,175,126,246,170,190,165,140,100,196],"times":[394,422,851,478,618,450,911,2104],"next_num":8,"trial_type":"ticket-choose","trial_index":95,"time_elapsed":1323000,"internal_node_id":"0.0-95.0"},{"result":136,"points":3,"place":0,"phase":1,"sequence":11,"prices":[246,145,155,191,176,270,185,136,160,215],"times":[584,850,635,519,575,518,540,1799],"next_num":8,"trial_type":"ticket-choose","trial_index":96,"time_elapsed":1332340,"internal_node_id":"0.0-96.0"},{"result":130,"points":2,"place":1,"phase":1,"sequence":12,"prices":[155,181,170,255,176,200,130,150,110,205],"times":[533,461,449,522,838,576,2336],"next_num":7,"trial_type":"ticket-choose","trial_index":97,"time_elapsed":1341038,"internal_node_id":"0.0-97.0"},{"result":120,"points":2,"place":1,"phase":1,"sequence":13,"prices":[146,171,120,245,165,191,160,140,100,196],"times":[1377,432,1579],"next_num":3,"trial_type":"ticket-choose","trial_index":98,"time_elapsed":1346557,"internal_node_id":"0.0-98.0"},{"result":131,"points":2,"place":1,"phase":1,"sequence":14,"prices":[161,180,171,250,176,195,131,146,105,201],"times":[924,496,3311,632,580,525,1827],"next_num":7,"trial_type":"ticket-choose","trial_index":99,"time_elapsed":1357846,"internal_node_id":"0.0-99.0"},{"result":126,"points":2,"place":1,"phase":1,"sequence":15,"prices":[151,176,126,251,170,196,165,145,105,201],"times":[395,447,2038],"next_num":3,"trial_type":"ticket-choose","trial_index":100,"time_elapsed":1362864,"internal_node_id":"0.0-100.0"},{"result":120,"points":2,"place":1,"phase":1,"sequence":16,"prices":[226,205,125,120,115,135,180,145,150,220],"times":[467,482,999,1779],"next_num":4,"trial_type":"ticket-choose","trial_index":101,"time_elapsed":1368997,"internal_node_id":"0.0-101.0"},{"result":106,"points":2,"place":1,"phase":1,"sequence":17,"prices":[185,180,235,210,106,266,76,115,250,205],"times":[394,470,584,609,1785],"next_num":5,"trial_type":"ticket-choose","trial_index":102,"time_elapsed":1375571,"internal_node_id":"0.0-102.0"},{"result":120,"points":2,"place":1,"phase":1,"sequence":18,"prices":[150,170,160,241,166,186,120,136,96,191],"times":[406,445,514,509,566,493,2075],"next_num":7,"trial_type":"ticket-choose","trial_index":103,"time_elapsed":1383630,"internal_node_id":"0.0-103.0"},{"result":66,"points":3,"place":0,"phase":1,"sequence":19,"prices":[66,201,96,150,185,230,121,216,225,165],"times":[1913],"next_num":1,"trial_type":"ticket-choose","trial_index":104,"time_elapsed":1387490,"internal_node_id":"0.0-104.0"},{"result":126,"points":2,"place":1,"phase":1,"sequence":20,"prices":[150,176,126,251,171,195,165,145,105,200],"times":[645,573,1753],"next_num":3,"trial_type":"ticket-choose","trial_index":105,"time_elapsed":1392611,"internal_node_id":"0.0-105.0"},{"result":106,"points":3,"place":0,"phase":1,"sequence":21,"prices":[180,106,166,245,211,261,215,125,135,190],"times":[379,1846],"next_num":2,"trial_type":"ticket-choose","trial_index":106,"time_elapsed":1396872,"internal_node_id":"0.0-106.0"},{"result":81,"points":3,"place":0,"phase":1,"sequence":22,"prices":[81,205,130,151,191,261,145,210,250,165],"times":[1733],"next_num":1,"trial_type":"ticket-choose","trial_index":107,"time_elapsed":1400326,"internal_node_id":"0.0-107.0"},{"result":185,"points":0,"place":5,"phase":1,"sequence":23,"prices":[181,156,145,165,236,231,201,260,150,185],"times":[693,470,852,592,583,477,797,473,1364,1277],"next_num":10,"trial_type":"ticket-choose","trial_index":108,"time_elapsed":1411822,"internal_node_id":"0.0-108.0"},{"result":120,"points":2,"place":1,"phase":1,"sequence":24,"prices":[150,171,120,241,165,185,160,135,96,190],"times":[502,441,1752],"next_num":3,"trial_type":"ticket-choose","trial_index":109,"time_elapsed":1416607,"internal_node_id":"0.0-109.0"},{"result":51,"points":3,"place":0,"phase":1,"sequence":25,"prices":[221,175,51,196,146,130,166,80,126,156],"times":[673,633,1787],"next_num":3,"trial_type":"ticket-choose","trial_index":110,"time_elapsed":1421990,"internal_node_id":"0.0-110.0"},{"result":130,"points":3,"place":0,"phase":1,"sequence":26,"prices":[185,175,276,221,130,141,171,216,235,165],"times":[470,524,516,605,1689],"next_num":5,"trial_type":"ticket-choose","trial_index":111,"time_elapsed":1428338,"internal_node_id":"0.0-111.0"},{"result":116,"points":3,"place":0,"phase":1,"sequence":27,"prices":[176,150,276,171,261,116,130,201,166,231],"times":[681,742,442,505,626,1711],"next_num":6,"trial_type":"ticket-choose","trial_index":112,"time_elapsed":1435771,"internal_node_id":"0.0-112.0"},{"result":155,"points":1,"place":4,"phase":1,"sequence":28,"prices":[135,180,141,151,175,220,145,196,211,155],"times":[714,552,1018,497,480,607,1002,522,1419,1136],"next_num":10,"trial_type":"ticket-choose","trial_index":113,"time_elapsed":1447358,"internal_node_id":"0.0-113.0"},{"result":130,"points":2,"place":1,"phase":1,"sequence":29,"prices":[155,225,245,130,176,106,180,211,165,200],"times":[545,450,491,1645],"next_num":4,"trial_type":"ticket-choose","trial_index":114,"time_elapsed":1452780,"internal_node_id":"0.0-114.0"},{"result":106,"points":2,"place":1,"phase":1,"sequence":30,"prices":[95,205,106,151,186,271,145,210,215,181],"times":[502,567,1793],"next_num":3,"trial_type":"ticket-choose","trial_index":115,"time_elapsed":1457815,"internal_node_id":"0.0-115.0"},{"result":150,"points":1,"place":4,"phase":1,"sequence":31,"prices":[111,231,131,146,171,295,141,241,271,150],"times":[533,463,622,499,503,709,684,653,575,1309],"next_num":10,"trial_type":"ticket-choose","trial_index":116,"time_elapsed":1467952,"internal_node_id":"0.0-116.0"},{"result":75,"points":3,"place":0,"phase":1,"sequence":32,"prices":[75,171,131,151,161,250,145,190,206,156],"times":[1546],"next_num":1,"trial_type":"ticket-choose","trial_index":117,"time_elapsed":1471268,"internal_node_id":"0.0-117.0"},{"result":131,"points":2,"place":1,"phase":1,"sequence":33,"prices":[156,181,171,256,175,200,131,150,110,206],"times":[929,1108,468,578,511,525,1511],"next_num":7,"trial_type":"ticket-choose","trial_index":118,"time_elapsed":1479818,"internal_node_id":"0.0-118.0"},{"result":126,"points":2,"place":1,"phase":1,"sequence":34,"prices":[150,175,166,251,170,196,126,145,105,201],"times":[500,491,489,487,475,473,1838],"next_num":7,"trial_type":"ticket-choose","trial_index":119,"time_elapsed":1487450,"internal_node_id":"0.0-119.0"},{"result":196,"points":1,"place":4,"phase":1,"sequence":35,"prices":[120,221,135,185,200,261,181,251,255,196],"times":[1310,517,688,536,612,569,655,604,645,1143],"next_num":10,"trial_type":"ticket-choose","trial_index":120,"time_elapsed":1498463,"internal_node_id":"0.0-120.0"},{"result":125,"points":2,"place":1,"phase":1,"sequence":36,"prices":[155,175,166,245,171,190,125,140,101,196],"times":[488,450,525,594,693,1223,1627],"next_num":7,"trial_type":"ticket-choose","trial_index":121,"time_elapsed":1507094,"internal_node_id":"0.0-121.0"},{"result":91,"points":3,"place":0,"phase":1,"sequence":37,"prices":[176,150,141,91,290,201,106,266,206,126],"times":[466,445,721,1780],"next_num":4,"trial_type":"ticket-choose","trial_index":122,"time_elapsed":1513188,"internal_node_id":"0.0-122.0"},{"result":81,"points":3,"place":0,"phase":1,"sequence":38,"prices":[155,245,155,81,180,130,156,306,166,115],"times":[762,729,673,1508],"next_num":4,"trial_type":"ticket-choose","trial_index":123,"time_elapsed":1519100,"internal_node_id":"0.0-123.0"},{"result":121,"points":2,"place":1,"phase":1,"sequence":39,"prices":[150,171,121,241,165,185,160,136,95,191],"times":[870,448,1552],"next_num":3,"trial_type":"ticket-choose","trial_index":124,"time_elapsed":1524125,"internal_node_id":"0.0-124.0"},{"result":120,"points":2,"place":1,"phase":1,"sequence":40,"prices":[145,171,161,245,165,191,120,140,100,196],"times":[512,494,440,644,1094,574,1968],"next_num":7,"trial_type":"ticket-choose","trial_index":125,"time_elapsed":1532813,"internal_node_id":"0.0-125.0"},{"result":86,"points":3,"place":0,"phase":1,"sequence":41,"prices":[86,180,130,151,170,271,145,191,220,160],"times":[1782],"next_num":1,"trial_type":"ticket-choose","trial_index":126,"time_elapsed":1536347,"internal_node_id":"0.0-126.0"},{"result":125,"points":2,"place":1,"phase":1,"sequence":42,"prices":[156,175,125,245,170,190,165,140,101,196],"times":[636,478,1745],"next_num":3,"trial_type":"ticket-choose","trial_index":127,"time_elapsed":1541536,"internal_node_id":"0.0-127.0"},{"result":175,"points":1,"place":4,"phase":1,"sequence":43,"prices":[130,195,141,155,181,226,150,216,221,175],"times":[717,469,561,476,505,525,655,546,598,1144],"next_num":10,"trial_type":"ticket-choose","trial_index":128,"time_elapsed":1551335,"internal_node_id":"0.0-128.0"},{"result":130,"points":2,"place":1,"phase":1,"sequence":44,"prices":[160,180,130,251,176,195,170,146,105,200],"times":[790,470,1720],"next_num":3,"trial_type":"ticket-choose","trial_index":129,"time_elapsed":1556516,"internal_node_id":"0.0-129.0"},{"result":121,"points":2,"place":1,"phase":1,"sequence":45,"prices":[150,170,160,240,166,185,121,136,95,191],"times":[524,417,487,517,685,515,2065],"next_num":7,"trial_type":"ticket-choose","trial_index":130,"time_elapsed":1564692,"internal_node_id":"0.0-130.0"},{"result":130,"points":2,"place":1,"phase":1,"sequence":46,"prices":[156,181,130,255,175,200,170,150,111,205],"times":[832,469,1563],"next_num":3,"trial_type":"ticket-choose","trial_index":131,"time_elapsed":1569646,"internal_node_id":"0.0-131.0"},{"result":65,"points":2,"place":1,"phase":1,"sequence":47,"prices":[220,236,176,65,185,101,110,61,156,191],"times":[1903,547,832,1560],"next_num":4,"trial_type":"ticket-choose","trial_index":132,"time_elapsed":1576741,"internal_node_id":"0.0-132.0"},{"result":151,"points":1,"place":2,"phase":1,"sequence":48,"prices":[156,181,131,256,176,200,171,151,111,206],"times":[788,453,790,506,689,533,501,2397],"next_num":8,"trial_type":"ticket-choose","trial_index":133,"time_elapsed":1586715,"internal_node_id":"0.0-133.0"},{"result":126,"points":2,"place":1,"phase":1,"sequence":49,"prices":[151,175,166,251,170,195,126,146,105,201],"times":[473,507,488,559,674,479,1568],"next_num":7,"trial_type":"ticket-choose","trial_index":134,"time_elapsed":1594465,"internal_node_id":"0.0-134.0"},{"responses":[{"value":2,"offby":1,"category":"$30 - $75","category_index":0},{"value":3,"offby":1,"category":"$76 - $120","category_index":1},{"value":5,"offby":1,"category":"$121 - $165","category_index":2},{"value":6,"offby":0,"category":"$166 - $210","category_index":3},{"value":4,"offby":-2,"category":"$211 - $255","category_index":4},{"value":0,"offby":-1,"category":"$256 - $300","category_index":5},{"value":0,"offby":0,"category":"$301 - $345","category_index":6}],"phase":1,"number":1,"trial_type":"bar-choose","trial_index":135,"time_elapsed":1634691,"internal_node_id":"0.0-135.0"},{"special_comment":"Idon't think so.","trial_type":"special_sequence","trial_index":136,"time_elapsed":1642829,"internal_node_id":"0.0-136.0"},{"during":"Nothing","bonus":284,"trial_type":"final","trial_index":137,"time_elapsed":1665534,"internal_node_id":"0.0-137.0"}],"bonus":284}