{"start_time":"2017-02-27 10:47:44","end_time":"2017-02-27 11:10:44","points_phase0":103,"points_phase1":100,"phase_order":0,"age":38,"gender":"m","tries":1,"during":"Nothing","worker_id":"A9QYAH5BONH1W","assignment_id":"3Q5C1WP23NUSAEHRVPN3TPVT3IC513","data":[{"rt":5244,"url":"\/tickets\/utils\/consent.html","trial_type":"html","trial_index":0,"time_elapsed":6324,"internal_node_id":"0.0-0.0"},{"age":38,"gender":"m","trial_type":"age","trial_index":1,"time_elapsed":11595,"internal_node_id":"0.0-1.0"},{"worker_id":"A9QYAH5BONH1W","trial_type":"workerid","trial_index":2,"time_elapsed":105767,"internal_node_id":"0.0-2.0"},{"tries":1,"trial_type":"instructions_check","trial_index":3,"time_elapsed":269285,"internal_node_id":"0.0-3.0"},{"rt":7296,"url":"\/tickets\/utils\/start.html","trial_type":"html","trial_index":4,"time_elapsed":277985,"internal_node_id":"0.0-4.0"},{"trial_type":"number-animation","trial_index":5,"time_elapsed":288265,"internal_node_id":"0.0-5.0"},{"phase":0,"sequence":0,"avg":180,"response":179,"trial_type":"training_avg","trial_index":6,"time_elapsed":301657,"internal_node_id":"0.0-6.0"},{"trial_type":"number-animation","trial_index":7,"time_elapsed":308129,"internal_node_id":"0.0-7.0"},{"phase":0,"sequence":1,"avg":178,"response":175,"trial_type":"training_avg","trial_index":8,"time_elapsed":317913,"internal_node_id":"0.0-8.0"},{"trial_type":"number-animation","trial_index":9,"time_elapsed":325656,"internal_node_id":"0.0-9.0"},{"phase":0,"sequence":2,"avg":176,"response":180,"trial_type":"training_avg","trial_index":10,"time_elapsed":331205,"internal_node_id":"0.0-10.0"},{"trial_type":"number-animation","trial_index":11,"time_elapsed":338693,"internal_node_id":"0.0-11.0"},{"phase":0,"sequence":3,"avg":178,"response":185,"trial_type":"training_avg","trial_index":12,"time_elapsed":344861,"internal_node_id":"0.0-12.0"},{"trial_type":"number-animation","trial_index":13,"time_elapsed":351598,"internal_node_id":"0.0-13.0"},{"phase":0,"sequence":4,"avg":179,"response":175,"trial_type":"training_avg","trial_index":14,"time_elapsed":356341,"internal_node_id":"0.0-14.0"},{"responses":[{"value":0,"offby":0,"category":"$140 - $250","category_index":0},{"value":0,"offby":0,"category":"$151 - $160","category_index":1},{"value":5,"offby":1,"category":"$161 - $170","category_index":2},{"value":5,"offby":-1,"category":"$171 - $180","category_index":3},{"value":5,"offby":-2,"category":"$181 - $190","category_index":4},{"value":5,"offby":2,"category":"$191 - $200","category_index":5},{"value":0,"offby":0,"category":"$201 - $210","category_index":6}],"phase":0,"number":0,"trial_type":"bar-choose","trial_index":15,"time_elapsed":397660,"internal_node_id":"0.0-15.0"},{"rt":19733,"url":"\/tickets\/\/utils\/testing.html","trial_type":"html","trial_index":16,"time_elapsed":419091,"internal_node_id":"0.0-16.0"},{"phase":0,"order":[3,31,20,19,44,34,33,7,2,14,32,28,26,6,16,42,30,48,27,5,25,37,41,8,24,23,12,0,17,45,29,47,43,18,9,1,36,35,22,13,10,39,49,4,15,21,38,40,11,46],"trial_type":"store_order","trial_index":17,"time_elapsed":420091,"internal_node_id":"0.0-17.0"},{"result":165,"points":2,"place":1,"phase":0,"sequence":-1,"prices":[184,180,224,165,181,199,185,193,218,126],"times":[4864,1269,815,968],"next_num":4,"trial_type":"ticket-choose","trial_index":18,"time_elapsed":431058,"internal_node_id":"0.0-18.0"},{"rt":21383,"url":"\/tickets\/utils\/testing_after.html","trial_type":"html","trial_index":19,"time_elapsed":453854,"internal_node_id":"0.0-19.0"},{"result":169,"points":2,"place":1,"phase":0,"sequence":0,"prices":[174,179,169,194,178,183,177,173,165,184],"times":[2231,990,2320],"next_num":3,"trial_type":"ticket-choose","trial_index":20,"time_elapsed":462933,"internal_node_id":"0.0-20.0"},{"result":168,"points":1,"place":2,"phase":0,"sequence":1,"prices":[157,184,163,174,181,190,168,187,189,177],"times":[1131,503,815,544,547,520,1207],"next_num":7,"trial_type":"ticket-choose","trial_index":21,"time_elapsed":472102,"internal_node_id":"0.0-21.0"},{"result":168,"points":2,"place":1,"phase":0,"sequence":2,"prices":[174,178,176,192,177,181,168,171,163,182],"times":[1005,429,416,528,472,599,1047],"next_num":7,"trial_type":"ticket-choose","trial_index":22,"time_elapsed":479870,"internal_node_id":"0.0-22.0"},{"result":164,"points":3,"place":0,"phase":0,"sequence":3,"prices":[173,178,168,193,177,182,176,172,164,183],"times":[1062,519,423,359,606,508,560,576,776],"next_num":9,"trial_type":"ticket-choose","trial_index":23,"time_elapsed":489918,"internal_node_id":"0.0-23.0"},{"result":164,"points":1,"place":3,"phase":0,"sequence":4,"prices":[175,150,164,155,171,199,158,180,184,196],"times":[1253,559,2287],"next_num":3,"trial_type":"ticket-choose","trial_index":24,"time_elapsed":496662,"internal_node_id":"0.0-24.0"},{"result":165,"points":2,"place":1,"phase":0,"sequence":5,"prices":[181,180,191,186,165,197,159,167,194,185],"times":[860,536,574,767,815],"next_num":5,"trial_type":"ticket-choose","trial_index":25,"time_elapsed":502926,"internal_node_id":"0.0-25.0"},{"result":174,"points":1,"place":2,"phase":0,"sequence":6,"prices":[170,183,172,175,180,189,174,187,188,179],"times":[449,786,616,526,600,600,783],"next_num":7,"trial_type":"ticket-choose","trial_index":26,"time_elapsed":510390,"internal_node_id":"0.0-26.0"},{"result":169,"points":2,"place":1,"phase":0,"sequence":7,"prices":[174,179,177,194,178,183,169,173,165,184],"times":[484,511,759,660,527,687,775],"next_num":7,"trial_type":"ticket-choose","trial_index":27,"time_elapsed":517882,"internal_node_id":"0.0-27.0"},{"result":169,"points":2,"place":1,"phase":0,"sequence":8,"prices":[174,179,169,194,178,183,177,173,165,184],"times":[734,478,822],"next_num":3,"trial_type":"ticket-choose","trial_index":28,"time_elapsed":522083,"internal_node_id":"0.0-28.0"},{"result":179,"points":0,"place":5,"phase":0,"sequence":9,"prices":[175,180,178,195,179,184,170,174,166,185],"times":[468,607,816,600,1447],"next_num":5,"trial_type":"ticket-choose","trial_index":29,"time_elapsed":529171,"internal_node_id":"0.0-29.0"},{"result":175,"points":1,"place":4,"phase":0,"sequence":10,"prices":[171,180,172,174,179,188,173,183,186,175],"times":[586,496,919,551,538,559,558,895,873,1063],"next_num":10,"trial_type":"ticket-choose","trial_index":30,"time_elapsed":540251,"internal_node_id":"0.0-30.0"},{"result":159,"points":3,"place":0,"phase":0,"sequence":11,"prices":[159,178,170,174,176,194,173,182,185,175],"times":[894],"next_num":1,"trial_type":"ticket-choose","trial_index":31,"time_elapsed":543515,"internal_node_id":"0.0-31.0"},{"result":165,"points":3,"place":0,"phase":0,"sequence":12,"prices":[165,187,173,177,186,196,176,191,192,181],"times":[790],"next_num":1,"trial_type":"ticket-choose","trial_index":32,"time_elapsed":546595,"internal_node_id":"0.0-32.0"},{"result":169,"points":2,"place":1,"phase":0,"sequence":13,"prices":[174,179,177,194,178,183,169,173,165,184],"times":[1883,623,655,623,534,615,815],"next_num":7,"trial_type":"ticket-choose","trial_index":33,"time_elapsed":555499,"internal_node_id":"0.0-33.0"},{"result":168,"points":2,"place":1,"phase":0,"sequence":14,"prices":[174,178,168,192,177,181,176,171,163,182],"times":[1316,520,800],"next_num":3,"trial_type":"ticket-choose","trial_index":34,"time_elapsed":560491,"internal_node_id":"0.0-34.0"},{"result":160,"points":3,"place":0,"phase":0,"sequence":15,"prices":[175,193,175,160,180,170,175,205,177,167],"times":[917,608,1862,703],"next_num":4,"trial_type":"ticket-choose","trial_index":35,"time_elapsed":567179,"internal_node_id":"0.0-35.0"},{"result":177,"points":1,"place":4,"phase":0,"sequence":16,"prices":[160,185,170,174,182,196,173,186,194,177],"times":[486,525,527,551,551,488,1063,595,776,824],"next_num":10,"trial_type":"ticket-choose","trial_index":36,"time_elapsed":577375,"internal_node_id":"0.0-36.0"},{"result":171,"points":3,"place":0,"phase":0,"sequence":17,"prices":[193,173,175,182,179,198,181,171,176,187],"times":[535,1392,942,567,919,541,599,882],"next_num":8,"trial_type":"ticket-choose","trial_index":37,"time_elapsed":587630,"internal_node_id":"0.0-37.0"},{"result":168,"points":3,"place":0,"phase":0,"sequence":18,"prices":[168,188,171,181,184,196,180,194,195,183],"times":[1835],"next_num":1,"trial_type":"ticket-choose","trial_index":38,"time_elapsed":591544,"internal_node_id":"0.0-38.0"},{"result":169,"points":2,"place":1,"phase":0,"sequence":19,"prices":[175,179,177,193,178,182,169,172,164,183],"times":[1490,550,999,587,911,632,846],"next_num":7,"trial_type":"ticket-choose","trial_index":39,"time_elapsed":600711,"internal_node_id":"0.0-39.0"},{"result":163,"points":3,"place":0,"phase":0,"sequence":20,"prices":[163,185,165,174,181,198,173,186,187,180],"times":[1189],"next_num":1,"trial_type":"ticket-choose","trial_index":40,"time_elapsed":603822,"internal_node_id":"0.0-40.0"},{"result":153,"points":3,"place":0,"phase":0,"sequence":21,"prices":[181,175,182,168,183,173,153,170,193,179],"times":[733,791,625,1111,623,576,808],"next_num":7,"trial_type":"ticket-choose","trial_index":41,"time_elapsed":612391,"internal_node_id":"0.0-41.0"},{"result":165,"points":3,"place":0,"phase":0,"sequence":22,"prices":[180,165,177,193,186,196,187,169,171,182],"times":[942,784],"next_num":2,"trial_type":"ticket-choose","trial_index":42,"time_elapsed":616063,"internal_node_id":"0.0-42.0"},{"result":173,"points":1,"place":2,"phase":0,"sequence":23,"prices":[176,180,170,194,179,183,178,173,165,184],"times":[987,623,583,527,608,742,551,1159],"next_num":8,"trial_type":"ticket-choose","trial_index":43,"time_elapsed":625223,"internal_node_id":"0.0-43.0"},{"result":176,"points":1,"place":4,"phase":0,"sequence":24,"prices":[161,180,170,174,178,198,173,182,188,176],"times":[500,488,480,591,488,591,607,710,575,1116],"next_num":10,"trial_type":"ticket-choose","trial_index":44,"time_elapsed":635164,"internal_node_id":"0.0-44.0"},{"result":168,"points":2,"place":1,"phase":0,"sequence":25,"prices":[173,178,176,193,177,182,168,172,164,183],"times":[1501,823,823,615,607,640,832],"next_num":7,"trial_type":"ticket-choose","trial_index":45,"time_elapsed":644109,"internal_node_id":"0.0-45.0"},{"result":170,"points":2,"place":1,"phase":0,"sequence":26,"prices":[176,180,178,194,179,183,170,173,165,184],"times":[988,616,808,559,623,535,1960],"next_num":7,"trial_type":"ticket-choose","trial_index":46,"time_elapsed":653276,"internal_node_id":"0.0-46.0"},{"result":169,"points":2,"place":1,"phase":0,"sequence":27,"prices":[175,179,169,193,178,182,177,172,164,183],"times":[450,519,751],"next_num":3,"trial_type":"ticket-choose","trial_index":47,"time_elapsed":657269,"internal_node_id":"0.0-47.0"},{"result":168,"points":2,"place":1,"phase":0,"sequence":28,"prices":[174,178,168,192,177,181,176,171,163,182],"times":[451,510,786],"next_num":3,"trial_type":"ticket-choose","trial_index":48,"time_elapsed":661287,"internal_node_id":"0.0-48.0"},{"result":162,"points":3,"place":0,"phase":0,"sequence":29,"prices":[179,174,172,162,202,184,165,197,185,169],"times":[471,535,487,776],"next_num":4,"trial_type":"ticket-choose","trial_index":49,"time_elapsed":665988,"internal_node_id":"0.0-49.0"},{"result":174,"points":1,"place":4,"phase":0,"sequence":30,"prices":[166,190,170,173,178,203,172,192,198,174],"times":[478,520,511,951,591,767,575,711,1335,743],"next_num":10,"trial_type":"ticket-choose","trial_index":50,"time_elapsed":676878,"internal_node_id":"0.0-50.0"},{"result":175,"points":1,"place":2,"phase":0,"sequence":31,"prices":[180,175,173,177,191,190,184,196,174,181],"times":[1146,847],"next_num":2,"trial_type":"ticket-choose","trial_index":51,"time_elapsed":680876,"internal_node_id":"0.0-51.0"},{"result":157,"points":2,"place":1,"phase":0,"sequence":32,"prices":[188,191,179,157,181,164,166,156,175,182],"times":[701,559,904,768],"next_num":4,"trial_type":"ticket-choose","trial_index":52,"time_elapsed":686325,"internal_node_id":"0.0-52.0"},{"result":168,"points":2,"place":1,"phase":0,"sequence":33,"prices":[173,178,168,193,177,182,176,172,164,183],"times":[680,599,1359],"next_num":3,"trial_type":"ticket-choose","trial_index":53,"time_elapsed":691180,"internal_node_id":"0.0-53.0"},{"result":165,"points":3,"place":0,"phase":0,"sequence":34,"prices":[176,180,170,194,179,183,178,173,165,184],"times":[1356,524,1073,584,862,616,768,584,832],"next_num":9,"trial_type":"ticket-choose","trial_index":54,"time_elapsed":701946,"internal_node_id":"0.0-54.0"},{"result":164,"points":3,"place":0,"phase":0,"sequence":35,"prices":[175,179,169,193,178,182,177,172,164,183],"times":[1546,543,1056,644,535,631,695,694,815],"next_num":9,"trial_type":"ticket-choose","trial_index":55,"time_elapsed":712498,"internal_node_id":"0.0-55.0"},{"result":169,"points":1,"place":2,"phase":0,"sequence":36,"prices":[189,185,169,168,167,171,180,173,174,188],"times":[850,552,1402],"next_num":3,"trial_type":"ticket-choose","trial_index":56,"time_elapsed":717713,"internal_node_id":"0.0-56.0"},{"result":154,"points":3,"place":0,"phase":0,"sequence":37,"prices":[188,179,154,183,173,170,177,160,169,175],"times":[716,591,744],"next_num":3,"trial_type":"ticket-choose","trial_index":57,"time_elapsed":721930,"internal_node_id":"0.0-57.0"},{"result":168,"points":2,"place":1,"phase":0,"sequence":38,"prices":[173,178,176,193,177,182,168,172,164,183],"times":[737,527,527,543,527,639,959],"next_num":7,"trial_type":"ticket-choose","trial_index":58,"time_elapsed":729497,"internal_node_id":"0.0-58.0"},{"result":165,"points":3,"place":0,"phase":0,"sequence":39,"prices":[176,180,178,194,179,183,170,173,165,184],"times":[886,583,487,591,580,635,600,439,760],"next_num":9,"trial_type":"ticket-choose","trial_index":59,"time_elapsed":738425,"internal_node_id":"0.0-59.0"},{"result":174,"points":1,"place":2,"phase":0,"sequence":40,"prices":[175,180,170,195,179,184,178,174,166,185],"times":[604,567,511,559,447,583,511,1223],"next_num":8,"trial_type":"ticket-choose","trial_index":60,"time_elapsed":746640,"internal_node_id":"0.0-60.0"},{"result":156,"points":3,"place":0,"phase":0,"sequence":41,"prices":[195,177,197,179,171,173,175,156,163,204],"times":[587,3936,497,519,563,574,504,839],"next_num":8,"trial_type":"ticket-choose","trial_index":61,"time_elapsed":757837,"internal_node_id":"0.0-61.0"},{"result":165,"points":3,"place":0,"phase":0,"sequence":42,"prices":[175,189,193,170,179,165,180,186,177,184],"times":[492,446,551,519,463,783],"next_num":6,"trial_type":"ticket-choose","trial_index":62,"time_elapsed":763900,"internal_node_id":"0.0-62.0"},{"result":169,"points":2,"place":1,"phase":0,"sequence":43,"prices":[175,179,177,193,178,182,169,172,164,183],"times":[702,521,476,463,520,600,760],"next_num":7,"trial_type":"ticket-choose","trial_index":63,"time_elapsed":770901,"internal_node_id":"0.0-63.0"},{"result":170,"points":2,"place":1,"phase":0,"sequence":44,"prices":[175,180,178,195,179,184,170,174,166,185],"times":[642,584,511,440,671,716,944],"next_num":7,"trial_type":"ticket-choose","trial_index":64,"time_elapsed":778364,"internal_node_id":"0.0-64.0"},{"result":168,"points":2,"place":1,"phase":0,"sequence":45,"prices":[174,178,176,192,177,181,168,171,163,182],"times":[594,471,494,591,536,752,776],"next_num":7,"trial_type":"ticket-choose","trial_index":65,"time_elapsed":785598,"internal_node_id":"0.0-65.0"},{"result":177,"points":1,"place":2,"phase":0,"sequence":46,"prices":[181,179,199,188,170,172,178,187,191,177],"times":[920,496,488,504,712,687,519,662,910,792],"next_num":10,"trial_type":"ticket-choose","trial_index":66,"time_elapsed":796229,"internal_node_id":"0.0-66.0"},{"result":167,"points":3,"place":0,"phase":0,"sequence":47,"prices":[179,174,199,178,196,167,170,184,177,190],"times":[1009,679,489,799,535,775],"next_num":6,"trial_type":"ticket-choose","trial_index":67,"time_elapsed":803229,"internal_node_id":"0.0-67.0"},{"result":174,"points":1,"place":2,"phase":0,"sequence":48,"prices":[175,180,170,195,179,184,178,174,166,185],"times":[724,503,520,615,944,639,1279,911],"next_num":8,"trial_type":"ticket-choose","trial_index":68,"time_elapsed":812516,"internal_node_id":"0.0-68.0"},{"result":166,"points":3,"place":0,"phase":0,"sequence":49,"prices":[179,186,197,201,166,187,188,193,190,177],"times":[825,543,550,624,1081],"next_num":5,"trial_type":"ticket-choose","trial_index":69,"time_elapsed":818898,"internal_node_id":"0.0-69.0"},{"responses":[{"value":0,"offby":0,"category":"$140 - $250","category_index":0},{"value":0,"offby":0,"category":"$151 - $160","category_index":1},{"value":5,"offby":1,"category":"$161 - $170","category_index":2},{"value":10,"offby":4,"category":"$171 - $180","category_index":3},{"value":5,"offby":-2,"category":"$181 - $190","category_index":4},{"value":0,"offby":-3,"category":"$191 - $200","category_index":5},{"value":0,"offby":0,"category":"$201 - $210","category_index":6}],"phase":0,"number":1,"trial_type":"bar-choose","trial_index":70,"time_elapsed":850275,"internal_node_id":"0.0-70.0"},{"rt":2733,"url":"\/tickets\/utils\/start2.html","trial_type":"html","trial_index":71,"time_elapsed":854138,"internal_node_id":"0.0-71.0"},{"trial_type":"number-animation","trial_index":72,"time_elapsed":865770,"internal_node_id":"0.0-72.0"},{"phase":1,"sequence":0,"avg":166,"response":150,"trial_type":"training_avg","trial_index":73,"time_elapsed":872194,"internal_node_id":"0.0-73.0"},{"trial_type":"number-animation","trial_index":74,"time_elapsed":887654,"internal_node_id":"0.0-74.0"},{"phase":1,"sequence":1,"avg":198,"response":175,"trial_type":"training_avg","trial_index":75,"time_elapsed":895079,"internal_node_id":"0.0-75.0"},{"trial_type":"number-animation","trial_index":76,"time_elapsed":907974,"internal_node_id":"0.0-76.0"},{"phase":1,"sequence":2,"avg":177,"response":200,"trial_type":"training_avg","trial_index":77,"time_elapsed":917022,"internal_node_id":"0.0-77.0"},{"trial_type":"number-animation","trial_index":78,"time_elapsed":924774,"internal_node_id":"0.0-78.0"},{"phase":1,"sequence":3,"avg":190,"response":185,"trial_type":"training_avg","trial_index":79,"time_elapsed":932246,"internal_node_id":"0.0-79.0"},{"trial_type":"number-animation","trial_index":80,"time_elapsed":940259,"internal_node_id":"0.0-80.0"},{"phase":1,"sequence":4,"avg":201,"response":200,"trial_type":"training_avg","trial_index":81,"time_elapsed":946750,"internal_node_id":"0.0-81.0"},{"responses":[{"value":0,"offby":-1,"category":"$30 - $75","category_index":0},{"value":0,"offby":-2,"category":"$76 - $120","category_index":1},{"value":0,"offby":-4,"category":"$121 - $165","category_index":2},{"value":15,"offby":9,"category":"$166 - $210","category_index":3},{"value":5,"offby":-1,"category":"$211 - $255","category_index":4},{"value":0,"offby":-1,"category":"$256 - $300","category_index":5},{"value":0,"offby":0,"category":"$301 - $345","category_index":6}],"phase":1,"number":0,"trial_type":"bar-choose","trial_index":82,"time_elapsed":974782,"internal_node_id":"0.0-82.0"},{"rt":1765,"url":"\/tickets\/utils\/testing2.html","trial_type":"html","trial_index":83,"time_elapsed":977676,"internal_node_id":"0.0-83.0"},{"phase":1,"order":[4,17,12,6,11,43,37,39,44,31,16,8,21,15,13,30,18,1,22,48,49,7,47,10,27,25,3,29,0,23,20,19,26,42,5,24,33,45,2,36,32,28,35,9,46,38,14,41,40,34],"trial_type":"store_order","trial_index":84,"time_elapsed":978680,"internal_node_id":"0.0-84.0"},{"result":155,"points":1,"place":3,"phase":1,"sequence":0,"prices":[155,175,166,245,171,190,125,140,101,196],"times":[3413],"next_num":1,"trial_type":"ticket-choose","trial_index":85,"time_elapsed":984307,"internal_node_id":"0.0-85.0"},{"result":150,"points":1,"place":3,"phase":1,"sequence":1,"prices":[150,171,120,241,165,185,160,135,96,190],"times":[1121],"next_num":1,"trial_type":"ticket-choose","trial_index":86,"time_elapsed":987355,"internal_node_id":"0.0-86.0"},{"result":131,"points":2,"place":1,"phase":1,"sequence":2,"prices":[161,180,171,250,176,195,131,146,105,201],"times":[657,287,328,335,551,536,863],"next_num":7,"trial_type":"ticket-choose","trial_index":87,"time_elapsed":993947,"internal_node_id":"0.0-87.0"},{"result":126,"points":2,"place":1,"phase":1,"sequence":3,"prices":[150,175,166,251,170,196,126,145,105,201],"times":[1098,471,214,608,888,719,1272],"next_num":7,"trial_type":"ticket-choose","trial_index":88,"time_elapsed":1002327,"internal_node_id":"0.0-88.0"},{"result":150,"points":1,"place":2,"phase":1,"sequence":4,"prices":[156,181,130,255,175,200,170,150,111,205],"times":[8436,317,618,575,544,631,495,920],"next_num":8,"trial_type":"ticket-choose","trial_index":89,"time_elapsed":1018048,"internal_node_id":"0.0-89.0"},{"result":65,"points":2,"place":1,"phase":1,"sequence":5,"prices":[220,236,176,65,185,101,110,61,156,191],"times":[815,663,345,838],"next_num":4,"trial_type":"ticket-choose","trial_index":90,"time_elapsed":1023072,"internal_node_id":"0.0-90.0"},{"result":45,"points":3,"place":0,"phase":1,"sequence":6,"prices":[186,156,191,120,195,145,45,130,246,176],"times":[672,903,495,993,487,565,776],"next_num":7,"trial_type":"ticket-choose","trial_index":91,"time_elapsed":1030935,"internal_node_id":"0.0-91.0"},{"result":61,"points":3,"place":0,"phase":1,"sequence":7,"prices":[255,166,266,175,136,145,155,61,96,301],"times":[555,296,408,692,954,447,424,783],"next_num":8,"trial_type":"ticket-choose","trial_index":92,"time_elapsed":1038710,"internal_node_id":"0.0-92.0"},{"result":55,"points":2,"place":1,"phase":1,"sequence":8,"prices":[155,30,101,55,136,276,70,181,200,261],"times":[1163,399,1030,824],"next_num":4,"trial_type":"ticket-choose","trial_index":93,"time_elapsed":1044433,"internal_node_id":"0.0-93.0"},{"result":165,"points":1,"place":4,"phase":1,"sequence":9,"prices":[66,201,96,150,185,230,121,216,225,165],"times":[510,629,736,679,544,558,600,720,943,736],"next_num":10,"trial_type":"ticket-choose","trial_index":94,"time_elapsed":1054815,"internal_node_id":"0.0-94.0"},{"result":95,"points":3,"place":0,"phase":1,"sequence":10,"prices":[150,171,121,241,165,185,160,136,95,191],"times":[831,551,607,622,542,567,495,993,904],"next_num":9,"trial_type":"ticket-choose","trial_index":95,"time_elapsed":1064268,"internal_node_id":"0.0-95.0"},{"result":105,"points":3,"place":0,"phase":1,"sequence":11,"prices":[161,180,131,251,175,196,171,146,105,201],"times":[697,503,528,560,528,568,887,2095,1152],"next_num":9,"trial_type":"ticket-choose","trial_index":96,"time_elapsed":1075371,"internal_node_id":"0.0-96.0"},{"result":120,"points":2,"place":1,"phase":1,"sequence":12,"prices":[150,170,160,241,166,186,120,136,96,191],"times":[770,551,631,632,487,767,1299],"next_num":7,"trial_type":"ticket-choose","trial_index":97,"time_elapsed":1083580,"internal_node_id":"0.0-97.0"},{"result":131,"points":2,"place":1,"phase":1,"sequence":13,"prices":[156,181,171,256,175,200,131,150,110,206],"times":[1138,446,496,606,464,615,749],"next_num":7,"trial_type":"ticket-choose","trial_index":98,"time_elapsed":1091052,"internal_node_id":"0.0-98.0"},{"result":131,"points":2,"place":1,"phase":1,"sequence":14,"prices":[160,180,170,251,176,195,131,146,105,200],"times":[14290,572,479,623,488,765,1104],"next_num":7,"trial_type":"ticket-choose","trial_index":99,"time_elapsed":1112340,"internal_node_id":"0.0-99.0"},{"result":165,"points":1,"place":4,"phase":1,"sequence":15,"prices":[81,205,130,151,191,261,145,210,250,165],"times":[469,496,498,527,654,542,480,624,495,503],"next_num":11,"trial_type":"ticket-choose","trial_index":100,"time_elapsed":1122808,"internal_node_id":"0.0-100.0"},{"result":100,"points":3,"place":0,"phase":1,"sequence":16,"prices":[146,171,120,245,165,191,160,140,100,196],"times":[1154,519,504,622,1023,575,559,559,872],"next_num":9,"trial_type":"ticket-choose","trial_index":101,"time_elapsed":1132616,"internal_node_id":"0.0-101.0"},{"result":140,"points":1,"place":2,"phase":1,"sequence":17,"prices":[156,175,125,245,170,190,165,140,101,196],"times":[460,551,568,608,680,656,888,1728],"next_num":8,"trial_type":"ticket-choose","trial_index":102,"time_elapsed":1142032,"internal_node_id":"0.0-102.0"},{"result":145,"points":1,"place":3,"phase":1,"sequence":18,"prices":[145,171,161,245,165,191,120,140,100,196],"times":[904],"next_num":1,"trial_type":"ticket-choose","trial_index":103,"time_elapsed":1144672,"internal_node_id":"0.0-103.0"},{"result":145,"points":2,"place":1,"phase":1,"sequence":19,"prices":[246,145,155,191,176,270,185,136,160,215],"times":[706,831],"next_num":2,"trial_type":"ticket-choose","trial_index":104,"time_elapsed":1148095,"internal_node_id":"0.0-104.0"},{"result":130,"points":2,"place":1,"phase":1,"sequence":20,"prices":[155,225,245,130,176,106,180,211,165,200],"times":[811,519,527,871],"next_num":4,"trial_type":"ticket-choose","trial_index":105,"time_elapsed":1153224,"internal_node_id":"0.0-105.0"},{"result":126,"points":2,"place":1,"phase":1,"sequence":21,"prices":[151,175,166,251,170,195,126,146,105,201],"times":[764,540,834,664,712,631,1200],"next_num":7,"trial_type":"ticket-choose","trial_index":106,"time_elapsed":1161512,"internal_node_id":"0.0-106.0"},{"result":150,"points":2,"place":1,"phase":1,"sequence":22,"prices":[181,156,145,165,236,231,201,260,150,185],"times":[895,863,805,591,689,1143,943,647,1392],"next_num":9,"trial_type":"ticket-choose","trial_index":107,"time_elapsed":1172968,"internal_node_id":"0.0-107.0"},{"result":156,"points":1,"place":3,"phase":1,"sequence":23,"prices":[156,181,131,256,176,200,171,151,111,206],"times":[1309],"next_num":1,"trial_type":"ticket-choose","trial_index":108,"time_elapsed":1176229,"internal_node_id":"0.0-108.0"},{"result":181,"points":1,"place":2,"phase":1,"sequence":24,"prices":[120,221,135,185,200,261,181,251,255,196],"times":[1440,567,839,567,639,583,1384],"next_num":7,"trial_type":"ticket-choose","trial_index":109,"time_elapsed":1185246,"internal_node_id":"0.0-109.0"},{"result":95,"points":3,"place":0,"phase":1,"sequence":25,"prices":[95,205,106,151,186,271,145,210,215,181],"times":[813],"next_num":1,"trial_type":"ticket-choose","trial_index":110,"time_elapsed":1187925,"internal_node_id":"0.0-110.0"},{"result":145,"points":1,"place":2,"phase":1,"sequence":26,"prices":[150,176,126,251,171,195,165,145,105,200],"times":[753,560,622,607,600,592,895,831],"next_num":8,"trial_type":"ticket-choose","trial_index":111,"time_elapsed":1196565,"internal_node_id":"0.0-111.0"},{"result":150,"points":1,"place":4,"phase":1,"sequence":27,"prices":[111,231,131,146,171,295,141,241,271,150],"times":[1113,583,495,884,663,632,503,639,568,760],"next_num":10,"trial_type":"ticket-choose","trial_index":112,"time_elapsed":1207134,"internal_node_id":"0.0-112.0"},{"result":126,"points":2,"place":1,"phase":1,"sequence":28,"prices":[156,175,126,246,170,190,165,140,100,196],"times":[19592,644,815],"next_num":3,"trial_type":"ticket-choose","trial_index":113,"time_elapsed":1230357,"internal_node_id":"0.0-113.0"},{"result":145,"points":1,"place":3,"phase":1,"sequence":29,"prices":[145,170,160,245,165,190,120,141,100,195],"times":[774],"next_num":1,"trial_type":"ticket-choose","trial_index":114,"time_elapsed":1232830,"internal_node_id":"0.0-114.0"},{"result":121,"points":2,"place":1,"phase":1,"sequence":30,"prices":[150,170,160,240,166,185,121,136,95,191],"times":[462,399,596,534,616,624,831],"next_num":7,"trial_type":"ticket-choose","trial_index":115,"time_elapsed":1239882,"internal_node_id":"0.0-115.0"},{"result":121,"points":2,"place":1,"phase":1,"sequence":31,"prices":[146,170,121,245,166,190,161,141,100,195],"times":[1128,551,752],"next_num":3,"trial_type":"ticket-choose","trial_index":116,"time_elapsed":1244411,"internal_node_id":"0.0-116.0"},{"result":105,"points":3,"place":0,"phase":1,"sequence":32,"prices":[105,216,146,165,210,260,161,235,241,185],"times":[905],"next_num":1,"trial_type":"ticket-choose","trial_index":117,"time_elapsed":1247018,"internal_node_id":"0.0-117.0"},{"result":81,"points":3,"place":0,"phase":1,"sequence":33,"prices":[155,245,155,81,180,130,156,306,166,115],"times":[633,568,1015,704],"next_num":4,"trial_type":"ticket-choose","trial_index":118,"time_elapsed":1252266,"internal_node_id":"0.0-118.0"},{"result":126,"points":2,"place":1,"phase":1,"sequence":34,"prices":[156,176,165,246,171,190,126,141,101,196],"times":[687,588,811,752,799,632,864],"next_num":7,"trial_type":"ticket-choose","trial_index":119,"time_elapsed":1260378,"internal_node_id":"0.0-119.0"},{"result":86,"points":3,"place":0,"phase":1,"sequence":35,"prices":[86,180,130,151,170,271,145,191,220,160],"times":[826],"next_num":1,"trial_type":"ticket-choose","trial_index":120,"time_elapsed":1262906,"internal_node_id":"0.0-120.0"},{"result":175,"points":1,"place":4,"phase":1,"sequence":36,"prices":[130,195,141,155,181,226,150,216,221,175],"times":[936,488,486,543,752,613,551,662,663,1096],"next_num":11,"trial_type":"ticket-choose","trial_index":121,"time_elapsed":1273834,"internal_node_id":"0.0-121.0"},{"result":150,"points":1,"place":4,"phase":1,"sequence":37,"prices":[176,150,141,91,290,201,106,266,206,126],"times":[951,774],"next_num":2,"trial_type":"ticket-choose","trial_index":122,"time_elapsed":1277466,"internal_node_id":"0.0-122.0"},{"result":151,"points":1,"place":3,"phase":1,"sequence":38,"prices":[151,176,126,251,170,196,165,145,105,201],"times":[820],"next_num":1,"trial_type":"ticket-choose","trial_index":123,"time_elapsed":1279962,"internal_node_id":"0.0-123.0"},{"result":120,"points":2,"place":1,"phase":1,"sequence":39,"prices":[226,205,125,120,115,135,180,145,150,220],"times":[705,742,462,832],"next_num":4,"trial_type":"ticket-choose","trial_index":124,"time_elapsed":1285090,"internal_node_id":"0.0-124.0"},{"result":135,"points":3,"place":0,"phase":1,"sequence":40,"prices":[135,180,141,151,175,220,145,196,211,155],"times":[1063],"next_num":1,"trial_type":"ticket-choose","trial_index":125,"time_elapsed":1287850,"internal_node_id":"0.0-125.0"},{"result":75,"points":3,"place":0,"phase":1,"sequence":41,"prices":[75,171,131,151,161,250,145,190,206,156],"times":[761],"next_num":1,"trial_type":"ticket-choose","trial_index":126,"time_elapsed":1290666,"internal_node_id":"0.0-126.0"},{"result":51,"points":3,"place":0,"phase":1,"sequence":42,"prices":[221,175,51,196,146,130,166,80,126,156],"times":[704,1296,703],"next_num":3,"trial_type":"ticket-choose","trial_index":127,"time_elapsed":1295478,"internal_node_id":"0.0-127.0"},{"result":130,"points":2,"place":1,"phase":1,"sequence":43,"prices":[160,180,130,251,176,195,170,146,105,200],"times":[1673,567,808],"next_num":3,"trial_type":"ticket-choose","trial_index":128,"time_elapsed":1300630,"internal_node_id":"0.0-128.0"},{"result":111,"points":3,"place":0,"phase":1,"sequence":44,"prices":[175,211,266,286,111,216,220,245,230,165],"times":[608,599,559,438,718],"next_num":5,"trial_type":"ticket-choose","trial_index":129,"time_elapsed":1306190,"internal_node_id":"0.0-129.0"},{"result":130,"points":3,"place":0,"phase":1,"sequence":45,"prices":[185,175,276,221,130,141,171,216,235,165],"times":[560,335,600,536,767],"next_num":5,"trial_type":"ticket-choose","trial_index":130,"time_elapsed":1311558,"internal_node_id":"0.0-130.0"},{"result":155,"points":1,"place":3,"phase":1,"sequence":46,"prices":[155,181,170,255,176,200,130,150,110,205],"times":[777],"next_num":1,"trial_type":"ticket-choose","trial_index":131,"time_elapsed":1314272,"internal_node_id":"0.0-131.0"},{"result":106,"points":3,"place":0,"phase":1,"sequence":47,"prices":[180,106,166,245,211,261,215,125,135,190],"times":[678,736],"next_num":2,"trial_type":"ticket-choose","trial_index":132,"time_elapsed":1317638,"internal_node_id":"0.0-132.0"},{"result":116,"points":3,"place":0,"phase":1,"sequence":48,"prices":[176,150,276,171,261,116,130,201,166,231],"times":[750,615,639,879,551,759],"next_num":6,"trial_type":"ticket-choose","trial_index":133,"time_elapsed":1324566,"internal_node_id":"0.0-133.0"},{"result":106,"points":2,"place":1,"phase":1,"sequence":49,"prices":[185,180,235,210,106,266,76,115,250,205],"times":[569,542,543,616,712],"next_num":5,"trial_type":"ticket-choose","trial_index":134,"time_elapsed":1330158,"internal_node_id":"0.0-134.0"},{"responses":[{"value":0,"offby":-1,"category":"$30 - $75","category_index":0},{"value":0,"offby":-2,"category":"$76 - $120","category_index":1},{"value":0,"offby":-4,"category":"$121 - $165","category_index":2},{"value":15,"offby":9,"category":"$166 - $210","category_index":3},{"value":5,"offby":-1,"category":"$211 - $255","category_index":4},{"value":0,"offby":-1,"category":"$256 - $300","category_index":5},{"value":0,"offby":0,"category":"$301 - $345","category_index":6}],"phase":1,"number":1,"trial_type":"bar-choose","trial_index":135,"time_elapsed":1340487,"internal_node_id":"0.0-135.0"},{"special_comment":"","trial_type":"special_sequence","trial_index":136,"time_elapsed":1343087,"internal_node_id":"0.0-136.0"},{"during":"Nothing","bonus":272,"trial_type":"final","trial_index":137,"time_elapsed":1368519,"internal_node_id":"0.0-137.0"}],"bonus":272}