{"start_time":"2017-02-24 15:05:07","end_time":"2017-02-24 15:32:40","points_phase0":58,"points_phase1":96,"phase_order":0,"age":31,"gender":"f","tries":1,"during":"Nothing","worker_id":"AAHZCL4LIPCBQ","assignment_id":"3WS1NTTKEZ5K5MPY5IWC1W3WNC00FE","data":[{"rt":25487,"url":"\/tickets\/utils\/consent.html","trial_type":"html","trial_index":0,"time_elapsed":27512,"internal_node_id":"0.0-0.0"},{"age":31,"gender":"f","trial_type":"age","trial_index":1,"time_elapsed":33707,"internal_node_id":"0.0-1.0"},{"worker_id":"AAHZCL4LIPCBQ","trial_type":"workerid","trial_index":2,"time_elapsed":44178,"internal_node_id":"0.0-2.0"},{"tries":1,"trial_type":"instructions_check","trial_index":3,"time_elapsed":100028,"internal_node_id":"0.0-3.0"},{"rt":13675,"url":"\/tickets\/utils\/start.html","trial_type":"html","trial_index":4,"time_elapsed":114867,"internal_node_id":"0.0-4.0"},{"trial_type":"number-animation","trial_index":5,"time_elapsed":133078,"internal_node_id":"0.0-5.0"},{"phase":0,"sequence":0,"avg":180,"response":171,"trial_type":"training_avg","trial_index":6,"time_elapsed":147511,"internal_node_id":"0.0-6.0"},{"trial_type":"number-animation","trial_index":7,"time_elapsed":164500,"internal_node_id":"0.0-7.0"},{"phase":0,"sequence":1,"avg":178,"response":170,"trial_type":"training_avg","trial_index":8,"time_elapsed":176165,"internal_node_id":"0.0-8.0"},{"trial_type":"number-animation","trial_index":9,"time_elapsed":191357,"internal_node_id":"0.0-9.0"},{"phase":0,"sequence":2,"avg":176,"response":181,"trial_type":"training_avg","trial_index":10,"time_elapsed":199757,"internal_node_id":"0.0-10.0"},{"trial_type":"number-animation","trial_index":11,"time_elapsed":210909,"internal_node_id":"0.0-11.0"},{"phase":0,"sequence":3,"avg":178,"response":175,"trial_type":"training_avg","trial_index":12,"time_elapsed":216594,"internal_node_id":"0.0-12.0"},{"trial_type":"number-animation","trial_index":13,"time_elapsed":230207,"internal_node_id":"0.0-13.0"},{"phase":0,"sequence":4,"avg":179,"response":172,"trial_type":"training_avg","trial_index":14,"time_elapsed":248490,"internal_node_id":"0.0-14.0"},{"responses":[{"value":3,"offby":3,"category":"$140 - $250","category_index":0},{"value":3,"offby":3,"category":"$151 - $160","category_index":1},{"value":3,"offby":-1,"category":"$161 - $170","category_index":2},{"value":3,"offby":-3,"category":"$171 - $180","category_index":3},{"value":3,"offby":-4,"category":"$181 - $190","category_index":4},{"value":3,"offby":0,"category":"$191 - $200","category_index":5},{"value":2,"offby":2,"category":"$201 - $210","category_index":6}],"phase":0,"number":0,"trial_type":"bar-choose","trial_index":15,"time_elapsed":291314,"internal_node_id":"0.0-15.0"},{"rt":12887,"url":"\/tickets\/\/utils\/testing.html","trial_type":"html","trial_index":16,"time_elapsed":305547,"internal_node_id":"0.0-16.0"},{"phase":0,"order":[45,5,13,1,12,21,46,9,23,24,38,8,44,33,16,2,48,11,19,40,0,34,4,26,31,41,35,22,36,18,20,15,42,43,29,47,3,7,10,49,6,27,28,39,14,17,37,32,30,25],"trial_type":"store_order","trial_index":17,"time_elapsed":306558,"internal_node_id":"0.0-17.0"},{"result":185,"points":0,"place":5,"phase":0,"sequence":-1,"prices":[184,180,224,165,181,199,185,193,218,126],"times":[6476,1584,886,724,1038,701,2043],"next_num":7,"trial_type":"ticket-choose","trial_index":18,"time_elapsed":323955,"internal_node_id":"0.0-18.0"},{"rt":12801,"url":"\/tickets\/utils\/testing_after.html","trial_type":"html","trial_index":19,"time_elapsed":338055,"internal_node_id":"0.0-19.0"},{"result":184,"points":0,"place":6,"phase":0,"sequence":0,"prices":[179,174,172,162,202,184,165,197,185,169],"times":[3606,629,1371,740,627,1107],"next_num":6,"trial_type":"ticket-choose","trial_index":20,"time_elapsed":350648,"internal_node_id":"0.0-20.0"},{"result":177,"points":1,"place":4,"phase":0,"sequence":1,"prices":[175,179,177,193,178,182,169,172,164,183],"times":[1980,572,942],"next_num":3,"trial_type":"ticket-choose","trial_index":21,"time_elapsed":357139,"internal_node_id":"0.0-21.0"},{"result":180,"points":0,"place":6,"phase":0,"sequence":2,"prices":[176,180,178,194,179,183,170,173,165,184],"times":[1126,1240],"next_num":2,"trial_type":"ticket-choose","trial_index":22,"time_elapsed":362100,"internal_node_id":"0.0-22.0"},{"result":177,"points":1,"place":4,"phase":0,"sequence":3,"prices":[175,179,169,193,178,182,177,172,164,183],"times":[1073,462,1023,628,841,625,1123],"next_num":7,"trial_type":"ticket-choose","trial_index":23,"time_elapsed":372426,"internal_node_id":"0.0-23.0"},{"result":170,"points":2,"place":1,"phase":0,"sequence":4,"prices":[176,180,178,194,179,183,170,173,165,184],"times":[2879,467,529,771,582,652,966],"next_num":7,"trial_type":"ticket-choose","trial_index":24,"time_elapsed":384481,"internal_node_id":"0.0-24.0"},{"result":176,"points":1,"place":4,"phase":0,"sequence":5,"prices":[174,178,176,192,177,181,168,171,163,182],"times":[40254,458,958],"next_num":3,"trial_type":"ticket-choose","trial_index":25,"time_elapsed":429467,"internal_node_id":"0.0-25.0"},{"result":177,"points":2,"place":1,"phase":0,"sequence":6,"prices":[179,186,197,201,166,187,188,193,190,177],"times":[1356,319,380,522,572,1043,634,740,809,1087],"next_num":10,"trial_type":"ticket-choose","trial_index":26,"time_elapsed":444066,"internal_node_id":"0.0-26.0"},{"result":178,"points":1,"place":4,"phase":0,"sequence":7,"prices":[176,180,170,194,179,183,178,173,165,184],"times":[2205,686,523,651,9959,715,825],"next_num":7,"trial_type":"ticket-choose","trial_index":27,"time_elapsed":464021,"internal_node_id":"0.0-27.0"},{"result":177,"points":0,"place":5,"phase":0,"sequence":8,"prices":[173,178,176,193,177,182,168,172,164,183],"times":[1100,633,722,717,1028],"next_num":5,"trial_type":"ticket-choose","trial_index":28,"time_elapsed":473828,"internal_node_id":"0.0-28.0"},{"result":170,"points":2,"place":1,"phase":0,"sequence":9,"prices":[161,180,170,174,178,198,173,182,188,176],"times":[38080,635,2105],"next_num":3,"trial_type":"ticket-choose","trial_index":29,"time_elapsed":519308,"internal_node_id":"0.0-29.0"},{"result":188,"points":0,"place":7,"phase":0,"sequence":10,"prices":[181,179,199,188,170,172,178,187,191,177],"times":[1211,630,569,1174],"next_num":4,"trial_type":"ticket-choose","trial_index":30,"time_elapsed":526298,"internal_node_id":"0.0-30.0"},{"result":178,"points":1,"place":4,"phase":0,"sequence":11,"prices":[176,180,170,194,179,183,178,173,165,184],"times":[1168,446,401,510,904,665,1110],"next_num":7,"trial_type":"ticket-choose","trial_index":31,"time_elapsed":535960,"internal_node_id":"0.0-31.0"},{"result":155,"points":2,"place":1,"phase":0,"sequence":12,"prices":[175,150,164,155,171,199,158,180,184,196],"times":[1672,753,760,1441],"next_num":4,"trial_type":"ticket-choose","trial_index":32,"time_elapsed":546052,"internal_node_id":"0.0-32.0"},{"result":172,"points":2,"place":1,"phase":0,"sequence":13,"prices":[170,183,172,175,180,189,174,187,188,179],"times":[1134,482,1623],"next_num":3,"trial_type":"ticket-choose","trial_index":33,"time_elapsed":552804,"internal_node_id":"0.0-33.0"},{"result":174,"points":1,"place":3,"phase":0,"sequence":14,"prices":[174,178,168,192,177,181,176,171,163,182],"times":[1246],"next_num":1,"trial_type":"ticket-choose","trial_index":34,"time_elapsed":556755,"internal_node_id":"0.0-34.0"},{"result":178,"points":0,"place":5,"phase":0,"sequence":15,"prices":[174,179,169,194,178,183,177,173,165,184],"times":[1112,791,566,689,1153],"next_num":5,"trial_type":"ticket-choose","trial_index":35,"time_elapsed":564510,"internal_node_id":"0.0-35.0"},{"result":171,"points":3,"place":0,"phase":0,"sequence":16,"prices":[193,173,175,182,179,198,181,171,176,187],"times":[1077,473,564,373,784,585,580,837],"next_num":8,"trial_type":"ticket-choose","trial_index":36,"time_elapsed":574408,"internal_node_id":"0.0-36.0"},{"result":174,"points":1,"place":2,"phase":0,"sequence":17,"prices":[175,180,170,195,179,184,178,174,166,185],"times":[1284,247,528,874,336,534,560,984],"next_num":8,"trial_type":"ticket-choose","trial_index":37,"time_elapsed":583995,"internal_node_id":"0.0-37.0"},{"result":168,"points":2,"place":1,"phase":0,"sequence":18,"prices":[173,178,168,193,177,182,176,172,164,183],"times":[1232,572,1222],"next_num":3,"trial_type":"ticket-choose","trial_index":38,"time_elapsed":590105,"internal_node_id":"0.0-38.0"},{"result":174,"points":1,"place":2,"phase":0,"sequence":19,"prices":[179,174,199,178,196,167,170,184,177,190],"times":[1142,1555],"next_num":2,"trial_type":"ticket-choose","trial_index":39,"time_elapsed":595944,"internal_node_id":"0.0-39.0"},{"result":178,"points":0,"place":5,"phase":0,"sequence":20,"prices":[175,179,169,193,178,182,177,172,164,183],"times":[946,561,540,646,1009],"next_num":5,"trial_type":"ticket-choose","trial_index":40,"time_elapsed":604162,"internal_node_id":"0.0-40.0"},{"result":167,"points":1,"place":2,"phase":0,"sequence":21,"prices":[181,180,191,186,165,197,159,167,194,185],"times":[1414,1315,350,306,319,707,745,1243],"next_num":8,"trial_type":"ticket-choose","trial_index":41,"time_elapsed":614969,"internal_node_id":"0.0-41.0"},{"result":177,"points":1,"place":4,"phase":0,"sequence":22,"prices":[175,179,177,193,178,182,169,172,164,183],"times":[1104,602,1080],"next_num":3,"trial_type":"ticket-choose","trial_index":42,"time_elapsed":620945,"internal_node_id":"0.0-42.0"},{"result":177,"points":1,"place":3,"phase":0,"sequence":23,"prices":[165,187,173,177,186,196,176,191,192,181],"times":[1286,719,594,1098],"next_num":4,"trial_type":"ticket-choose","trial_index":43,"time_elapsed":627953,"internal_node_id":"0.0-43.0"},{"result":168,"points":1,"place":2,"phase":0,"sequence":24,"prices":[157,184,163,174,181,190,168,187,189,177],"times":[801,654,682,624,581,567,1229],"next_num":7,"trial_type":"ticket-choose","trial_index":44,"time_elapsed":636893,"internal_node_id":"0.0-44.0"},{"result":169,"points":2,"place":1,"phase":0,"sequence":25,"prices":[180,165,177,193,186,196,187,169,171,182],"times":[905,887,389,406,535,1180,785,1343],"next_num":8,"trial_type":"ticket-choose","trial_index":45,"time_elapsed":647203,"internal_node_id":"0.0-45.0"},{"result":169,"points":1,"place":2,"phase":0,"sequence":26,"prices":[188,179,154,183,173,170,177,160,169,175],"times":[881,277,482,414,365,451,545,819,1481],"next_num":9,"trial_type":"ticket-choose","trial_index":46,"time_elapsed":657476,"internal_node_id":"0.0-46.0"},{"result":183,"points":0,"place":8,"phase":0,"sequence":27,"prices":[173,178,176,193,177,182,168,172,164,183],"times":[839,271,440,287,376,572,553,883,1290,953],"next_num":10,"trial_type":"ticket-choose","trial_index":47,"time_elapsed":669038,"internal_node_id":"0.0-47.0"},{"result":171,"points":1,"place":3,"phase":0,"sequence":28,"prices":[189,185,169,168,167,171,180,173,174,188],"times":[1200,826,635,553,994,1145],"next_num":6,"trial_type":"ticket-choose","trial_index":48,"time_elapsed":678112,"internal_node_id":"0.0-48.0"},{"result":176,"points":1,"place":4,"phase":0,"sequence":29,"prices":[173,178,168,193,177,182,176,172,164,183],"times":[7304,530,541,555,505,652,1308],"next_num":7,"trial_type":"ticket-choose","trial_index":49,"time_elapsed":693456,"internal_node_id":"0.0-49.0"},{"result":163,"points":3,"place":0,"phase":0,"sequence":30,"prices":[174,178,176,192,177,181,168,171,163,182],"times":[1215,573,373,642,534,721,600,1004,892],"next_num":9,"trial_type":"ticket-choose","trial_index":50,"time_elapsed":703877,"internal_node_id":"0.0-50.0"},{"result":184,"points":0,"place":7,"phase":0,"sequence":31,"prices":[175,180,178,195,179,184,170,174,166,185],"times":[966,491,241,785,602,1820],"next_num":6,"trial_type":"ticket-choose","trial_index":51,"time_elapsed":712321,"internal_node_id":"0.0-51.0"},{"result":180,"points":0,"place":7,"phase":0,"sequence":32,"prices":[175,193,175,160,180,170,175,205,177,167],"times":[816,587,1010,899,1283],"next_num":5,"trial_type":"ticket-choose","trial_index":52,"time_elapsed":720106,"internal_node_id":"0.0-52.0"},{"result":175,"points":1,"place":4,"phase":0,"sequence":33,"prices":[188,191,179,157,181,164,166,156,175,182],"times":[1001,445,226,476,952,1475,810,654,1108],"next_num":9,"trial_type":"ticket-choose","trial_index":53,"time_elapsed":731302,"internal_node_id":"0.0-53.0"},{"result":170,"points":2,"place":1,"phase":0,"sequence":34,"prices":[166,190,170,173,178,203,172,192,198,174],"times":[789,674,1237],"next_num":3,"trial_type":"ticket-choose","trial_index":54,"time_elapsed":737134,"internal_node_id":"0.0-54.0"},{"result":175,"points":1,"place":2,"phase":0,"sequence":35,"prices":[180,175,173,177,191,190,184,196,174,181],"times":[834,934],"next_num":2,"trial_type":"ticket-choose","trial_index":55,"time_elapsed":741393,"internal_node_id":"0.0-55.0"},{"result":178,"points":0,"place":5,"phase":0,"sequence":36,"prices":[174,179,169,194,178,183,177,173,165,184],"times":[1386,771,663,639,910],"next_num":5,"trial_type":"ticket-choose","trial_index":56,"time_elapsed":748705,"internal_node_id":"0.0-56.0"},{"result":177,"points":1,"place":4,"phase":0,"sequence":37,"prices":[174,179,177,194,178,183,169,173,165,184],"times":[849,849,1475],"next_num":3,"trial_type":"ticket-choose","trial_index":57,"time_elapsed":754621,"internal_node_id":"0.0-57.0"},{"result":178,"points":1,"place":4,"phase":0,"sequence":38,"prices":[175,180,170,195,179,184,178,174,166,185],"times":[1566,958,518,754,734,688,951],"next_num":7,"trial_type":"ticket-choose","trial_index":58,"time_elapsed":764338,"internal_node_id":"0.0-58.0"},{"result":179,"points":1,"place":4,"phase":0,"sequence":39,"prices":[175,189,193,170,179,165,180,186,177,184],"times":[1039,618,503,900,1137],"next_num":5,"trial_type":"ticket-choose","trial_index":59,"time_elapsed":771812,"internal_node_id":"0.0-59.0"},{"result":173,"points":1,"place":2,"phase":0,"sequence":40,"prices":[174,179,177,194,178,183,169,173,165,184],"times":[1146,608,694,629,906,719,942,979],"next_num":8,"trial_type":"ticket-choose","trial_index":60,"time_elapsed":782316,"internal_node_id":"0.0-60.0"},{"result":171,"points":2,"place":1,"phase":0,"sequence":41,"prices":[168,188,171,181,184,196,180,194,195,183],"times":[777,640,1053],"next_num":3,"trial_type":"ticket-choose","trial_index":61,"time_elapsed":787129,"internal_node_id":"0.0-61.0"},{"result":170,"points":2,"place":1,"phase":0,"sequence":42,"prices":[159,178,170,174,176,194,173,182,185,175],"times":[676,689,797],"next_num":3,"trial_type":"ticket-choose","trial_index":62,"time_elapsed":791764,"internal_node_id":"0.0-62.0"},{"result":171,"points":1,"place":2,"phase":0,"sequence":43,"prices":[195,177,197,179,171,173,175,156,163,204],"times":[788,663,591,952,1244],"next_num":5,"trial_type":"ticket-choose","trial_index":63,"time_elapsed":798929,"internal_node_id":"0.0-63.0"},{"result":170,"points":2,"place":1,"phase":0,"sequence":44,"prices":[175,180,178,195,179,184,170,174,166,185],"times":[1421,597,3547,1247,812,612,834],"next_num":7,"trial_type":"ticket-choose","trial_index":64,"time_elapsed":813667,"internal_node_id":"0.0-64.0"},{"result":174,"points":1,"place":3,"phase":0,"sequence":45,"prices":[174,178,168,192,177,181,176,171,163,182],"times":[1880],"next_num":1,"trial_type":"ticket-choose","trial_index":65,"time_elapsed":817972,"internal_node_id":"0.0-65.0"},{"result":173,"points":1,"place":3,"phase":0,"sequence":46,"prices":[181,175,182,168,183,173,153,170,193,179],"times":[1307,582,520,543,508,915],"next_num":6,"trial_type":"ticket-choose","trial_index":66,"time_elapsed":825617,"internal_node_id":"0.0-66.0"},{"result":171,"points":3,"place":0,"phase":0,"sequence":47,"prices":[171,180,172,174,179,188,173,183,186,175],"times":[1197],"next_num":1,"trial_type":"ticket-choose","trial_index":67,"time_elapsed":828976,"internal_node_id":"0.0-67.0"},{"result":170,"points":2,"place":1,"phase":0,"sequence":48,"prices":[160,185,170,174,182,196,173,186,194,177],"times":[980,864,839],"next_num":3,"trial_type":"ticket-choose","trial_index":68,"time_elapsed":834373,"internal_node_id":"0.0-68.0"},{"result":174,"points":1,"place":3,"phase":0,"sequence":49,"prices":[163,185,165,174,181,198,173,186,187,180],"times":[1156,600,550,850],"next_num":4,"trial_type":"ticket-choose","trial_index":69,"time_elapsed":840619,"internal_node_id":"0.0-69.0"},{"responses":[{"value":2,"offby":2,"category":"$140 - $250","category_index":0},{"value":1,"offby":1,"category":"$151 - $160","category_index":1},{"value":2,"offby":-2,"category":"$161 - $170","category_index":2},{"value":10,"offby":4,"category":"$171 - $180","category_index":3},{"value":2,"offby":-5,"category":"$181 - $190","category_index":4},{"value":2,"offby":-1,"category":"$191 - $200","category_index":5},{"value":1,"offby":1,"category":"$201 - $210","category_index":6}],"phase":0,"number":1,"trial_type":"bar-choose","trial_index":70,"time_elapsed":882444,"internal_node_id":"0.0-70.0"},{"rt":6612,"url":"\/tickets\/utils\/start2.html","trial_type":"html","trial_index":71,"time_elapsed":890322,"internal_node_id":"0.0-71.0"},{"trial_type":"number-animation","trial_index":72,"time_elapsed":899907,"internal_node_id":"0.0-72.0"},{"phase":1,"sequence":0,"avg":166,"response":142,"trial_type":"training_avg","trial_index":73,"time_elapsed":912606,"internal_node_id":"0.0-73.0"},{"trial_type":"number-animation","trial_index":74,"time_elapsed":921667,"internal_node_id":"0.0-74.0"},{"phase":1,"sequence":1,"avg":198,"response":131,"trial_type":"training_avg","trial_index":75,"time_elapsed":928320,"internal_node_id":"0.0-75.0"},{"trial_type":"number-animation","trial_index":76,"time_elapsed":940294,"internal_node_id":"0.0-76.0"},{"phase":1,"sequence":2,"avg":177,"response":182,"trial_type":"training_avg","trial_index":77,"time_elapsed":948482,"internal_node_id":"0.0-77.0"},{"trial_type":"number-animation","trial_index":78,"time_elapsed":959999,"internal_node_id":"0.0-78.0"},{"phase":1,"sequence":3,"avg":190,"response":196,"trial_type":"training_avg","trial_index":79,"time_elapsed":969759,"internal_node_id":"0.0-79.0"},{"trial_type":"number-animation","trial_index":80,"time_elapsed":983558,"internal_node_id":"0.0-80.0"},{"phase":1,"sequence":4,"avg":201,"response":191,"trial_type":"training_avg","trial_index":81,"time_elapsed":990945,"internal_node_id":"0.0-81.0"},{"responses":[{"value":2,"offby":1,"category":"$30 - $75","category_index":0},{"value":2,"offby":0,"category":"$76 - $120","category_index":1},{"value":2,"offby":-2,"category":"$121 - $165","category_index":2},{"value":10,"offby":4,"category":"$166 - $210","category_index":3},{"value":2,"offby":-4,"category":"$211 - $255","category_index":4},{"value":2,"offby":1,"category":"$256 - $300","category_index":5},{"value":0,"offby":0,"category":"$301 - $345","category_index":6}],"phase":1,"number":0,"trial_type":"bar-choose","trial_index":82,"time_elapsed":1023688,"internal_node_id":"0.0-82.0"},{"rt":16260,"url":"\/tickets\/utils\/testing2.html","trial_type":"html","trial_index":83,"time_elapsed":1041150,"internal_node_id":"0.0-83.0"},{"phase":1,"order":[9,5,13,24,42,43,14,45,1,27,4,26,16,18,30,2,29,23,6,0,7,12,32,41,44,20,19,25,15,11,33,46,35,21,38,22,17,8,37,3,49,39,10,47,34,28,48,31,40,36],"trial_type":"store_order","trial_index":84,"time_elapsed":1042194,"internal_node_id":"0.0-84.0"},{"result":160,"points":1,"place":3,"phase":1,"sequence":0,"prices":[160,180,130,251,176,195,170,146,105,200],"times":[6080],"next_num":1,"trial_type":"ticket-choose","trial_index":85,"time_elapsed":1050772,"internal_node_id":"0.0-85.0"},{"result":165,"points":1,"place":4,"phase":1,"sequence":1,"prices":[156,176,165,246,171,190,126,141,101,196],"times":[1292,282,747],"next_num":3,"trial_type":"ticket-choose","trial_index":86,"time_elapsed":1056297,"internal_node_id":"0.0-86.0"},{"result":176,"points":0,"place":5,"phase":1,"sequence":2,"prices":[160,180,170,251,176,195,131,146,105,200],"times":[891,354,228,695,850],"next_num":5,"trial_type":"ticket-choose","trial_index":87,"time_elapsed":1062213,"internal_node_id":"0.0-87.0"},{"result":130,"points":2,"place":1,"phase":1,"sequence":3,"prices":[86,180,130,151,170,271,145,191,220,160],"times":[930,273,4022],"next_num":3,"trial_type":"ticket-choose","trial_index":88,"time_elapsed":1070067,"internal_node_id":"0.0-88.0"},{"result":155,"points":1,"place":3,"phase":1,"sequence":4,"prices":[155,245,155,81,180,130,156,306,166,115],"times":[5482,586,1168],"next_num":3,"trial_type":"ticket-choose","trial_index":89,"time_elapsed":1079804,"internal_node_id":"0.0-89.0"},{"result":176,"points":0,"place":5,"phase":1,"sequence":5,"prices":[220,236,176,65,185,101,110,61,156,191],"times":[1308,564,799],"next_num":3,"trial_type":"ticket-choose","trial_index":90,"time_elapsed":1085066,"internal_node_id":"0.0-90.0"},{"result":181,"points":0,"place":6,"phase":1,"sequence":6,"prices":[155,181,170,255,176,200,130,150,110,205],"times":[4724,1159],"next_num":2,"trial_type":"ticket-choose","trial_index":91,"time_elapsed":1094265,"internal_node_id":"0.0-91.0"},{"result":106,"points":2,"place":1,"phase":1,"sequence":7,"prices":[176,150,141,91,290,201,106,266,206,126],"times":[1372,1024,838,525,627,1018,765],"next_num":7,"trial_type":"ticket-choose","trial_index":92,"time_elapsed":1103979,"internal_node_id":"0.0-92.0"},{"result":140,"points":1,"place":2,"phase":1,"sequence":8,"prices":[156,175,125,245,170,190,165,140,101,196],"times":[611,413,482,562,617,570,812,968],"next_num":8,"trial_type":"ticket-choose","trial_index":93,"time_elapsed":1112572,"internal_node_id":"0.0-93.0"},{"result":120,"points":3,"place":0,"phase":1,"sequence":9,"prices":[120,221,135,185,200,261,181,251,255,196],"times":[1195],"next_num":1,"trial_type":"ticket-choose","trial_index":94,"time_elapsed":1115968,"internal_node_id":"0.0-94.0"},{"result":125,"points":2,"place":1,"phase":1,"sequence":10,"prices":[155,175,166,245,171,190,125,140,101,196],"times":[881,529,595,992,644,600,2632],"next_num":7,"trial_type":"ticket-choose","trial_index":95,"time_elapsed":1126179,"internal_node_id":"0.0-95.0"},{"result":185,"points":1,"place":4,"phase":1,"sequence":11,"prices":[105,216,146,165,210,260,161,235,241,185],"times":[970,6578,468,800,614,553,690,624,598,730],"next_num":10,"trial_type":"ticket-choose","trial_index":96,"time_elapsed":1143059,"internal_node_id":"0.0-96.0"},{"result":121,"points":2,"place":1,"phase":1,"sequence":12,"prices":[150,171,121,241,165,185,160,136,95,191],"times":[966,579,1008],"next_num":3,"trial_type":"ticket-choose","trial_index":97,"time_elapsed":1148674,"internal_node_id":"0.0-97.0"},{"result":120,"points":2,"place":1,"phase":1,"sequence":13,"prices":[146,171,120,245,165,191,160,140,100,196],"times":[1066,590,901],"next_num":3,"trial_type":"ticket-choose","trial_index":98,"time_elapsed":1153609,"internal_node_id":"0.0-98.0"},{"result":81,"points":3,"place":0,"phase":1,"sequence":14,"prices":[81,205,130,151,191,261,145,210,250,165],"times":[1559],"next_num":1,"trial_type":"ticket-choose","trial_index":99,"time_elapsed":1157241,"internal_node_id":"0.0-99.0"},{"result":145,"points":1,"place":2,"phase":1,"sequence":15,"prices":[151,176,126,251,170,196,165,145,105,201],"times":[725,613,609,633,652,960,614,1132],"next_num":8,"trial_type":"ticket-choose","trial_index":100,"time_elapsed":1167096,"internal_node_id":"0.0-100.0"},{"result":111,"points":3,"place":0,"phase":1,"sequence":16,"prices":[111,231,131,146,171,295,141,241,271,150],"times":[1337],"next_num":1,"trial_type":"ticket-choose","trial_index":101,"time_elapsed":1170817,"internal_node_id":"0.0-101.0"},{"result":120,"points":2,"place":1,"phase":1,"sequence":17,"prices":[145,170,160,245,165,190,120,141,100,195],"times":[844,583,800,625,564,657,1198],"next_num":7,"trial_type":"ticket-choose","trial_index":102,"time_elapsed":1179386,"internal_node_id":"0.0-102.0"},{"result":126,"points":2,"place":1,"phase":1,"sequence":18,"prices":[150,175,166,251,170,196,126,145,105,201],"times":[905,671,847,582,782,827,736],"next_num":7,"trial_type":"ticket-choose","trial_index":103,"time_elapsed":1188169,"internal_node_id":"0.0-103.0"},{"result":126,"points":2,"place":1,"phase":1,"sequence":19,"prices":[156,175,126,246,170,190,165,140,100,196],"times":[1690,656,1095],"next_num":3,"trial_type":"ticket-choose","trial_index":104,"time_elapsed":1194597,"internal_node_id":"0.0-104.0"},{"result":126,"points":2,"place":1,"phase":1,"sequence":20,"prices":[151,175,166,251,170,195,126,146,105,201],"times":[971,672,582,648,576,591,849],"next_num":7,"trial_type":"ticket-choose","trial_index":105,"time_elapsed":1203070,"internal_node_id":"0.0-105.0"},{"result":131,"points":2,"place":1,"phase":1,"sequence":21,"prices":[161,180,171,250,176,195,131,146,105,201],"times":[994,1388,552,630,653,704,1258],"next_num":7,"trial_type":"ticket-choose","trial_index":106,"time_elapsed":1212696,"internal_node_id":"0.0-106.0"},{"result":145,"points":1,"place":2,"phase":1,"sequence":22,"prices":[135,180,141,151,175,220,145,196,211,155],"times":[893,684,621,1107,579,589,1112],"next_num":7,"trial_type":"ticket-choose","trial_index":107,"time_elapsed":1221877,"internal_node_id":"0.0-107.0"},{"result":106,"points":3,"place":0,"phase":1,"sequence":23,"prices":[180,106,166,245,211,261,215,125,135,190],"times":[1039,1223],"next_num":2,"trial_type":"ticket-choose","trial_index":108,"time_elapsed":1226654,"internal_node_id":"0.0-108.0"},{"result":30,"points":3,"place":0,"phase":1,"sequence":24,"prices":[155,30,101,55,136,276,70,181,200,261],"times":[3059,1267],"next_num":2,"trial_type":"ticket-choose","trial_index":109,"time_elapsed":1233433,"internal_node_id":"0.0-109.0"},{"result":121,"points":2,"place":1,"phase":1,"sequence":25,"prices":[150,170,160,240,166,185,121,136,95,191],"times":[819,530,584,586,497,581,911],"next_num":7,"trial_type":"ticket-choose","trial_index":110,"time_elapsed":1241460,"internal_node_id":"0.0-110.0"},{"result":121,"points":2,"place":1,"phase":1,"sequence":26,"prices":[146,170,121,245,166,190,161,141,100,195],"times":[182696,568,859],"next_num":3,"trial_type":"ticket-choose","trial_index":111,"time_elapsed":1429215,"internal_node_id":"0.0-111.0"},{"result":95,"points":3,"place":0,"phase":1,"sequence":27,"prices":[95,205,106,151,186,271,145,210,215,181],"times":[1260],"next_num":1,"trial_type":"ticket-choose","trial_index":112,"time_elapsed":1432577,"internal_node_id":"0.0-112.0"},{"result":131,"points":2,"place":1,"phase":1,"sequence":28,"prices":[156,181,171,256,175,200,131,150,110,206],"times":[14642,590,580,581,532,660,1533],"next_num":7,"trial_type":"ticket-choose","trial_index":113,"time_elapsed":1456172,"internal_node_id":"0.0-113.0"},{"result":130,"points":2,"place":1,"phase":1,"sequence":29,"prices":[156,181,130,255,175,200,170,150,111,205],"times":[853,615,1245],"next_num":3,"trial_type":"ticket-choose","trial_index":114,"time_elapsed":1461733,"internal_node_id":"0.0-114.0"},{"result":130,"points":3,"place":0,"phase":1,"sequence":30,"prices":[130,195,141,155,181,226,150,216,221,175],"times":[1357],"next_num":1,"trial_type":"ticket-choose","trial_index":115,"time_elapsed":1465472,"internal_node_id":"0.0-115.0"},{"result":111,"points":3,"place":0,"phase":1,"sequence":31,"prices":[175,211,266,286,111,216,220,245,230,165],"times":[714,665,611,540,1216],"next_num":5,"trial_type":"ticket-choose","trial_index":116,"time_elapsed":1472671,"internal_node_id":"0.0-116.0"},{"result":51,"points":3,"place":0,"phase":1,"sequence":32,"prices":[221,175,51,196,146,130,166,80,126,156],"times":[989,719,1175],"next_num":3,"trial_type":"ticket-choose","trial_index":117,"time_elapsed":1478114,"internal_node_id":"0.0-117.0"},{"result":136,"points":1,"place":2,"phase":1,"sequence":33,"prices":[150,170,160,241,166,186,120,136,96,191],"times":[1393,684,1613,605,736,927,1500,1042],"next_num":8,"trial_type":"ticket-choose","trial_index":118,"time_elapsed":1490824,"internal_node_id":"0.0-118.0"},{"result":130,"points":3,"place":0,"phase":1,"sequence":34,"prices":[185,175,276,221,130,141,171,216,235,165],"times":[1277,1422,590,613,955],"next_num":5,"trial_type":"ticket-choose","trial_index":119,"time_elapsed":1499149,"internal_node_id":"0.0-119.0"},{"result":120,"points":2,"place":1,"phase":1,"sequence":35,"prices":[145,171,161,245,165,191,120,140,100,196],"times":[1079,603,570,598,730,615,1069],"next_num":7,"trial_type":"ticket-choose","trial_index":120,"time_elapsed":1507619,"internal_node_id":"0.0-120.0"},{"result":120,"points":2,"place":1,"phase":1,"sequence":36,"prices":[150,171,120,241,165,185,160,135,96,190],"times":[572,602,1111],"next_num":3,"trial_type":"ticket-choose","trial_index":121,"time_elapsed":1512320,"internal_node_id":"0.0-121.0"},{"result":131,"points":2,"place":1,"phase":1,"sequence":37,"prices":[161,180,131,251,175,196,171,146,105,201],"times":[827,727,1226],"next_num":3,"trial_type":"ticket-choose","trial_index":122,"time_elapsed":1517669,"internal_node_id":"0.0-122.0"},{"result":120,"points":2,"place":1,"phase":1,"sequence":38,"prices":[186,156,191,120,195,145,45,130,246,176],"times":[824,802,630,1129],"next_num":4,"trial_type":"ticket-choose","trial_index":123,"time_elapsed":1523751,"internal_node_id":"0.0-123.0"},{"result":126,"points":2,"place":1,"phase":1,"sequence":39,"prices":[150,176,126,251,171,195,165,145,105,200],"times":[930,1055,1039],"next_num":3,"trial_type":"ticket-choose","trial_index":124,"time_elapsed":1529363,"internal_node_id":"0.0-124.0"},{"result":130,"points":2,"place":1,"phase":1,"sequence":40,"prices":[155,225,245,130,176,106,180,211,165,200],"times":[1435,620,624,913],"next_num":4,"trial_type":"ticket-choose","trial_index":125,"time_elapsed":1535812,"internal_node_id":"0.0-125.0"},{"result":136,"points":1,"place":2,"phase":1,"sequence":41,"prices":[255,166,266,175,136,145,155,61,96,301],"times":[956,934,545,1020,942],"next_num":5,"trial_type":"ticket-choose","trial_index":126,"time_elapsed":1543266,"internal_node_id":"0.0-126.0"},{"result":131,"points":2,"place":1,"phase":1,"sequence":42,"prices":[156,181,131,256,176,200,171,151,111,206],"times":[3156,659,1045],"next_num":3,"trial_type":"ticket-choose","trial_index":127,"time_elapsed":1550503,"internal_node_id":"0.0-127.0"},{"result":185,"points":0,"place":5,"phase":1,"sequence":43,"prices":[181,156,145,165,236,231,201,260,150,185],"times":[1119,1133,532,578,633,583,640,532,1204,776],"next_num":10,"trial_type":"ticket-choose","trial_index":128,"time_elapsed":1562550,"internal_node_id":"0.0-128.0"},{"result":106,"points":2,"place":1,"phase":1,"sequence":44,"prices":[185,180,235,210,106,266,76,115,250,205],"times":[1024,581,617,592,1104],"next_num":5,"trial_type":"ticket-choose","trial_index":129,"time_elapsed":1569562,"internal_node_id":"0.0-129.0"},{"result":75,"points":3,"place":0,"phase":1,"sequence":45,"prices":[75,171,131,151,161,250,145,190,206,156],"times":[1523],"next_num":1,"trial_type":"ticket-choose","trial_index":130,"time_elapsed":1573389,"internal_node_id":"0.0-130.0"},{"result":136,"points":3,"place":0,"phase":1,"sequence":46,"prices":[246,145,155,191,176,270,185,136,160,215],"times":[850,1039,584,636,601,667,695,957],"next_num":8,"trial_type":"ticket-choose","trial_index":131,"time_elapsed":1582839,"internal_node_id":"0.0-131.0"},{"result":66,"points":3,"place":0,"phase":1,"sequence":47,"prices":[66,201,96,150,185,230,121,216,225,165],"times":[1968],"next_num":1,"trial_type":"ticket-choose","trial_index":132,"time_elapsed":1586854,"internal_node_id":"0.0-132.0"},{"result":116,"points":3,"place":0,"phase":1,"sequence":48,"prices":[176,150,276,171,261,116,130,201,166,231],"times":[993,740,576,1006,657,924],"next_num":6,"trial_type":"ticket-choose","trial_index":133,"time_elapsed":1594856,"internal_node_id":"0.0-133.0"},{"result":125,"points":1,"place":2,"phase":1,"sequence":49,"prices":[226,205,125,120,115,135,180,145,150,220],"times":[2248,586,1062],"next_num":3,"trial_type":"ticket-choose","trial_index":134,"time_elapsed":1601436,"internal_node_id":"0.0-134.0"},{"responses":[{"value":3,"offby":2,"category":"$30 - $75","category_index":0},{"value":3,"offby":1,"category":"$76 - $120","category_index":1},{"value":3,"offby":-1,"category":"$121 - $165","category_index":2},{"value":3,"offby":-3,"category":"$166 - $210","category_index":3},{"value":3,"offby":-3,"category":"$211 - $255","category_index":4},{"value":3,"offby":2,"category":"$256 - $300","category_index":5},{"value":2,"offby":2,"category":"$301 - $345","category_index":6}],"phase":1,"number":1,"trial_type":"bar-choose","trial_index":135,"time_elapsed":1619052,"internal_node_id":"0.0-135.0"},{"special_comment":"no","trial_type":"special_sequence","trial_index":136,"time_elapsed":1624615,"internal_node_id":"0.0-136.0"},{"during":"Nothing","bonus":204,"trial_type":"final","trial_index":137,"time_elapsed":1647656,"internal_node_id":"0.0-137.0"}],"bonus":204}