{"start_time":"2017-02-21 11:00:43","end_time":"2017-02-21 11:37:39","points_phase0":119,"points_phase1":112,"phase_order":1,"age":37,"gender":"f","tries":2,"during":"Nothing","worker_id":"ABMX8XUNPR3LP","assignment_id":"33OOO72IVIEEIJ2FCIULD1KYNSVCTH","data":[{"rt":37918,"url":"\/tickets\/utils\/consent.html","trial_type":"html","trial_index":0,"time_elapsed":38122,"internal_node_id":"0.0-0.0"},{"age":37,"gender":"f","trial_type":"age","trial_index":1,"time_elapsed":75442,"internal_node_id":"0.0-1.0"},{"worker_id":"ABMX8XUNPR3LP","trial_type":"workerid","trial_index":2,"time_elapsed":105620,"internal_node_id":"0.0-2.0"},{"tries":2,"trial_type":"instructions_check","trial_index":3,"time_elapsed":414119,"internal_node_id":"0.0-3.0"},{"rt":6226,"url":"\/tickets\/utils\/start.html","trial_type":"html","trial_index":4,"time_elapsed":421469,"internal_node_id":"0.0-4.0"},{"trial_type":"number-animation","trial_index":5,"time_elapsed":434893,"internal_node_id":"0.0-5.0"},{"phase":0,"sequence":0,"avg":182,"response":160,"trial_type":"training_avg","trial_index":6,"time_elapsed":452449,"internal_node_id":"0.0-6.0"},{"trial_type":"number-animation","trial_index":7,"time_elapsed":464611,"internal_node_id":"0.0-7.0"},{"phase":0,"sequence":1,"avg":188,"response":180,"trial_type":"training_avg","trial_index":8,"time_elapsed":473613,"internal_node_id":"0.0-8.0"},{"trial_type":"number-animation","trial_index":9,"time_elapsed":484158,"internal_node_id":"0.0-9.0"},{"phase":0,"sequence":2,"avg":176,"response":175,"trial_type":"training_avg","trial_index":10,"time_elapsed":491298,"internal_node_id":"0.0-10.0"},{"trial_type":"number-animation","trial_index":11,"time_elapsed":501313,"internal_node_id":"0.0-11.0"},{"phase":0,"sequence":3,"avg":180,"response":185,"trial_type":"training_avg","trial_index":12,"time_elapsed":508128,"internal_node_id":"0.0-12.0"},{"trial_type":"number-animation","trial_index":13,"time_elapsed":517843,"internal_node_id":"0.0-13.0"},{"phase":0,"sequence":4,"avg":174,"response":175,"trial_type":"training_avg","trial_index":14,"time_elapsed":525899,"internal_node_id":"0.0-14.0"},{"responses":[{"value":0,"offby":-1,"category":"$90 - $120","category_index":0},{"value":4,"offby":1,"category":"$121 - $145","category_index":1},{"value":6,"offby":3,"category":"$146 - $170","category_index":2},{"value":7,"offby":1,"category":"$171 - $195","category_index":3},{"value":2,"offby":-2,"category":"$196 - $220","category_index":4},{"value":1,"offby":-1,"category":"$221 - $245","category_index":5},{"value":0,"offby":-1,"category":"$246 - $270","category_index":6}],"phase":0,"number":0,"trial_type":"bar-choose","trial_index":15,"time_elapsed":563960,"internal_node_id":"0.0-15.0"},{"rt":13312,"url":"\/tickets\/\/utils\/testing.html","trial_type":"html","trial_index":16,"time_elapsed":578406,"internal_node_id":"0.0-16.0"},{"phase":0,"order":[2,49,1,29,0,38,34,4,15,7,45,28,20,5,19,3,17,25,18,35,44,48,21,12,14,22,27,24,10,33,31,13,36,26,40,16,42,46,37,23,43,8,11,47,39,6,9,32,41,30],"trial_type":"store_order","trial_index":17,"time_elapsed":579408,"internal_node_id":"0.0-17.0"},{"result":165,"points":2,"place":1,"phase":0,"sequence":-1,"prices":[184,180,224,165,181,199,185,193,218,126],"times":[3077,2608,977,1639],"next_num":4,"trial_type":"ticket-choose","trial_index":18,"time_elapsed":590954,"internal_node_id":"0.0-18.0"},{"rt":545518,"url":"\/tickets\/utils\/testing_after.html","trial_type":"html","trial_index":19,"time_elapsed":1137715,"internal_node_id":"0.0-19.0"},{"result":138,"points":1,"place":2,"phase":0,"sequence":0,"prices":[181,138,118,170,190,101,146,169,175,233],"times":[2175,1434],"next_num":2,"trial_type":"ticket-choose","trial_index":20,"time_elapsed":1144274,"internal_node_id":"0.0-20.0"},{"result":126,"points":3,"place":0,"phase":0,"sequence":1,"prices":[173,191,146,242,178,194,172,152,126,235],"times":[1314,699,1152,581,508,712,607,798,1007],"next_num":9,"trial_type":"ticket-choose","trial_index":21,"time_elapsed":1155833,"internal_node_id":"0.0-21.0"},{"result":126,"points":3,"place":0,"phase":0,"sequence":2,"prices":[170,193,146,268,178,195,172,149,126,241],"times":[1229,629,605,594,502,525,611,837,1066],"next_num":9,"trial_type":"ticket-choose","trial_index":22,"time_elapsed":1166648,"internal_node_id":"0.0-22.0"},{"result":131,"points":3,"place":0,"phase":0,"sequence":3,"prices":[170,190,176,251,183,192,154,157,236,131],"times":[1775,608,869,1498,829,673,1952,852,1036,1205],"next_num":10,"trial_type":"ticket-choose","trial_index":23,"time_elapsed":1221175,"internal_node_id":"0.0-23.0"},{"result":162,"points":1,"place":3,"phase":0,"sequence":4,"prices":[197,153,181,215,150,155,164,247,177,162],"times":[1369,569,564,570,646,723,612,691,519,1005],"next_num":10,"trial_type":"ticket-choose","trial_index":24,"time_elapsed":1232951,"internal_node_id":"0.0-24.0"},{"result":146,"points":2,"place":1,"phase":0,"sequence":5,"prices":[172,191,176,272,179,194,146,152,126,235],"times":[1002,541,599,507,537,525,1114],"next_num":7,"trial_type":"ticket-choose","trial_index":25,"time_elapsed":1241286,"internal_node_id":"0.0-25.0"},{"result":126,"points":3,"place":0,"phase":0,"sequence":6,"prices":[169,193,154,255,178,194,176,158,239,126],"times":[931,490,594,719,574,673,588,867,646,835],"next_num":10,"trial_type":"ticket-choose","trial_index":26,"time_elapsed":1252716,"internal_node_id":"0.0-26.0"},{"result":119,"points":3,"place":0,"phase":0,"sequence":7,"prices":[198,119,169,141,195,233,136,208,177,217],"times":[810,1032],"next_num":2,"trial_type":"ticket-choose","trial_index":27,"time_elapsed":1257258,"internal_node_id":"0.0-27.0"},{"result":188,"points":1,"place":4,"phase":0,"sequence":8,"prices":[142,207,171,182,190,269,180,218,256,188],"times":[794,574,543,491,535,549,515,594,540,1485],"next_num":10,"trial_type":"ticket-choose","trial_index":28,"time_elapsed":1268114,"internal_node_id":"0.0-28.0"},{"result":149,"points":2,"place":1,"phase":0,"sequence":9,"prices":[196,221,149,164,216,167,175,128,176,181],"times":[713,508,1397],"next_num":3,"trial_type":"ticket-choose","trial_index":29,"time_elapsed":1273106,"internal_node_id":"0.0-29.0"},{"result":136,"points":2,"place":1,"phase":0,"sequence":10,"prices":[173,191,174,270,180,193,136,153,239,129],"times":[597,574,501,581,520,587,1018],"next_num":7,"trial_type":"ticket-choose","trial_index":30,"time_elapsed":1280792,"internal_node_id":"0.0-30.0"},{"result":149,"points":3,"place":0,"phase":0,"sequence":11,"prices":[244,203,196,189,154,206,197,149,171,159],"times":[658,671,587,502,558,593,565,1050],"next_num":8,"trial_type":"ticket-choose","trial_index":31,"time_elapsed":1290878,"internal_node_id":"0.0-31.0"},{"result":146,"points":2,"place":1,"phase":0,"sequence":12,"prices":[169,193,146,237,180,196,172,150,129,236],"times":[722,495,889],"next_num":3,"trial_type":"ticket-choose","trial_index":32,"time_elapsed":1295395,"internal_node_id":"0.0-32.0"},{"result":146,"points":2,"place":1,"phase":0,"sequence":13,"prices":[168,191,146,252,183,193,172,153,126,238],"times":[777,632,990],"next_num":3,"trial_type":"ticket-choose","trial_index":33,"time_elapsed":1300267,"internal_node_id":"0.0-33.0"},{"result":136,"points":2,"place":1,"phase":0,"sequence":14,"prices":[170,192,174,242,181,196,136,153,236,128],"times":[668,619,552,1201,499,536,1649],"next_num":7,"trial_type":"ticket-choose","trial_index":34,"time_elapsed":1355053,"internal_node_id":"0.0-34.0"},{"result":135,"points":3,"place":0,"phase":0,"sequence":15,"prices":[135,202,150,169,183,225,160,211,220,172],"times":[1211],"next_num":1,"trial_type":"ticket-choose","trial_index":35,"time_elapsed":1358345,"internal_node_id":"0.0-35.0"},{"result":124,"points":3,"place":0,"phase":0,"sequence":16,"prices":[124,220,136,165,185,234,143,225,228,179],"times":[1091],"next_num":1,"trial_type":"ticket-choose","trial_index":36,"time_elapsed":1361830,"internal_node_id":"0.0-36.0"},{"result":129,"points":2,"place":1,"phase":0,"sequence":17,"prices":[155,129,164,189,210,108,187,241,174,275],"times":[1167,872],"next_num":2,"trial_type":"ticket-choose","trial_index":37,"time_elapsed":1366026,"internal_node_id":"0.0-37.0"},{"result":146,"points":1,"place":2,"phase":0,"sequence":18,"prices":[186,146,191,179,152,116,140,201,172,187],"times":[861,1395],"next_num":2,"trial_type":"ticket-choose","trial_index":38,"time_elapsed":1370502,"internal_node_id":"0.0-38.0"},{"result":125,"points":3,"place":0,"phase":0,"sequence":19,"prices":[169,192,176,244,178,194,154,159,237,125],"times":[760,756,650,519,843,560,617,559,594,844],"next_num":10,"trial_type":"ticket-choose","trial_index":39,"time_elapsed":1381186,"internal_node_id":"0.0-39.0"},{"result":136,"points":2,"place":1,"phase":0,"sequence":20,"prices":[172,190,136,270,179,192,174,152,237,129],"times":[865,641,1018],"next_num":3,"trial_type":"ticket-choose","trial_index":40,"time_elapsed":1386031,"internal_node_id":"0.0-40.0"},{"result":136,"points":3,"place":0,"phase":0,"sequence":21,"prices":[240,188,273,207,250,136,217,170,171,236],"times":[713,555,642,602,532,924],"next_num":6,"trial_type":"ticket-choose","trial_index":41,"time_elapsed":1393165,"internal_node_id":"0.0-41.0"},{"result":135,"points":3,"place":0,"phase":0,"sequence":22,"prices":[221,193,135,188,217,179,196,190,175,159],"times":[973,689,912],"next_num":3,"trial_type":"ticket-choose","trial_index":42,"time_elapsed":1398313,"internal_node_id":"0.0-42.0"},{"result":133,"points":3,"place":0,"phase":0,"sequence":23,"prices":[169,191,154,268,183,197,176,155,236,133],"times":[658,541,838,569,646,598,581,1134,705,800],"next_num":10,"trial_type":"ticket-choose","trial_index":43,"time_elapsed":1409432,"internal_node_id":"0.0-43.0"},{"result":126,"points":3,"place":0,"phase":0,"sequence":24,"prices":[170,193,176,245,178,194,154,159,236,126],"times":[814,543,604,579,538,831,1052,747,828,778],"next_num":10,"trial_type":"ticket-choose","trial_index":44,"time_elapsed":1420703,"internal_node_id":"0.0-44.0"},{"result":133,"points":3,"place":0,"phase":0,"sequence":25,"prices":[168,192,154,237,182,196,176,156,235,133],"times":[678,476,880,512,508,563,517,783,600,700],"next_num":10,"trial_type":"ticket-choose","trial_index":45,"time_elapsed":1430979,"internal_node_id":"0.0-45.0"},{"result":105,"points":3,"place":0,"phase":0,"sequence":26,"prices":[263,165,224,214,105,230,215,185,177,193],"times":[43915,732,558,594,905],"next_num":5,"trial_type":"ticket-choose","trial_index":46,"time_elapsed":1480448,"internal_node_id":"0.0-46.0"},{"result":136,"points":2,"place":1,"phase":0,"sequence":27,"prices":[173,194,136,239,182,200,174,150,236,127],"times":[742,552,1070],"next_num":3,"trial_type":"ticket-choose","trial_index":47,"time_elapsed":1485177,"internal_node_id":"0.0-47.0"},{"result":136,"points":2,"place":1,"phase":0,"sequence":28,"prices":[172,194,174,243,182,193,136,150,237,126],"times":[641,539,595,595,544,561,913],"next_num":7,"trial_type":"ticket-choose","trial_index":48,"time_elapsed":1493107,"internal_node_id":"0.0-48.0"},{"result":146,"points":2,"place":1,"phase":0,"sequence":29,"prices":[168,191,172,240,183,193,146,151,125,238],"times":[449,612,445,588,542,500,930],"next_num":7,"trial_type":"ticket-choose","trial_index":49,"time_elapsed":1500459,"internal_node_id":"0.0-49.0"},{"result":130,"points":2,"place":1,"phase":0,"sequence":30,"prices":[181,130,116,142,157,193,165,218,173,207],"times":[925,881],"next_num":2,"trial_type":"ticket-choose","trial_index":50,"time_elapsed":1504578,"internal_node_id":"0.0-50.0"},{"result":146,"points":2,"place":1,"phase":0,"sequence":31,"prices":[171,195,172,242,179,196,146,150,128,235],"times":[678,518,492,548,606,596,1281],"next_num":7,"trial_type":"ticket-choose","trial_index":51,"time_elapsed":1512584,"internal_node_id":"0.0-51.0"},{"result":145,"points":2,"place":1,"phase":0,"sequence":32,"prices":[216,206,158,145,224,185,124,149,175,162],"times":[863,509,596,1294],"next_num":4,"trial_type":"ticket-choose","trial_index":52,"time_elapsed":1518480,"internal_node_id":"0.0-52.0"},{"result":137,"points":3,"place":0,"phase":0,"sequence":33,"prices":[137,187,152,156,166,231,155,194,202,160],"times":[1186],"next_num":1,"trial_type":"ticket-choose","trial_index":53,"time_elapsed":1521800,"internal_node_id":"0.0-53.0"},{"result":189,"points":1,"place":4,"phase":0,"sequence":34,"prices":[157,213,159,187,194,242,161,222,225,189],"times":[704,540,643,625,630,634,621,528,696,828],"next_num":10,"trial_type":"ticket-choose","trial_index":54,"time_elapsed":1532355,"internal_node_id":"0.0-54.0"},{"result":192,"points":1,"place":4,"phase":0,"sequence":35,"prices":[157,205,161,175,197,254,165,210,214,192],"times":[822,565,612,649,675,623,616,556,588,942],"next_num":10,"trial_type":"ticket-choose","trial_index":55,"time_elapsed":1542916,"internal_node_id":"0.0-55.0"},{"result":131,"points":2,"place":1,"phase":0,"sequence":36,"prices":[221,234,131,136,132,149,154,90,176,173],"times":[676,576,1118],"next_num":3,"trial_type":"ticket-choose","trial_index":56,"time_elapsed":1547788,"internal_node_id":"0.0-56.0"},{"result":127,"points":3,"place":0,"phase":0,"sequence":37,"prices":[169,194,154,271,178,201,176,158,236,127],"times":[2128,767,819,739,610,620,558,807,654,727],"next_num":10,"trial_type":"ticket-choose","trial_index":57,"time_elapsed":1560198,"internal_node_id":"0.0-57.0"},{"result":114,"points":3,"place":0,"phase":0,"sequence":38,"prices":[182,249,159,114,184,205,175,189,172,178],"times":[19585,519,642,883],"next_num":4,"trial_type":"ticket-choose","trial_index":58,"time_elapsed":1584505,"internal_node_id":"0.0-58.0"},{"result":117,"points":3,"place":0,"phase":0,"sequence":39,"prices":[117,161,120,147,153,259,144,191,195,149],"times":[4906],"next_num":1,"trial_type":"ticket-choose","trial_index":59,"time_elapsed":1591366,"internal_node_id":"0.0-59.0"},{"result":136,"points":2,"place":1,"phase":0,"sequence":40,"prices":[169,192,174,246,180,195,136,152,238,126],"times":[1475,511,1745,754,840,1037,931],"next_num":7,"trial_type":"ticket-choose","trial_index":60,"time_elapsed":1602008,"internal_node_id":"0.0-60.0"},{"result":121,"points":3,"place":0,"phase":0,"sequence":41,"prices":[121,191,128,141,166,217,129,196,202,157],"times":[1153],"next_num":1,"trial_type":"ticket-choose","trial_index":61,"time_elapsed":1604994,"internal_node_id":"0.0-61.0"},{"result":136,"points":2,"place":1,"phase":0,"sequence":42,"prices":[171,192,136,243,182,195,174,154,236,128],"times":[1157,602,854],"next_num":3,"trial_type":"ticket-choose","trial_index":62,"time_elapsed":1609854,"internal_node_id":"0.0-62.0"},{"result":132,"points":3,"place":0,"phase":0,"sequence":43,"prices":[132,222,144,153,190,248,151,224,228,179],"times":[997],"next_num":1,"trial_type":"ticket-choose","trial_index":63,"time_elapsed":1613454,"internal_node_id":"0.0-63.0"},{"result":146,"points":2,"place":1,"phase":0,"sequence":44,"prices":[171,191,172,268,179,194,146,150,127,239],"times":[888,620,592,529,508,517,958],"next_num":7,"trial_type":"ticket-choose","trial_index":64,"time_elapsed":1621240,"internal_node_id":"0.0-64.0"},{"result":146,"points":3,"place":0,"phase":0,"sequence":45,"prices":[156,218,212,216,191,210,275,146,174,152],"times":[923,571,700,564,707,764,556,1652],"next_num":8,"trial_type":"ticket-choose","trial_index":65,"time_elapsed":1631484,"internal_node_id":"0.0-65.0"},{"result":143,"points":3,"place":0,"phase":0,"sequence":46,"prices":[143,206,153,194,201,267,168,208,210,196],"times":[946],"next_num":1,"trial_type":"ticket-choose","trial_index":66,"time_elapsed":1634624,"internal_node_id":"0.0-66.0"},{"result":132,"points":3,"place":0,"phase":0,"sequence":47,"prices":[168,192,176,242,183,197,154,156,237,132],"times":[1000,697,2346,632,577,630,972,1262,755,735],"next_num":10,"trial_type":"ticket-choose","trial_index":67,"time_elapsed":1648266,"internal_node_id":"0.0-67.0"},{"result":124,"points":3,"place":0,"phase":0,"sequence":48,"prices":[219,183,227,124,176,161,140,129,171,201],"times":[739,8762,611,1040],"next_num":4,"trial_type":"ticket-choose","trial_index":68,"time_elapsed":1662270,"internal_node_id":"0.0-68.0"},{"result":136,"points":2,"place":1,"phase":0,"sequence":49,"prices":[171,192,136,265,180,194,174,152,239,127],"times":[1182,629,1142],"next_num":3,"trial_type":"ticket-choose","trial_index":69,"time_elapsed":1668060,"internal_node_id":"0.0-69.0"},{"responses":[{"value":1,"offby":0,"category":"$90 - $120","category_index":0},{"value":2,"offby":-1,"category":"$121 - $145","category_index":1},{"value":4,"offby":1,"category":"$146 - $170","category_index":2},{"value":5,"offby":-1,"category":"$171 - $195","category_index":3},{"value":5,"offby":1,"category":"$196 - $220","category_index":4},{"value":2,"offby":0,"category":"$221 - $245","category_index":5},{"value":1,"offby":0,"category":"$246 - $270","category_index":6}],"phase":0,"number":1,"trial_type":"bar-choose","trial_index":70,"time_elapsed":1702345,"internal_node_id":"0.0-70.0"},{"rt":4384,"url":"\/tickets\/utils\/start2.html","trial_type":"html","trial_index":71,"time_elapsed":1707889,"internal_node_id":"0.0-71.0"},{"trial_type":"number-animation","trial_index":72,"time_elapsed":1718613,"internal_node_id":"0.0-72.0"},{"phase":1,"sequence":0,"avg":181,"response":180,"trial_type":"training_avg","trial_index":73,"time_elapsed":1725679,"internal_node_id":"0.0-73.0"},{"trial_type":"number-animation","trial_index":74,"time_elapsed":1737136,"internal_node_id":"0.0-74.0"},{"phase":1,"sequence":1,"avg":188,"response":186,"trial_type":"training_avg","trial_index":75,"time_elapsed":1742459,"internal_node_id":"0.0-75.0"},{"trial_type":"number-animation","trial_index":76,"time_elapsed":1752198,"internal_node_id":"0.0-76.0"},{"phase":1,"sequence":2,"avg":188,"response":189,"trial_type":"training_avg","trial_index":77,"time_elapsed":1759441,"internal_node_id":"0.0-77.0"},{"trial_type":"number-animation","trial_index":78,"time_elapsed":1769338,"internal_node_id":"0.0-78.0"},{"phase":1,"sequence":3,"avg":177,"response":179,"trial_type":"training_avg","trial_index":79,"time_elapsed":1775295,"internal_node_id":"0.0-79.0"},{"trial_type":"number-animation","trial_index":80,"time_elapsed":1784055,"internal_node_id":"0.0-80.0"},{"phase":1,"sequence":4,"avg":182,"response":182,"trial_type":"training_avg","trial_index":81,"time_elapsed":1790039,"internal_node_id":"0.0-81.0"},{"responses":[{"value":1,"offby":1,"category":"$106 - $134","category_index":0},{"value":2,"offby":1,"category":"$135 - $150","category_index":1},{"value":3,"offby":0,"category":"$151 - $165","category_index":2},{"value":4,"offby":-2,"category":"$166 - $180","category_index":3},{"value":5,"offby":-1,"category":"$181 - $195","category_index":4},{"value":3,"offby":0,"category":"$196 - $210","category_index":5},{"value":2,"offby":1,"category":"$211 - $225","category_index":6}],"phase":1,"number":0,"trial_type":"bar-choose","trial_index":82,"time_elapsed":1828512,"internal_node_id":"0.0-82.0"},{"rt":12795,"url":"\/tickets\/utils\/testing2.html","trial_type":"html","trial_index":83,"time_elapsed":1842493,"internal_node_id":"0.0-83.0"},{"phase":1,"order":[44,0,3,13,39,4,10,40,24,36,23,45,1,2,21,30,26,35,49,14,19,46,43,9,15,8,42,18,22,6,34,5,37,33,28,27,41,11,48,31,20,29,17,25,7,38,32,12,47,16],"trial_type":"store_order","trial_index":84,"time_elapsed":1843498,"internal_node_id":"0.0-84.0"},{"result":209,"points":0,"place":8,"phase":1,"sequence":0,"prices":[174,186,163,212,181,187,176,166,153,209],"times":[7472,1228,2104,561,595,487,523,970,556,1268],"next_num":11,"trial_type":"ticket-choose","trial_index":85,"time_elapsed":1863622,"internal_node_id":"0.0-85.0"},{"result":148,"points":3,"place":0,"phase":1,"sequence":1,"prices":[183,163,185,180,166,148,160,186,176,184],"times":[987,2507,608,527,808,1021],"next_num":6,"trial_type":"ticket-choose","trial_index":86,"time_elapsed":1873170,"internal_node_id":"0.0-86.0"},{"result":163,"points":2,"place":1,"phase":1,"sequence":2,"prices":[175,187,163,209,180,188,176,165,154,208],"times":[1803,831,1323],"next_num":3,"trial_type":"ticket-choose","trial_index":87,"time_elapsed":1879576,"internal_node_id":"0.0-87.0"},{"result":150,"points":3,"place":0,"phase":1,"sequence":3,"prices":[150,185,154,161,173,199,155,188,191,168],"times":[1051],"next_num":1,"trial_type":"ticket-choose","trial_index":88,"time_elapsed":1882681,"internal_node_id":"0.0-88.0"},{"result":163,"points":2,"place":1,"phase":1,"sequence":4,"prices":[176,186,163,214,179,187,176,166,153,208],"times":[865,605,1026],"next_num":3,"trial_type":"ticket-choose","trial_index":89,"time_elapsed":1887534,"internal_node_id":"0.0-89.0"},{"result":168,"points":1,"place":2,"phase":1,"sequence":5,"prices":[168,199,196,198,185,195,227,163,177,166],"times":[1235],"next_num":1,"trial_type":"ticket-choose","trial_index":90,"time_elapsed":1890637,"internal_node_id":"0.0-90.0"},{"result":155,"points":2,"place":1,"phase":1,"sequence":6,"prices":[181,155,148,161,168,187,172,199,176,194],"times":[1046,920],"next_num":2,"trial_type":"ticket-choose","trial_index":91,"time_elapsed":1894741,"internal_node_id":"0.0-91.0"},{"result":163,"points":2,"place":1,"phase":1,"sequence":7,"prices":[176,186,176,210,179,187,163,166,153,208],"times":[1294,691,742,580,602,797,1382],"next_num":7,"trial_type":"ticket-choose","trial_index":92,"time_elapsed":1904184,"internal_node_id":"0.0-92.0"},{"result":167,"points":2,"place":1,"phase":1,"sequence":8,"prices":[175,187,178,209,179,187,167,169,208,153],"times":[795,552,516,612,532,540,959],"next_num":7,"trial_type":"ticket-choose","trial_index":93,"time_elapsed":1911997,"internal_node_id":"0.0-93.0"},{"result":163,"points":2,"place":1,"phase":1,"sequence":9,"prices":[175,186,176,224,179,187,163,165,153,210],"times":[649,522,642,593,579,579,989],"next_num":7,"trial_type":"ticket-choose","trial_index":94,"time_elapsed":1919849,"internal_node_id":"0.0-94.0"},{"result":167,"points":2,"place":1,"phase":1,"sequence":10,"prices":[212,192,188,184,167,193,189,164,176,170],"times":[714,566,577,626,871],"next_num":5,"trial_type":"ticket-choose","trial_index":95,"time_elapsed":1925869,"internal_node_id":"0.0-95.0"},{"result":169,"points":3,"place":0,"phase":1,"sequence":11,"prices":[169,196,170,184,187,211,171,201,202,185],"times":[2508],"next_num":1,"trial_type":"ticket-choose","trial_index":96,"time_elapsed":1930339,"internal_node_id":"0.0-96.0"},{"result":158,"points":2,"place":1,"phase":1,"sequence":12,"prices":[175,186,177,221,180,187,158,166,209,153],"times":[826,624,578,572,518,535,1001],"next_num":7,"trial_type":"ticket-choose","trial_index":97,"time_elapsed":1938486,"internal_node_id":"0.0-97.0"},{"result":163,"points":2,"place":1,"phase":1,"sequence":13,"prices":[175,187,176,209,180,188,163,165,154,208],"times":[798,703,700,743,603,579,944],"next_num":7,"trial_type":"ticket-choose","trial_index":98,"time_elapsed":1947141,"internal_node_id":"0.0-98.0"},{"result":158,"points":2,"place":1,"phase":1,"sequence":14,"prices":[176,185,158,217,180,186,177,166,209,154],"times":[1779,751,981],"next_num":3,"trial_type":"ticket-choose","trial_index":99,"time_elapsed":1952924,"internal_node_id":"0.0-99.0"},{"result":163,"points":2,"place":1,"phase":1,"sequence":15,"prices":[175,186,163,211,179,187,176,165,153,210],"times":[779,645,1059],"next_num":3,"trial_type":"ticket-choose","trial_index":100,"time_elapsed":1957783,"internal_node_id":"0.0-100.0"},{"result":158,"points":2,"place":1,"phase":1,"sequence":16,"prices":[175,186,158,209,181,188,177,167,208,154],"times":[587,603,1049],"next_num":3,"trial_type":"ticket-choose","trial_index":101,"time_elapsed":1962305,"internal_node_id":"0.0-101.0"},{"result":156,"points":3,"place":0,"phase":1,"sequence":17,"prices":[156,201,162,166,185,214,165,202,204,179],"times":[1087],"next_num":1,"trial_type":"ticket-choose","trial_index":102,"time_elapsed":1965367,"internal_node_id":"0.0-102.0"},{"result":158,"points":2,"place":1,"phase":1,"sequence":18,"prices":[176,187,158,210,181,187,177,165,208,153],"times":[869,731,844],"next_num":3,"trial_type":"ticket-choose","trial_index":103,"time_elapsed":1970147,"internal_node_id":"0.0-103.0"},{"result":168,"points":1,"place":2,"phase":1,"sequence":19,"prices":[168,154,172,185,195,144,184,211,177,227],"times":[978],"next_num":1,"trial_type":"ticket-choose","trial_index":104,"time_elapsed":1973398,"internal_node_id":"0.0-104.0"},{"result":159,"points":1,"place":2,"phase":1,"sequence":20,"prices":[180,159,149,175,185,141,163,174,178,207],"times":[733,1009],"next_num":2,"trial_type":"ticket-choose","trial_index":105,"time_elapsed":1977296,"internal_node_id":"0.0-105.0"},{"result":169,"points":2,"place":1,"phase":1,"sequence":21,"prices":[181,215,169,147,182,193,177,184,176,179],"times":[727,815,1381],"next_num":3,"trial_type":"ticket-choose","trial_index":106,"time_elapsed":1982543,"internal_node_id":"0.0-106.0"},{"result":158,"points":2,"place":1,"phase":1,"sequence":22,"prices":[175,186,177,209,181,188,158,167,208,154],"times":[1097,666,617,618,721,792,857],"next_num":7,"trial_type":"ticket-choose","trial_index":107,"time_elapsed":1991168,"internal_node_id":"0.0-107.0"},{"result":167,"points":2,"place":1,"phase":1,"sequence":23,"prices":[174,186,178,217,181,188,167,168,208,156],"times":[1015,758,625,804,709,640,1471],"next_num":7,"trial_type":"ticket-choose","trial_index":108,"time_elapsed":2000412,"internal_node_id":"0.0-108.0"},{"result":167,"points":2,"place":1,"phase":1,"sequence":24,"prices":[175,186,178,212,179,187,167,169,209,153],"times":[943,586,583,615,541,624,1377],"next_num":7,"trial_type":"ticket-choose","trial_index":109,"time_elapsed":2009118,"internal_node_id":"0.0-109.0"},{"result":158,"points":2,"place":1,"phase":1,"sequence":25,"prices":[176,187,177,225,181,187,158,165,208,153],"times":[1416,633,806,599,686,1242,1235],"next_num":7,"trial_type":"ticket-choose","trial_index":110,"time_elapsed":2018957,"internal_node_id":"0.0-110.0"},{"result":168,"points":3,"place":0,"phase":1,"sequence":26,"prices":[168,192,171,178,188,217,172,195,197,186],"times":[1465],"next_num":1,"trial_type":"ticket-choose","trial_index":111,"time_elapsed":2022271,"internal_node_id":"0.0-111.0"},{"result":161,"points":3,"place":0,"phase":1,"sequence":27,"prices":[161,193,175,181,185,224,180,199,218,184],"times":[1319],"next_num":1,"trial_type":"ticket-choose","trial_index":112,"time_elapsed":2025787,"internal_node_id":"0.0-112.0"},{"result":167,"points":2,"place":1,"phase":1,"sequence":28,"prices":[175,186,167,225,179,187,178,169,209,153],"times":[906,663,823],"next_num":3,"trial_type":"ticket-choose","trial_index":113,"time_elapsed":2030591,"internal_node_id":"0.0-113.0"},{"result":159,"points":3,"place":0,"phase":1,"sequence":29,"prices":[159,183,166,168,173,205,167,187,191,170],"times":[812],"next_num":1,"trial_type":"ticket-choose","trial_index":114,"time_elapsed":2033443,"internal_node_id":"0.0-114.0"},{"result":148,"points":3,"place":0,"phase":1,"sequence":30,"prices":[148,171,150,163,167,220,162,186,187,165],"times":[912],"next_num":1,"trial_type":"ticket-choose","trial_index":115,"time_elapsed":2036396,"internal_node_id":"0.0-115.0"},{"result":156,"points":3,"place":0,"phase":1,"sequence":31,"prices":[175,185,178,215,181,186,167,168,208,156],"times":[895,611,500,607,539,522,516,1330,655,844],"next_num":10,"trial_type":"ticket-choose","trial_index":116,"time_elapsed":2047287,"internal_node_id":"0.0-116.0"},{"result":165,"points":2,"place":1,"phase":1,"sequence":32,"prices":[188,200,165,172,198,174,177,154,177,180],"times":[991,628,854],"next_num":3,"trial_type":"ticket-choose","trial_index":117,"time_elapsed":2052067,"internal_node_id":"0.0-117.0"},{"result":152,"points":3,"place":0,"phase":1,"sequence":33,"prices":[152,200,158,173,182,207,161,202,204,180],"times":[863],"next_num":1,"trial_type":"ticket-choose","trial_index":118,"time_elapsed":2054826,"internal_node_id":"0.0-118.0"},{"result":150,"points":3,"place":0,"phase":1,"sequence":34,"prices":[189,150,175,160,188,207,158,194,178,199],"times":[1113,898],"next_num":2,"trial_type":"ticket-choose","trial_index":119,"time_elapsed":2059021,"internal_node_id":"0.0-119.0"},{"result":158,"points":2,"place":1,"phase":1,"sequence":35,"prices":[175,186,158,211,180,187,177,166,209,153],"times":[829,638,885],"next_num":3,"trial_type":"ticket-choose","trial_index":120,"time_elapsed":2063809,"internal_node_id":"0.0-120.0"},{"result":143,"points":3,"place":0,"phase":1,"sequence":36,"prices":[222,173,202,197,143,205,198,183,178,186],"times":[773,929,3528,701,2130],"next_num":5,"trial_type":"ticket-choose","trial_index":121,"time_elapsed":2074691,"internal_node_id":"0.0-121.0"},{"result":158,"points":3,"place":0,"phase":1,"sequence":37,"prices":[210,184,226,193,215,158,199,175,176,208],"times":[650,609,513,557,552,1055],"next_num":6,"trial_type":"ticket-choose","trial_index":122,"time_elapsed":2081822,"internal_node_id":"0.0-122.0"},{"result":169,"points":1,"place":3,"phase":1,"sequence":38,"prices":[198,193,169,163,202,182,152,164,177,171],"times":[918,515,1217],"next_num":3,"trial_type":"ticket-choose","trial_index":123,"time_elapsed":2086886,"internal_node_id":"0.0-123.0"},{"result":158,"points":2,"place":1,"phase":1,"sequence":39,"prices":[176,185,177,218,180,186,158,166,209,154],"times":[780,686,766,581,666,550,1183],"next_num":7,"trial_type":"ticket-choose","trial_index":124,"time_elapsed":2095432,"internal_node_id":"0.0-124.0"},{"result":157,"points":3,"place":0,"phase":1,"sequence":40,"prices":[201,187,157,184,198,179,188,185,178,170],"times":[865,598,900],"next_num":3,"trial_type":"ticket-choose","trial_index":125,"time_elapsed":2100330,"internal_node_id":"0.0-125.0"},{"result":156,"points":3,"place":0,"phase":1,"sequence":41,"prices":[174,186,167,211,181,188,178,168,208,156],"times":[726,658,1069,564,665,666,650,1085,570,900],"next_num":10,"trial_type":"ticket-choose","trial_index":126,"time_elapsed":2112120,"internal_node_id":"0.0-126.0"},{"result":167,"points":2,"place":1,"phase":1,"sequence":42,"prices":[175,187,167,212,179,187,178,169,208,153],"times":[980,617,868],"next_num":3,"trial_type":"ticket-choose","trial_index":127,"time_elapsed":2117094,"internal_node_id":"0.0-127.0"},{"result":152,"points":3,"place":0,"phase":1,"sequence":43,"prices":[200,181,203,152,175,171,160,154,176,191],"times":[649,580,566,845],"next_num":4,"trial_type":"ticket-choose","trial_index":128,"time_elapsed":2122454,"internal_node_id":"0.0-128.0"},{"result":167,"points":2,"place":1,"phase":1,"sequence":44,"prices":[189,167,180,197,165,168,172,213,178,171],"times":[994,1567],"next_num":2,"trial_type":"ticket-choose","trial_index":129,"time_elapsed":2127232,"internal_node_id":"0.0-129.0"},{"result":163,"points":2,"place":1,"phase":1,"sequence":45,"prices":[174,186,176,217,181,187,163,166,153,209],"times":[616,598,726,649,703,505,968],"next_num":7,"trial_type":"ticket-choose","trial_index":130,"time_elapsed":2135485,"internal_node_id":"0.0-130.0"},{"result":167,"points":2,"place":1,"phase":1,"sequence":46,"prices":[175,185,167,224,181,186,178,168,208,156],"times":[1232,2049,994],"next_num":3,"trial_type":"ticket-choose","trial_index":131,"time_elapsed":2142578,"internal_node_id":"0.0-131.0"},{"result":161,"points":3,"place":0,"phase":1,"sequence":47,"prices":[161,193,167,187,190,224,174,194,195,188],"times":[946],"next_num":1,"trial_type":"ticket-choose","trial_index":132,"time_elapsed":2145422,"internal_node_id":"0.0-132.0"},{"result":155,"points":2,"place":1,"phase":1,"sequence":48,"prices":[201,207,155,158,156,165,167,135,178,177],"times":[885,556,859],"next_num":3,"trial_type":"ticket-choose","trial_index":133,"time_elapsed":2150524,"internal_node_id":"0.0-133.0"},{"result":157,"points":3,"place":0,"phase":1,"sequence":49,"prices":[157,191,165,175,182,203,170,195,200,176],"times":[955],"next_num":1,"trial_type":"ticket-choose","trial_index":134,"time_elapsed":2156077,"internal_node_id":"0.0-134.0"},{"responses":[{"value":1,"offby":1,"category":"$106 - $134","category_index":0},{"value":2,"offby":1,"category":"$135 - $150","category_index":1},{"value":3,"offby":0,"category":"$151 - $165","category_index":2},{"value":4,"offby":-2,"category":"$166 - $180","category_index":3},{"value":6,"offby":0,"category":"$181 - $195","category_index":4},{"value":3,"offby":0,"category":"$196 - $210","category_index":5},{"value":1,"offby":0,"category":"$211 - $225","category_index":6}],"phase":1,"number":1,"trial_type":"bar-choose","trial_index":135,"time_elapsed":2183634,"internal_node_id":"0.0-135.0"},{"special_comment":"No","trial_type":"special_sequence","trial_index":136,"time_elapsed":2190067,"internal_node_id":"0.0-136.0"},{"during":"Nothing","bonus":308,"trial_type":"final","trial_index":137,"time_elapsed":2212234,"internal_node_id":"0.0-137.0"}],"bonus":308}