{"start_time":"2017-02-27 11:59:58","end_time":"2017-02-27 12:18:31","points_phase0":115,"points_phase1":104,"phase_order":1,"age":30,"gender":"f","tries":1,"during":"Nothing","worker_id":"ABNNX9AKIRYJ7","assignment_id":"3YHH42UU5C865EZURTZAW98GKG60LJ","data":[{"rt":7080,"url":"\/tickets\/utils\/consent.html","trial_type":"html","trial_index":0,"time_elapsed":7347,"internal_node_id":"0.0-0.0"},{"age":30,"gender":"f","trial_type":"age","trial_index":1,"time_elapsed":12909,"internal_node_id":"0.0-1.0"},{"worker_id":"ABNNX9AKIRYJ7","trial_type":"workerid","trial_index":2,"time_elapsed":23040,"internal_node_id":"0.0-2.0"},{"tries":1,"trial_type":"instructions_check","trial_index":3,"time_elapsed":50294,"internal_node_id":"0.0-3.0"},{"rt":4615,"url":"\/tickets\/utils\/start.html","trial_type":"html","trial_index":4,"time_elapsed":55959,"internal_node_id":"0.0-4.0"},{"trial_type":"number-animation","trial_index":5,"time_elapsed":74612,"internal_node_id":"0.0-5.0"},{"phase":0,"sequence":0,"avg":166,"response":162,"trial_type":"training_avg","trial_index":6,"time_elapsed":86460,"internal_node_id":"0.0-6.0"},{"trial_type":"number-animation","trial_index":7,"time_elapsed":100252,"internal_node_id":"0.0-7.0"},{"phase":0,"sequence":1,"avg":198,"response":198,"trial_type":"training_avg","trial_index":8,"time_elapsed":110042,"internal_node_id":"0.0-8.0"},{"trial_type":"number-animation","trial_index":9,"time_elapsed":121775,"internal_node_id":"0.0-9.0"},{"phase":0,"sequence":2,"avg":177,"response":170,"trial_type":"training_avg","trial_index":10,"time_elapsed":130865,"internal_node_id":"0.0-10.0"},{"trial_type":"number-animation","trial_index":11,"time_elapsed":144412,"internal_node_id":"0.0-11.0"},{"phase":0,"sequence":3,"avg":190,"response":220,"trial_type":"training_avg","trial_index":12,"time_elapsed":158055,"internal_node_id":"0.0-12.0"},{"trial_type":"number-animation","trial_index":13,"time_elapsed":167555,"internal_node_id":"0.0-13.0"},{"phase":0,"sequence":4,"avg":201,"response":221,"trial_type":"training_avg","trial_index":14,"time_elapsed":195957,"internal_node_id":"0.0-14.0"},{"responses":[{"value":0,"offby":-1,"category":"$30 - $75","category_index":0},{"value":3,"offby":1,"category":"$76 - $120","category_index":1},{"value":4,"offby":0,"category":"$121 - $165","category_index":2},{"value":5,"offby":-1,"category":"$166 - $210","category_index":3},{"value":4,"offby":-2,"category":"$211 - $255","category_index":4},{"value":4,"offby":3,"category":"$256 - $300","category_index":5},{"value":0,"offby":0,"category":"$301 - $345","category_index":6}],"phase":0,"number":0,"trial_type":"bar-choose","trial_index":15,"time_elapsed":257825,"internal_node_id":"0.0-15.0"},{"rt":15869,"url":"\/tickets\/\/utils\/testing.html","trial_type":"html","trial_index":16,"time_elapsed":274816,"internal_node_id":"0.0-16.0"},{"phase":0,"order":[25,44,32,4,27,35,12,0,45,10,30,17,6,20,43,40,5,11,1,15,38,3,28,14,48,24,42,37,34,9,19,49,36,41,22,16,21,8,39,13,7,31,33,2,29,23,18,26,47,46],"trial_type":"store_order","trial_index":17,"time_elapsed":275819,"internal_node_id":"0.0-17.0"},{"result":165,"points":2,"place":1,"phase":0,"sequence":-1,"prices":[184,180,224,165,181,199,185,193,218,126],"times":[2150,697,709,1465],"next_num":4,"trial_type":"ticket-choose","trial_index":18,"time_elapsed":283903,"internal_node_id":"0.0-18.0"},{"rt":26980,"url":"\/tickets\/utils\/testing_after.html","trial_type":"html","trial_index":19,"time_elapsed":312036,"internal_node_id":"0.0-19.0"},{"result":135,"points":2,"place":1,"phase":0,"sequence":0,"prices":[120,221,135,185,200,261,181,251,255,196],"times":[2251,632,1381],"next_num":3,"trial_type":"ticket-choose","trial_index":20,"time_elapsed":319486,"internal_node_id":"0.0-20.0"},{"result":105,"points":3,"place":0,"phase":0,"sequence":1,"prices":[105,216,146,165,210,260,161,235,241,185],"times":[1786],"next_num":1,"trial_type":"ticket-choose","trial_index":21,"time_elapsed":324119,"internal_node_id":"0.0-21.0"},{"result":81,"points":3,"place":0,"phase":0,"sequence":2,"prices":[81,205,130,151,191,261,145,210,250,165],"times":[1195],"next_num":1,"trial_type":"ticket-choose","trial_index":22,"time_elapsed":327724,"internal_node_id":"0.0-22.0"},{"result":130,"points":2,"place":1,"phase":0,"sequence":3,"prices":[155,181,170,255,176,200,130,150,110,205],"times":[1172,585,599,626,632,732,1100],"next_num":7,"trial_type":"ticket-choose","trial_index":23,"time_elapsed":336468,"internal_node_id":"0.0-23.0"},{"result":130,"points":2,"place":1,"phase":0,"sequence":4,"prices":[156,181,130,255,175,200,170,150,111,205],"times":[854,546,1444],"next_num":3,"trial_type":"ticket-choose","trial_index":24,"time_elapsed":341743,"internal_node_id":"0.0-24.0"},{"result":141,"points":1,"place":2,"phase":0,"sequence":5,"prices":[156,176,165,246,171,190,126,141,101,196],"times":[788,550,548,641,616,587,569,1301],"next_num":8,"trial_type":"ticket-choose","trial_index":25,"time_elapsed":351009,"internal_node_id":"0.0-25.0"},{"result":126,"points":2,"place":1,"phase":0,"sequence":6,"prices":[156,175,126,246,170,190,165,140,100,196],"times":[731,640,998],"next_num":3,"trial_type":"ticket-choose","trial_index":26,"time_elapsed":355790,"internal_node_id":"0.0-26.0"},{"result":145,"points":2,"place":1,"phase":0,"sequence":7,"prices":[246,145,155,191,176,270,185,136,160,215],"times":[890,1735],"next_num":2,"trial_type":"ticket-choose","trial_index":27,"time_elapsed":360508,"internal_node_id":"0.0-27.0"},{"result":120,"points":2,"place":1,"phase":0,"sequence":8,"prices":[145,171,161,245,165,191,120,140,100,196],"times":[1104,601,543,607,663,645,1000],"next_num":7,"trial_type":"ticket-choose","trial_index":28,"time_elapsed":368807,"internal_node_id":"0.0-28.0"},{"result":91,"points":3,"place":0,"phase":0,"sequence":9,"prices":[176,150,141,91,290,201,106,266,206,126],"times":[1276,434,1495,828],"next_num":4,"trial_type":"ticket-choose","trial_index":29,"time_elapsed":375687,"internal_node_id":"0.0-29.0"},{"result":131,"points":2,"place":1,"phase":0,"sequence":10,"prices":[161,180,171,250,176,195,131,146,105,201],"times":[985,580,555,605,529,583,914],"next_num":7,"trial_type":"ticket-choose","trial_index":30,"time_elapsed":383605,"internal_node_id":"0.0-30.0"},{"result":30,"points":3,"place":0,"phase":0,"sequence":11,"prices":[155,30,101,55,136,276,70,181,200,261],"times":[752,923],"next_num":2,"trial_type":"ticket-choose","trial_index":31,"time_elapsed":387412,"internal_node_id":"0.0-31.0"},{"result":146,"points":1,"place":3,"phase":0,"sequence":12,"prices":[146,171,120,245,165,191,160,140,100,196],"times":[1236],"next_num":1,"trial_type":"ticket-choose","trial_index":32,"time_elapsed":390565,"internal_node_id":"0.0-32.0"},{"result":66,"points":3,"place":0,"phase":0,"sequence":13,"prices":[66,201,96,150,185,230,121,216,225,165],"times":[790],"next_num":1,"trial_type":"ticket-choose","trial_index":33,"time_elapsed":393263,"internal_node_id":"0.0-33.0"},{"result":106,"points":2,"place":1,"phase":0,"sequence":14,"prices":[185,180,235,210,106,266,76,115,250,205],"times":[771,567,615,636,936],"next_num":5,"trial_type":"ticket-choose","trial_index":34,"time_elapsed":399480,"internal_node_id":"0.0-34.0"},{"result":121,"points":2,"place":1,"phase":0,"sequence":15,"prices":[150,171,121,241,165,185,160,136,95,191],"times":[736,572,986],"next_num":3,"trial_type":"ticket-choose","trial_index":35,"time_elapsed":404071,"internal_node_id":"0.0-35.0"},{"result":131,"points":2,"place":1,"phase":0,"sequence":16,"prices":[160,180,170,251,176,195,131,146,105,200],"times":[843,552,505,594,600,561,826],"next_num":7,"trial_type":"ticket-choose","trial_index":36,"time_elapsed":411633,"internal_node_id":"0.0-36.0"},{"result":131,"points":2,"place":1,"phase":0,"sequence":17,"prices":[161,180,131,251,175,196,171,146,105,201],"times":[949,623,945],"next_num":3,"trial_type":"ticket-choose","trial_index":37,"time_elapsed":416444,"internal_node_id":"0.0-37.0"},{"result":120,"points":2,"place":1,"phase":0,"sequence":18,"prices":[186,156,191,120,195,145,45,130,246,176],"times":[646,502,589,946],"next_num":4,"trial_type":"ticket-choose","trial_index":38,"time_elapsed":421591,"internal_node_id":"0.0-38.0"},{"result":61,"points":3,"place":0,"phase":0,"sequence":19,"prices":[255,166,266,175,136,145,155,61,96,301],"times":[694,638,594,600,1067,714,610,834],"next_num":8,"trial_type":"ticket-choose","trial_index":39,"time_elapsed":430794,"internal_node_id":"0.0-39.0"},{"result":125,"points":2,"place":1,"phase":0,"sequence":20,"prices":[156,175,125,245,170,190,165,140,101,196],"times":[1129,626,992],"next_num":3,"trial_type":"ticket-choose","trial_index":40,"time_elapsed":435840,"internal_node_id":"0.0-40.0"},{"result":130,"points":3,"place":0,"phase":0,"sequence":21,"prices":[185,175,276,221,130,141,171,216,235,165],"times":[747,568,531,1045,1049],"next_num":5,"trial_type":"ticket-choose","trial_index":41,"time_elapsed":442657,"internal_node_id":"0.0-41.0"},{"result":51,"points":3,"place":0,"phase":0,"sequence":22,"prices":[221,175,51,196,146,130,166,80,126,156],"times":[842,582,846],"next_num":3,"trial_type":"ticket-choose","trial_index":42,"time_elapsed":447173,"internal_node_id":"0.0-42.0"},{"result":65,"points":2,"place":1,"phase":0,"sequence":23,"prices":[220,236,176,65,185,101,110,61,156,191],"times":[618,640,711,859],"next_num":4,"trial_type":"ticket-choose","trial_index":43,"time_elapsed":452601,"internal_node_id":"0.0-43.0"},{"result":116,"points":3,"place":0,"phase":0,"sequence":24,"prices":[176,150,276,171,261,116,130,201,166,231],"times":[730,1373,678,650,655,891],"next_num":6,"trial_type":"ticket-choose","trial_index":44,"time_elapsed":460601,"internal_node_id":"0.0-44.0"},{"result":75,"points":3,"place":0,"phase":0,"sequence":25,"prices":[75,171,131,151,161,250,145,190,206,156],"times":[1005],"next_num":1,"trial_type":"ticket-choose","trial_index":45,"time_elapsed":463675,"internal_node_id":"0.0-45.0"},{"result":111,"points":3,"place":0,"phase":0,"sequence":26,"prices":[156,181,131,256,176,200,171,151,111,206],"times":[964,569,641,576,549,655,568,561,843],"next_num":9,"trial_type":"ticket-choose","trial_index":46,"time_elapsed":473105,"internal_node_id":"0.0-46.0"},{"result":130,"points":2,"place":1,"phase":0,"sequence":27,"prices":[160,180,130,251,176,195,170,146,105,200],"times":[1004,616,945],"next_num":3,"trial_type":"ticket-choose","trial_index":47,"time_elapsed":477838,"internal_node_id":"0.0-47.0"},{"result":110,"points":3,"place":0,"phase":0,"sequence":28,"prices":[156,181,171,256,175,200,131,150,110,206],"times":[846,562,614,618,584,779,1085,586,848],"next_num":9,"trial_type":"ticket-choose","trial_index":48,"time_elapsed":487928,"internal_node_id":"0.0-48.0"},{"result":126,"points":2,"place":1,"phase":0,"sequence":29,"prices":[150,176,126,251,171,195,165,145,105,200],"times":[804,586,1372],"next_num":3,"trial_type":"ticket-choose","trial_index":49,"time_elapsed":492926,"internal_node_id":"0.0-49.0"},{"result":111,"points":3,"place":0,"phase":0,"sequence":30,"prices":[175,211,266,286,111,216,220,245,230,165],"times":[635,410,577,576,1599],"next_num":5,"trial_type":"ticket-choose","trial_index":50,"time_elapsed":499381,"internal_node_id":"0.0-50.0"},{"result":106,"points":2,"place":1,"phase":0,"sequence":31,"prices":[95,205,106,151,186,271,145,210,215,181],"times":[596,1420,804],"next_num":3,"trial_type":"ticket-choose","trial_index":51,"time_elapsed":504491,"internal_node_id":"0.0-51.0"},{"result":106,"points":3,"place":0,"phase":0,"sequence":32,"prices":[155,225,245,130,176,106,180,211,165,200],"times":[858,570,625,822,601,858],"next_num":6,"trial_type":"ticket-choose","trial_index":52,"time_elapsed":511753,"internal_node_id":"0.0-52.0"},{"result":125,"points":2,"place":1,"phase":0,"sequence":33,"prices":[155,175,166,245,171,190,125,140,101,196],"times":[1180,602,547,598,596,604,872],"next_num":7,"trial_type":"ticket-choose","trial_index":53,"time_elapsed":520184,"internal_node_id":"0.0-53.0"},{"result":111,"points":3,"place":0,"phase":0,"sequence":34,"prices":[111,231,131,146,171,295,141,241,271,150],"times":[981],"next_num":1,"trial_type":"ticket-choose","trial_index":54,"time_elapsed":523041,"internal_node_id":"0.0-54.0"},{"result":126,"points":2,"place":1,"phase":0,"sequence":35,"prices":[151,176,126,251,170,196,165,145,105,201],"times":[861,580,1010],"next_num":3,"trial_type":"ticket-choose","trial_index":55,"time_elapsed":527722,"internal_node_id":"0.0-55.0"},{"result":86,"points":3,"place":0,"phase":0,"sequence":36,"prices":[86,180,130,151,170,271,145,191,220,160],"times":[875],"next_num":1,"trial_type":"ticket-choose","trial_index":56,"time_elapsed":530279,"internal_node_id":"0.0-56.0"},{"result":120,"points":2,"place":1,"phase":0,"sequence":37,"prices":[150,170,160,241,166,186,120,136,96,191],"times":[851,525,512,640,571,555,912],"next_num":7,"trial_type":"ticket-choose","trial_index":57,"time_elapsed":537850,"internal_node_id":"0.0-57.0"},{"result":120,"points":2,"place":1,"phase":0,"sequence":38,"prices":[150,171,120,241,165,185,160,135,96,190],"times":[712,491,867],"next_num":3,"trial_type":"ticket-choose","trial_index":58,"time_elapsed":542147,"internal_node_id":"0.0-58.0"},{"result":150,"points":2,"place":1,"phase":0,"sequence":39,"prices":[181,156,145,165,236,231,201,260,150,185],"times":[876,449,1055,569,614,609,1151,621,1117],"next_num":9,"trial_type":"ticket-choose","trial_index":59,"time_elapsed":552893,"internal_node_id":"0.0-59.0"},{"result":106,"points":3,"place":0,"phase":0,"sequence":40,"prices":[180,106,166,245,211,261,215,125,135,190],"times":[752,812],"next_num":2,"trial_type":"ticket-choose","trial_index":60,"time_elapsed":556423,"internal_node_id":"0.0-60.0"},{"result":145,"points":1,"place":2,"phase":0,"sequence":41,"prices":[135,180,141,151,175,220,145,196,211,155],"times":[811,609,632,966,623,624,1024],"next_num":7,"trial_type":"ticket-choose","trial_index":61,"time_elapsed":564945,"internal_node_id":"0.0-61.0"},{"result":121,"points":2,"place":1,"phase":0,"sequence":42,"prices":[146,170,121,245,166,190,161,141,100,195],"times":[904,553,1046],"next_num":3,"trial_type":"ticket-choose","trial_index":62,"time_elapsed":569640,"internal_node_id":"0.0-62.0"},{"result":125,"points":1,"place":2,"phase":0,"sequence":43,"prices":[226,205,125,120,115,135,180,145,150,220],"times":[779,763,922],"next_num":3,"trial_type":"ticket-choose","trial_index":63,"time_elapsed":574295,"internal_node_id":"0.0-63.0"},{"result":126,"points":2,"place":1,"phase":0,"sequence":44,"prices":[151,175,166,251,170,195,126,146,105,201],"times":[661,626,608,622,625,628,974],"next_num":7,"trial_type":"ticket-choose","trial_index":64,"time_elapsed":582203,"internal_node_id":"0.0-64.0"},{"result":130,"points":3,"place":0,"phase":0,"sequence":45,"prices":[130,195,141,155,181,226,150,216,221,175],"times":[1091],"next_num":1,"trial_type":"ticket-choose","trial_index":65,"time_elapsed":585182,"internal_node_id":"0.0-65.0"},{"result":81,"points":3,"place":0,"phase":0,"sequence":46,"prices":[155,245,155,81,180,130,156,306,166,115],"times":[819,573,544,787],"next_num":4,"trial_type":"ticket-choose","trial_index":66,"time_elapsed":590422,"internal_node_id":"0.0-66.0"},{"result":120,"points":2,"place":1,"phase":0,"sequence":47,"prices":[145,170,160,245,165,190,120,141,100,195],"times":[770,437,524,561,646,617,975],"next_num":7,"trial_type":"ticket-choose","trial_index":67,"time_elapsed":598117,"internal_node_id":"0.0-67.0"},{"result":121,"points":2,"place":1,"phase":0,"sequence":48,"prices":[150,170,160,240,166,185,121,136,95,191],"times":[669,554,652,621,668,641,1001],"next_num":7,"trial_type":"ticket-choose","trial_index":68,"time_elapsed":606064,"internal_node_id":"0.0-68.0"},{"result":126,"points":2,"place":1,"phase":0,"sequence":49,"prices":[150,175,166,251,170,196,126,145,105,201],"times":[746,569,611,591,624,790,959],"next_num":7,"trial_type":"ticket-choose","trial_index":69,"time_elapsed":614048,"internal_node_id":"0.0-69.0"},{"responses":[{"value":0,"offby":-1,"category":"$30 - $75","category_index":0},{"value":5,"offby":3,"category":"$76 - $120","category_index":1},{"value":5,"offby":1,"category":"$121 - $165","category_index":2},{"value":6,"offby":0,"category":"$166 - $210","category_index":3},{"value":3,"offby":-3,"category":"$211 - $255","category_index":4},{"value":1,"offby":0,"category":"$256 - $300","category_index":5},{"value":0,"offby":0,"category":"$301 - $345","category_index":6}],"phase":0,"number":1,"trial_type":"bar-choose","trial_index":70,"time_elapsed":636486,"internal_node_id":"0.0-70.0"},{"rt":6889,"url":"\/tickets\/utils\/start2.html","trial_type":"html","trial_index":71,"time_elapsed":644500,"internal_node_id":"0.0-71.0"},{"trial_type":"number-animation","trial_index":72,"time_elapsed":652784,"internal_node_id":"0.0-72.0"},{"phase":1,"sequence":0,"avg":180,"response":174,"trial_type":"training_avg","trial_index":73,"time_elapsed":658005,"internal_node_id":"0.0-73.0"},{"trial_type":"number-animation","trial_index":74,"time_elapsed":667463,"internal_node_id":"0.0-74.0"},{"phase":1,"sequence":1,"avg":178,"response":177,"trial_type":"training_avg","trial_index":75,"time_elapsed":676228,"internal_node_id":"0.0-75.0"},{"trial_type":"number-animation","trial_index":76,"time_elapsed":683543,"internal_node_id":"0.0-76.0"},{"phase":1,"sequence":2,"avg":176,"response":173,"trial_type":"training_avg","trial_index":77,"time_elapsed":687495,"internal_node_id":"0.0-77.0"},{"trial_type":"number-animation","trial_index":78,"time_elapsed":694685,"internal_node_id":"0.0-78.0"},{"phase":1,"sequence":3,"avg":178,"response":171,"trial_type":"training_avg","trial_index":79,"time_elapsed":698459,"internal_node_id":"0.0-79.0"},{"trial_type":"number-animation","trial_index":80,"time_elapsed":705117,"internal_node_id":"0.0-80.0"},{"phase":1,"sequence":4,"avg":179,"response":175,"trial_type":"training_avg","trial_index":81,"time_elapsed":709102,"internal_node_id":"0.0-81.0"},{"responses":[{"value":0,"offby":0,"category":"$140 - $250","category_index":0},{"value":3,"offby":3,"category":"$151 - $160","category_index":1},{"value":7,"offby":3,"category":"$161 - $170","category_index":2},{"value":7,"offby":1,"category":"$171 - $180","category_index":3},{"value":3,"offby":-4,"category":"$181 - $190","category_index":4},{"value":0,"offby":-3,"category":"$191 - $200","category_index":5},{"value":0,"offby":0,"category":"$201 - $210","category_index":6}],"phase":1,"number":0,"trial_type":"bar-choose","trial_index":82,"time_elapsed":728140,"internal_node_id":"0.0-82.0"},{"rt":4781,"url":"\/tickets\/utils\/testing2.html","trial_type":"html","trial_index":83,"time_elapsed":734065,"internal_node_id":"0.0-83.0"},{"phase":1,"order":[27,26,30,14,11,5,0,48,22,45,12,44,18,31,34,16,13,8,37,39,1,38,35,43,40,28,10,9,15,3,46,25,49,4,29,2,24,21,17,47,41,32,19,36,7,33,42,23,20,6],"trial_type":"store_order","trial_index":84,"time_elapsed":735071,"internal_node_id":"0.0-84.0"},{"result":165,"points":2,"place":1,"phase":1,"sequence":0,"prices":[163,185,165,174,181,198,173,186,187,180],"times":[2137,605,1286],"next_num":3,"trial_type":"ticket-choose","trial_index":85,"time_elapsed":741623,"internal_node_id":"0.0-85.0"},{"result":150,"points":3,"place":0,"phase":1,"sequence":1,"prices":[175,150,164,155,171,199,158,180,184,196],"times":[785,767],"next_num":2,"trial_type":"ticket-choose","trial_index":86,"time_elapsed":745253,"internal_node_id":"0.0-86.0"},{"result":175,"points":1,"place":4,"phase":1,"sequence":2,"prices":[171,180,172,174,179,188,173,183,186,175],"times":[754,571,831,520,555,532,531,832,763,1141],"next_num":10,"trial_type":"ticket-choose","trial_index":87,"time_elapsed":756192,"internal_node_id":"0.0-87.0"},{"result":164,"points":3,"place":0,"phase":1,"sequence":3,"prices":[175,179,177,193,178,182,169,172,164,183],"times":[1032,521,686,522,481,562,503,534,1533],"next_num":9,"trial_type":"ticket-choose","trial_index":88,"time_elapsed":766307,"internal_node_id":"0.0-88.0"},{"result":168,"points":3,"place":0,"phase":1,"sequence":4,"prices":[168,188,171,181,184,196,180,194,195,183],"times":[1095],"next_num":1,"trial_type":"ticket-choose","trial_index":89,"time_elapsed":769174,"internal_node_id":"0.0-89.0"},{"result":154,"points":3,"place":0,"phase":1,"sequence":5,"prices":[188,179,154,183,173,170,177,160,169,175],"times":[974,500,887],"next_num":3,"trial_type":"ticket-choose","trial_index":90,"time_elapsed":773791,"internal_node_id":"0.0-90.0"},{"result":165,"points":3,"place":0,"phase":1,"sequence":6,"prices":[176,180,178,194,179,183,170,173,165,184],"times":[556,529,498,624,575,571,944,582,774],"next_num":9,"trial_type":"ticket-choose","trial_index":91,"time_elapsed":782954,"internal_node_id":"0.0-91.0"},{"result":169,"points":2,"place":1,"phase":1,"sequence":7,"prices":[175,179,169,193,178,182,177,172,164,183],"times":[743,577,818],"next_num":3,"trial_type":"ticket-choose","trial_index":92,"time_elapsed":787248,"internal_node_id":"0.0-92.0"},{"result":162,"points":3,"place":0,"phase":1,"sequence":8,"prices":[179,174,172,162,202,184,165,197,185,169],"times":[694,511,498,741],"next_num":4,"trial_type":"ticket-choose","trial_index":93,"time_elapsed":792088,"internal_node_id":"0.0-93.0"},{"result":174,"points":1,"place":2,"phase":1,"sequence":9,"prices":[175,180,170,195,179,184,178,174,166,185],"times":[689,421,547,647,631,677,719,939],"next_num":8,"trial_type":"ticket-choose","trial_index":94,"time_elapsed":800714,"internal_node_id":"0.0-94.0"},{"result":160,"points":3,"place":0,"phase":1,"sequence":10,"prices":[160,185,170,174,182,196,173,186,194,177],"times":[976],"next_num":1,"trial_type":"ticket-choose","trial_index":95,"time_elapsed":803489,"internal_node_id":"0.0-95.0"},{"result":168,"points":2,"place":1,"phase":1,"sequence":11,"prices":[174,178,168,192,177,181,176,171,163,182],"times":[713,533,787],"next_num":3,"trial_type":"ticket-choose","trial_index":96,"time_elapsed":807723,"internal_node_id":"0.0-96.0"},{"result":169,"points":2,"place":1,"phase":1,"sequence":12,"prices":[174,179,177,194,178,183,169,173,165,184],"times":[652,538,521,627,590,639,835],"next_num":7,"trial_type":"ticket-choose","trial_index":97,"time_elapsed":815137,"internal_node_id":"0.0-97.0"},{"result":174,"points":1,"place":3,"phase":1,"sequence":13,"prices":[174,178,176,192,177,181,168,171,163,182],"times":[1412],"next_num":1,"trial_type":"ticket-choose","trial_index":98,"time_elapsed":818828,"internal_node_id":"0.0-98.0"},{"result":157,"points":2,"place":1,"phase":1,"sequence":14,"prices":[188,191,179,157,181,164,166,156,175,182],"times":[945,1183,578,890],"next_num":4,"trial_type":"ticket-choose","trial_index":99,"time_elapsed":825018,"internal_node_id":"0.0-99.0"},{"result":179,"points":0,"place":5,"phase":1,"sequence":15,"prices":[179,174,199,178,196,167,170,184,177,190],"times":[1335],"next_num":1,"trial_type":"ticket-choose","trial_index":100,"time_elapsed":828714,"internal_node_id":"0.0-100.0"},{"result":169,"points":2,"place":1,"phase":1,"sequence":16,"prices":[175,179,177,193,178,182,169,172,164,183],"times":[1026,655,506,638,548,538,836],"next_num":7,"trial_type":"ticket-choose","trial_index":101,"time_elapsed":836524,"internal_node_id":"0.0-101.0"},{"result":166,"points":3,"place":0,"phase":1,"sequence":17,"prices":[175,180,170,195,179,184,178,174,166,185],"times":[1531,755,570,579,576,591,731,787,1032],"next_num":9,"trial_type":"ticket-choose","trial_index":102,"time_elapsed":847482,"internal_node_id":"0.0-102.0"},{"result":169,"points":2,"place":1,"phase":1,"sequence":18,"prices":[175,179,169,193,178,182,177,172,164,183],"times":[821,962,832],"next_num":3,"trial_type":"ticket-choose","trial_index":103,"time_elapsed":852270,"internal_node_id":"0.0-103.0"},{"result":166,"points":3,"place":0,"phase":1,"sequence":19,"prices":[175,180,178,195,179,184,170,174,166,185],"times":[659,612,554,631,646,702,898,615,910],"next_num":9,"trial_type":"ticket-choose","trial_index":104,"time_elapsed":862343,"internal_node_id":"0.0-104.0"},{"result":177,"points":1,"place":2,"phase":1,"sequence":20,"prices":[181,179,199,188,170,172,178,187,191,177],"times":[1166,773,656,650,851,677,559,595,663,1270],"next_num":10,"trial_type":"ticket-choose","trial_index":105,"time_elapsed":874014,"internal_node_id":"0.0-105.0"},{"result":169,"points":2,"place":1,"phase":1,"sequence":21,"prices":[174,179,169,194,178,183,177,173,165,184],"times":[1909,526,866],"next_num":3,"trial_type":"ticket-choose","trial_index":106,"time_elapsed":879567,"internal_node_id":"0.0-106.0"},{"result":175,"points":1,"place":4,"phase":1,"sequence":22,"prices":[159,178,170,174,176,194,173,182,185,175],"times":[1299,999,619,619,655,727,645,709,780,640],"next_num":11,"trial_type":"ticket-choose","trial_index":107,"time_elapsed":891526,"internal_node_id":"0.0-107.0"},{"result":170,"points":2,"place":1,"phase":1,"sequence":23,"prices":[175,180,178,195,179,184,170,174,166,185],"times":[988,638,586,724,584,633,843],"next_num":7,"trial_type":"ticket-choose","trial_index":108,"time_elapsed":899645,"internal_node_id":"0.0-108.0"},{"result":171,"points":3,"place":0,"phase":1,"sequence":24,"prices":[193,173,175,182,179,198,181,171,176,187],"times":[701,1132,609,647,647,601,600,860],"next_num":8,"trial_type":"ticket-choose","trial_index":109,"time_elapsed":908828,"internal_node_id":"0.0-109.0"},{"result":161,"points":3,"place":0,"phase":1,"sequence":25,"prices":[161,180,170,174,178,198,173,182,188,176],"times":[1079],"next_num":1,"trial_type":"ticket-choose","trial_index":110,"time_elapsed":911729,"internal_node_id":"0.0-110.0"},{"result":160,"points":3,"place":0,"phase":1,"sequence":26,"prices":[175,193,175,160,180,170,175,205,177,167],"times":[874,577,645,1123],"next_num":4,"trial_type":"ticket-choose","trial_index":111,"time_elapsed":917326,"internal_node_id":"0.0-111.0"},{"result":168,"points":2,"place":1,"phase":1,"sequence":27,"prices":[181,175,182,168,183,173,153,170,193,179],"times":[949,781,671,1115],"next_num":4,"trial_type":"ticket-choose","trial_index":112,"time_elapsed":923377,"internal_node_id":"0.0-112.0"},{"result":165,"points":2,"place":1,"phase":1,"sequence":28,"prices":[181,180,191,186,165,197,159,167,194,185],"times":[766,500,621,564,878],"next_num":5,"trial_type":"ticket-choose","trial_index":113,"time_elapsed":929301,"internal_node_id":"0.0-113.0"},{"result":173,"points":1,"place":2,"phase":1,"sequence":29,"prices":[176,180,170,194,179,183,178,173,165,184],"times":[747,712,592,659,621,647,600,996],"next_num":8,"trial_type":"ticket-choose","trial_index":114,"time_elapsed":938204,"internal_node_id":"0.0-114.0"},{"result":168,"points":2,"place":1,"phase":1,"sequence":30,"prices":[173,178,168,193,177,182,176,172,164,183],"times":[1636,1343,841],"next_num":3,"trial_type":"ticket-choose","trial_index":115,"time_elapsed":944246,"internal_node_id":"0.0-115.0"},{"result":170,"points":2,"place":1,"phase":1,"sequence":31,"prices":[175,189,193,170,179,165,180,186,177,184],"times":[948,624,679,870],"next_num":4,"trial_type":"ticket-choose","trial_index":116,"time_elapsed":949924,"internal_node_id":"0.0-116.0"},{"result":169,"points":1,"place":2,"phase":1,"sequence":32,"prices":[189,185,169,168,167,171,180,173,174,188],"times":[1065,549,948],"next_num":3,"trial_type":"ticket-choose","trial_index":117,"time_elapsed":954773,"internal_node_id":"0.0-117.0"},{"result":165,"points":3,"place":0,"phase":1,"sequence":33,"prices":[180,165,177,193,186,196,187,169,171,182],"times":[906,889],"next_num":2,"trial_type":"ticket-choose","trial_index":118,"time_elapsed":958720,"internal_node_id":"0.0-118.0"},{"result":168,"points":2,"place":1,"phase":1,"sequence":34,"prices":[173,178,176,193,177,182,168,172,164,183],"times":[751,640,640,630,633,616,810],"next_num":7,"trial_type":"ticket-choose","trial_index":119,"time_elapsed":966453,"internal_node_id":"0.0-119.0"},{"result":168,"points":2,"place":1,"phase":1,"sequence":35,"prices":[174,178,168,192,177,181,176,171,163,182],"times":[732,577,915],"next_num":3,"trial_type":"ticket-choose","trial_index":120,"time_elapsed":970974,"internal_node_id":"0.0-120.0"},{"result":168,"points":2,"place":1,"phase":1,"sequence":36,"prices":[174,178,176,192,177,181,168,171,163,182],"times":[772,537,603,631,865,583,1029],"next_num":7,"trial_type":"ticket-choose","trial_index":121,"time_elapsed":979091,"internal_node_id":"0.0-121.0"},{"result":173,"points":1,"place":2,"phase":1,"sequence":37,"prices":[176,180,170,194,179,183,178,173,165,184],"times":[1898,802,602,632,606,679,873,1082],"next_num":8,"trial_type":"ticket-choose","trial_index":122,"time_elapsed":989772,"internal_node_id":"0.0-122.0"},{"result":171,"points":1,"place":2,"phase":1,"sequence":38,"prices":[195,177,197,179,171,173,175,156,163,204],"times":[1167,928,588,705,1027],"next_num":5,"trial_type":"ticket-choose","trial_index":123,"time_elapsed":996887,"internal_node_id":"0.0-123.0"},{"result":170,"points":2,"place":1,"phase":1,"sequence":39,"prices":[176,180,178,194,179,183,170,173,165,184],"times":[851,764,678,608,631,712,1034],"next_num":7,"trial_type":"ticket-choose","trial_index":124,"time_elapsed":1005333,"internal_node_id":"0.0-124.0"},{"result":169,"points":2,"place":1,"phase":1,"sequence":40,"prices":[174,179,177,194,178,183,169,173,165,184],"times":[1048,1047,657,674,802,624,851],"next_num":7,"trial_type":"ticket-choose","trial_index":125,"time_elapsed":1014216,"internal_node_id":"0.0-125.0"},{"result":157,"points":3,"place":0,"phase":1,"sequence":41,"prices":[157,184,163,174,181,190,168,187,189,177],"times":[891],"next_num":1,"trial_type":"ticket-choose","trial_index":126,"time_elapsed":1017122,"internal_node_id":"0.0-126.0"},{"result":179,"points":1,"place":4,"phase":1,"sequence":42,"prices":[170,183,172,175,180,189,174,187,188,179],"times":[860,563,695,493,529,579,692,551,563,677],"next_num":10,"trial_type":"ticket-choose","trial_index":127,"time_elapsed":1027148,"internal_node_id":"0.0-127.0"},{"result":169,"points":2,"place":1,"phase":1,"sequence":43,"prices":[174,179,169,194,178,183,177,173,165,184],"times":[764,544,865],"next_num":3,"trial_type":"ticket-choose","trial_index":128,"time_elapsed":1031537,"internal_node_id":"0.0-128.0"},{"result":166,"points":3,"place":0,"phase":1,"sequence":44,"prices":[166,190,170,173,178,203,172,192,198,174],"times":[823],"next_num":1,"trial_type":"ticket-choose","trial_index":129,"time_elapsed":1034165,"internal_node_id":"0.0-129.0"},{"result":168,"points":2,"place":1,"phase":1,"sequence":45,"prices":[173,178,176,193,177,182,168,172,164,183],"times":[899,512,514,623,886,640,1212],"next_num":7,"trial_type":"ticket-choose","trial_index":130,"time_elapsed":1042544,"internal_node_id":"0.0-130.0"},{"result":172,"points":1,"place":2,"phase":1,"sequence":46,"prices":[173,178,168,193,177,182,176,172,164,183],"times":[899,569,1036,842,663,686,689,834],"next_num":8,"trial_type":"ticket-choose","trial_index":131,"time_elapsed":1051995,"internal_node_id":"0.0-131.0"},{"result":165,"points":3,"place":0,"phase":1,"sequence":47,"prices":[165,187,173,177,186,196,176,191,192,181],"times":[930],"next_num":1,"trial_type":"ticket-choose","trial_index":132,"time_elapsed":1054808,"internal_node_id":"0.0-132.0"},{"result":174,"points":2,"place":1,"phase":1,"sequence":48,"prices":[180,175,173,177,191,190,184,196,174,181],"times":[829,560,586,641,723,657,801,679,1200],"next_num":9,"trial_type":"ticket-choose","trial_index":133,"time_elapsed":1065040,"internal_node_id":"0.0-133.0"},{"result":166,"points":3,"place":0,"phase":1,"sequence":49,"prices":[179,186,197,201,166,187,188,193,190,177],"times":[1035,662,662,749,976],"next_num":5,"trial_type":"ticket-choose","trial_index":134,"time_elapsed":1071876,"internal_node_id":"0.0-134.0"},{"responses":[{"value":0,"offby":0,"category":"$140 - $250","category_index":0},{"value":3,"offby":3,"category":"$151 - $160","category_index":1},{"value":4,"offby":0,"category":"$161 - $170","category_index":2},{"value":6,"offby":0,"category":"$171 - $180","category_index":3},{"value":5,"offby":-2,"category":"$181 - $190","category_index":4},{"value":2,"offby":-1,"category":"$191 - $200","category_index":5},{"value":0,"offby":0,"category":"$201 - $210","category_index":6}],"phase":1,"number":1,"trial_type":"bar-choose","trial_index":135,"time_elapsed":1090360,"internal_node_id":"0.0-135.0"},{"special_comment":"No","trial_type":"special_sequence","trial_index":136,"time_elapsed":1094920,"internal_node_id":"0.0-136.0"},{"during":"Nothing","bonus":292,"trial_type":"final","trial_index":137,"time_elapsed":1111184,"internal_node_id":"0.0-137.0"}],"bonus":292}