{"start_time":"2017-02-22 11:20:43","end_time":"2017-02-22 11:49:15","points_phase0":115,"points_phase1":107,"phase_order":1,"age":38,"gender":"m","tries":1,"during":"Nothing","worker_id":"ABOYW7P6LHIW5","assignment_id":"3SLE99ER0O6RUQJ84AN8O5FXQ84ZBA","data":[{"rt":10936,"url":"\/tickets\/utils\/consent.html","trial_type":"html","trial_index":0,"time_elapsed":11130,"internal_node_id":"0.0-0.0"},{"age":38,"gender":"m","trial_type":"age","trial_index":1,"time_elapsed":23255,"internal_node_id":"0.0-1.0"},{"worker_id":"ABOYW7P6LHIW5","trial_type":"workerid","trial_index":2,"time_elapsed":35806,"internal_node_id":"0.0-2.0"},{"tries":1,"trial_type":"instructions_check","trial_index":3,"time_elapsed":61067,"internal_node_id":"0.0-3.0"},{"rt":5624,"url":"\/tickets\/utils\/start.html","trial_type":"html","trial_index":4,"time_elapsed":67869,"internal_node_id":"0.0-4.0"},{"trial_type":"number-animation","trial_index":5,"time_elapsed":91121,"internal_node_id":"0.0-5.0"},{"phase":0,"sequence":0,"avg":182,"response":170,"trial_type":"training_avg","trial_index":6,"time_elapsed":107234,"internal_node_id":"0.0-6.0"},{"trial_type":"number-animation","trial_index":7,"time_elapsed":120239,"internal_node_id":"0.0-7.0"},{"phase":0,"sequence":1,"avg":188,"response":204,"trial_type":"training_avg","trial_index":8,"time_elapsed":133689,"internal_node_id":"0.0-8.0"},{"trial_type":"number-animation","trial_index":9,"time_elapsed":172500,"internal_node_id":"0.0-9.0"},{"phase":0,"sequence":2,"avg":176,"response":175,"trial_type":"training_avg","trial_index":10,"time_elapsed":185830,"internal_node_id":"0.0-10.0"},{"trial_type":"number-animation","trial_index":11,"time_elapsed":220256,"internal_node_id":"0.0-11.0"},{"phase":0,"sequence":3,"avg":180,"response":178,"trial_type":"training_avg","trial_index":12,"time_elapsed":228114,"internal_node_id":"0.0-12.0"},{"trial_type":"number-animation","trial_index":13,"time_elapsed":258577,"internal_node_id":"0.0-13.0"},{"phase":0,"sequence":4,"avg":174,"response":160,"trial_type":"training_avg","trial_index":14,"time_elapsed":267703,"internal_node_id":"0.0-14.0"},{"responses":[{"value":0,"offby":-1,"category":"$90 - $120","category_index":0},{"value":0,"offby":-3,"category":"$121 - $145","category_index":1},{"value":5,"offby":2,"category":"$146 - $170","category_index":2},{"value":10,"offby":4,"category":"$171 - $195","category_index":3},{"value":3,"offby":-1,"category":"$196 - $220","category_index":4},{"value":2,"offby":0,"category":"$221 - $245","category_index":5},{"value":0,"offby":-1,"category":"$246 - $270","category_index":6}],"phase":0,"number":0,"trial_type":"bar-choose","trial_index":15,"time_elapsed":306163,"internal_node_id":"0.0-15.0"},{"rt":7631,"url":"\/tickets\/\/utils\/testing.html","trial_type":"html","trial_index":16,"time_elapsed":314981,"internal_node_id":"0.0-16.0"},{"phase":0,"order":[12,1,13,32,29,30,16,42,36,22,19,38,49,45,27,41,14,23,24,48,17,8,31,39,34,9,20,26,11,33,28,35,4,7,21,6,0,40,47,43,18,15,3,10,46,5,25,44,37,2],"trial_type":"store_order","trial_index":17,"time_elapsed":315987,"internal_node_id":"0.0-17.0"},{"result":126,"points":3,"place":0,"phase":0,"sequence":-1,"prices":[184,180,224,165,181,199,185,193,218,126],"times":[2126,714,1658,953,635,1394,861,612,595,1252],"next_num":11,"trial_type":"ticket-choose","trial_index":18,"time_elapsed":332144,"internal_node_id":"0.0-18.0"},{"rt":8625,"url":"\/tickets\/utils\/testing_after.html","trial_type":"html","trial_index":19,"time_elapsed":341921,"internal_node_id":"0.0-19.0"},{"result":126,"points":3,"place":0,"phase":0,"sequence":0,"prices":[168,191,146,252,183,193,172,153,126,238],"times":[3529,777,1528,621,774,698,643,590,1269],"next_num":9,"trial_type":"ticket-choose","trial_index":20,"time_elapsed":357307,"internal_node_id":"0.0-20.0"},{"result":179,"points":1,"place":4,"phase":0,"sequence":1,"prices":[132,222,144,153,190,248,151,224,228,179],"times":[2591,475,243,294,515,366,397,820,667,1801],"next_num":10,"trial_type":"ticket-choose","trial_index":21,"time_elapsed":369700,"internal_node_id":"0.0-21.0"},{"result":135,"points":3,"place":0,"phase":0,"sequence":2,"prices":[221,193,135,188,217,179,196,190,175,159],"times":[23936,995,1340],"next_num":3,"trial_type":"ticket-choose","trial_index":22,"time_elapsed":399083,"internal_node_id":"0.0-22.0"},{"result":146,"points":2,"place":1,"phase":0,"sequence":3,"prices":[172,191,176,272,179,194,146,152,126,235],"times":[1683,696,648,753,1009,736,1124],"next_num":7,"trial_type":"ticket-choose","trial_index":23,"time_elapsed":409174,"internal_node_id":"0.0-23.0"},{"result":136,"points":3,"place":0,"phase":0,"sequence":4,"prices":[240,188,273,207,250,136,217,170,171,236],"times":[1087,501,496,627,593,1231],"next_num":6,"trial_type":"ticket-choose","trial_index":24,"time_elapsed":416985,"internal_node_id":"0.0-24.0"},{"result":129,"points":3,"place":0,"phase":0,"sequence":5,"prices":[169,193,146,237,180,196,172,150,129,236],"times":[2357,419,578,699,741,708,720,1812,1177],"next_num":9,"trial_type":"ticket-choose","trial_index":25,"time_elapsed":430110,"internal_node_id":"0.0-25.0"},{"result":133,"points":3,"place":0,"phase":0,"sequence":6,"prices":[168,192,154,237,182,196,176,156,235,133],"times":[3156,388,580,756,799,698,833,1024,785,1001],"next_num":10,"trial_type":"ticket-choose","trial_index":26,"time_elapsed":444078,"internal_node_id":"0.0-26.0"},{"result":121,"points":3,"place":0,"phase":0,"sequence":7,"prices":[121,191,128,141,166,217,129,196,202,157],"times":[1498],"next_num":1,"trial_type":"ticket-choose","trial_index":27,"time_elapsed":447593,"internal_node_id":"0.0-27.0"},{"result":149,"points":1,"place":2,"phase":0,"sequence":8,"prices":[170,193,146,268,178,195,172,149,126,241],"times":[1203,557,529,634,677,650,663,1815],"next_num":8,"trial_type":"ticket-choose","trial_index":28,"time_elapsed":457980,"internal_node_id":"0.0-28.0"},{"result":127,"points":3,"place":0,"phase":0,"sequence":9,"prices":[173,194,136,239,182,200,174,150,236,127],"times":[1008,568,791,659,740,751,786,1191,722,995],"next_num":10,"trial_type":"ticket-choose","trial_index":29,"time_elapsed":470170,"internal_node_id":"0.0-29.0"},{"result":136,"points":2,"place":1,"phase":0,"sequence":10,"prices":[171,192,136,243,182,195,174,154,236,128],"times":[2076,548,1279],"next_num":3,"trial_type":"ticket-choose","trial_index":30,"time_elapsed":476616,"internal_node_id":"0.0-30.0"},{"result":189,"points":1,"place":4,"phase":0,"sequence":11,"prices":[157,213,159,187,194,242,161,222,225,189],"times":[1057,701,684,460,581,720,1081,810,675,923],"next_num":10,"trial_type":"ticket-choose","trial_index":31,"time_elapsed":488328,"internal_node_id":"0.0-31.0"},{"result":136,"points":2,"place":1,"phase":0,"sequence":12,"prices":[173,191,174,270,180,193,136,153,239,129],"times":[1131,921,1008,795,839,698,1099],"next_num":7,"trial_type":"ticket-choose","trial_index":32,"time_elapsed":498089,"internal_node_id":"0.0-32.0"},{"result":136,"points":2,"place":1,"phase":0,"sequence":13,"prices":[124,220,136,165,185,234,143,225,228,179],"times":[722,1100,3050],"next_num":3,"trial_type":"ticket-choose","trial_index":33,"time_elapsed":505385,"internal_node_id":"0.0-33.0"},{"result":128,"points":3,"place":0,"phase":0,"sequence":14,"prices":[196,221,149,164,216,167,175,128,176,181],"times":[1034,1022,1962,640,2077,851,771,1103],"next_num":8,"trial_type":"ticket-choose","trial_index":34,"time_elapsed":518547,"internal_node_id":"0.0-34.0"},{"result":154,"points":2,"place":1,"phase":0,"sequence":15,"prices":[170,190,176,251,183,192,154,157,236,131],"times":[975,618,803,651,706,797,1220],"next_num":7,"trial_type":"ticket-choose","trial_index":35,"time_elapsed":527644,"internal_node_id":"0.0-35.0"},{"result":188,"points":1,"place":4,"phase":0,"sequence":16,"prices":[142,207,171,182,190,269,180,218,256,188],"times":[1400,649,585,730,801,691,646,792,723,1043],"next_num":10,"trial_type":"ticket-choose","trial_index":36,"time_elapsed":539822,"internal_node_id":"0.0-36.0"},{"result":150,"points":3,"place":0,"phase":0,"sequence":17,"prices":[197,153,181,215,150,155,164,247,177,162],"times":[1000,1112,737,699,1328],"next_num":5,"trial_type":"ticket-choose","trial_index":37,"time_elapsed":547974,"internal_node_id":"0.0-37.0"},{"result":154,"points":2,"place":1,"phase":0,"sequence":18,"prices":[169,193,154,255,178,194,176,158,239,126],"times":[1033,794,1522],"next_num":3,"trial_type":"ticket-choose","trial_index":38,"time_elapsed":553794,"internal_node_id":"0.0-38.0"},{"result":154,"points":2,"place":1,"phase":0,"sequence":19,"prices":[169,192,176,244,178,194,154,159,237,125],"times":[1030,786,772,802,852,801,1846],"next_num":7,"trial_type":"ticket-choose","trial_index":39,"time_elapsed":563901,"internal_node_id":"0.0-39.0"},{"result":136,"points":2,"place":1,"phase":0,"sequence":20,"prices":[170,192,174,242,181,196,136,153,236,128],"times":[756,539,1050,713,713,674,1109],"next_num":7,"trial_type":"ticket-choose","trial_index":40,"time_elapsed":572876,"internal_node_id":"0.0-40.0"},{"result":154,"points":2,"place":1,"phase":0,"sequence":21,"prices":[168,192,176,242,183,197,154,156,237,132],"times":[1054,616,524,1159,920,756,1163],"next_num":7,"trial_type":"ticket-choose","trial_index":41,"time_elapsed":582418,"internal_node_id":"0.0-41.0"},{"result":145,"points":2,"place":1,"phase":0,"sequence":22,"prices":[216,206,158,145,224,185,124,149,175,162],"times":[4582,675,1819,1319],"next_num":4,"trial_type":"ticket-choose","trial_index":42,"time_elapsed":593415,"internal_node_id":"0.0-42.0"},{"result":131,"points":2,"place":1,"phase":0,"sequence":23,"prices":[221,234,131,136,132,149,154,90,176,173],"times":[863,740,5004],"next_num":3,"trial_type":"ticket-choose","trial_index":43,"time_elapsed":602529,"internal_node_id":"0.0-43.0"},{"result":136,"points":2,"place":1,"phase":0,"sequence":24,"prices":[169,192,174,246,180,195,136,152,238,126],"times":[698,675,692,716,684,772,1427],"next_num":7,"trial_type":"ticket-choose","trial_index":44,"time_elapsed":611525,"internal_node_id":"0.0-44.0"},{"result":133,"points":3,"place":0,"phase":0,"sequence":25,"prices":[169,191,154,268,183,197,176,155,236,133],"times":[1003,593,896,716,699,639,948,1668,588,1004],"next_num":10,"trial_type":"ticket-choose","trial_index":45,"time_elapsed":624299,"internal_node_id":"0.0-45.0"},{"result":117,"points":3,"place":0,"phase":0,"sequence":26,"prices":[117,161,120,147,153,259,144,191,195,149],"times":[1553],"next_num":1,"trial_type":"ticket-choose","trial_index":46,"time_elapsed":628075,"internal_node_id":"0.0-46.0"},{"result":129,"points":3,"place":0,"phase":0,"sequence":27,"prices":[172,190,136,270,179,192,174,152,237,129],"times":[829,652,580,1154,813,829,723,970,628,939],"next_num":10,"trial_type":"ticket-choose","trial_index":47,"time_elapsed":640591,"internal_node_id":"0.0-47.0"},{"result":101,"points":3,"place":0,"phase":0,"sequence":28,"prices":[181,138,118,170,190,101,146,169,175,233],"times":[2782,626,482,869,686,1138],"next_num":6,"trial_type":"ticket-choose","trial_index":48,"time_elapsed":650429,"internal_node_id":"0.0-48.0"},{"result":146,"points":2,"place":1,"phase":0,"sequence":29,"prices":[171,195,172,242,179,196,146,150,128,235],"times":[1586,588,675,856,738,1652,1084],"next_num":7,"trial_type":"ticket-choose","trial_index":49,"time_elapsed":661105,"internal_node_id":"0.0-49.0"},{"result":146,"points":3,"place":0,"phase":0,"sequence":30,"prices":[156,218,212,216,191,210,275,146,174,152],"times":[1452,910,671,610,857,621,916,1758],"next_num":8,"trial_type":"ticket-choose","trial_index":50,"time_elapsed":672541,"internal_node_id":"0.0-50.0"},{"result":146,"points":2,"place":1,"phase":0,"sequence":31,"prices":[168,191,172,240,183,193,146,151,125,238],"times":[821,755,758,606,860,844,1192],"next_num":7,"trial_type":"ticket-choose","trial_index":51,"time_elapsed":681594,"internal_node_id":"0.0-51.0"},{"result":159,"points":2,"place":1,"phase":0,"sequence":32,"prices":[182,249,159,114,184,205,175,189,172,178],"times":[1023,602,1208],"next_num":3,"trial_type":"ticket-choose","trial_index":52,"time_elapsed":686932,"internal_node_id":"0.0-52.0"},{"result":130,"points":2,"place":1,"phase":0,"sequence":33,"prices":[181,130,116,142,157,193,165,218,173,207],"times":[827,1200],"next_num":2,"trial_type":"ticket-choose","trial_index":53,"time_elapsed":691215,"internal_node_id":"0.0-53.0"},{"result":192,"points":1,"place":4,"phase":0,"sequence":34,"prices":[157,205,161,175,197,254,165,210,214,192],"times":[889,3621,756,782,829,710,964,694,613,839],"next_num":10,"trial_type":"ticket-choose","trial_index":54,"time_elapsed":706125,"internal_node_id":"0.0-54.0"},{"result":136,"points":2,"place":1,"phase":0,"sequence":35,"prices":[172,194,174,243,182,193,136,150,237,126],"times":[33251,976,1293,815,749,654,1103],"next_num":7,"trial_type":"ticket-choose","trial_index":55,"time_elapsed":748236,"internal_node_id":"0.0-55.0"},{"result":135,"points":3,"place":0,"phase":0,"sequence":36,"prices":[135,202,150,169,183,225,160,211,220,172],"times":[1277],"next_num":1,"trial_type":"ticket-choose","trial_index":56,"time_elapsed":751608,"internal_node_id":"0.0-56.0"},{"result":129,"points":2,"place":1,"phase":0,"sequence":37,"prices":[155,129,164,189,210,108,187,241,174,275],"times":[803,1147],"next_num":2,"trial_type":"ticket-choose","trial_index":57,"time_elapsed":755781,"internal_node_id":"0.0-57.0"},{"result":119,"points":3,"place":0,"phase":0,"sequence":38,"prices":[198,119,169,141,195,233,136,208,177,217],"times":[856,1093],"next_num":2,"trial_type":"ticket-choose","trial_index":58,"time_elapsed":759988,"internal_node_id":"0.0-58.0"},{"result":154,"points":2,"place":1,"phase":0,"sequence":39,"prices":[170,193,176,245,178,194,154,159,236,126],"times":[1115,677,632,692,884,694,1128],"next_num":7,"trial_type":"ticket-choose","trial_index":59,"time_elapsed":769068,"internal_node_id":"0.0-59.0"},{"result":105,"points":3,"place":0,"phase":0,"sequence":40,"prices":[263,165,224,214,105,230,215,185,177,193],"times":[850,532,578,652,1123],"next_num":5,"trial_type":"ticket-choose","trial_index":60,"time_elapsed":775628,"internal_node_id":"0.0-60.0"},{"result":149,"points":3,"place":0,"phase":0,"sequence":41,"prices":[244,203,196,189,154,206,197,149,171,159],"times":[798,900,693,675,801,713,1005,1156],"next_num":8,"trial_type":"ticket-choose","trial_index":61,"time_elapsed":785840,"internal_node_id":"0.0-61.0"},{"result":126,"points":3,"place":0,"phase":0,"sequence":42,"prices":[173,191,146,242,178,194,172,152,126,235],"times":[2486,2382,1250,823,788,728,817,795,1246],"next_num":9,"trial_type":"ticket-choose","trial_index":62,"time_elapsed":801809,"internal_node_id":"0.0-62.0"},{"result":196,"points":1,"place":4,"phase":0,"sequence":43,"prices":[143,206,153,194,201,267,168,208,210,196],"times":[2076,677,846,526,572,557,1078,765,685,932],"next_num":10,"trial_type":"ticket-choose","trial_index":63,"time_elapsed":814793,"internal_node_id":"0.0-63.0"},{"result":137,"points":3,"place":0,"phase":0,"sequence":44,"prices":[137,187,152,156,166,231,155,194,202,160],"times":[1374],"next_num":1,"trial_type":"ticket-choose","trial_index":64,"time_elapsed":818451,"internal_node_id":"0.0-64.0"},{"result":146,"points":2,"place":1,"phase":0,"sequence":45,"prices":[171,191,172,268,179,194,146,150,127,239],"times":[1412,746,651,788,864,927,1041],"next_num":7,"trial_type":"ticket-choose","trial_index":65,"time_elapsed":828155,"internal_node_id":"0.0-65.0"},{"result":136,"points":2,"place":1,"phase":0,"sequence":46,"prices":[171,192,136,265,180,194,174,152,239,127],"times":[2195,901,1189],"next_num":3,"trial_type":"ticket-choose","trial_index":66,"time_elapsed":834778,"internal_node_id":"0.0-66.0"},{"result":116,"points":3,"place":0,"phase":0,"sequence":47,"prices":[186,146,191,179,152,116,140,201,172,187],"times":[1820,801,660,635,967,1159],"next_num":6,"trial_type":"ticket-choose","trial_index":67,"time_elapsed":844149,"internal_node_id":"0.0-67.0"},{"result":158,"points":1,"place":2,"phase":0,"sequence":48,"prices":[169,194,154,271,178,201,176,158,236,127],"times":[1513,586,619,606,628,5177,727,1365],"next_num":8,"trial_type":"ticket-choose","trial_index":68,"time_elapsed":858893,"internal_node_id":"0.0-68.0"},{"result":124,"points":3,"place":0,"phase":0,"sequence":49,"prices":[219,183,227,124,176,161,140,129,171,201],"times":[1063,506,776,1181],"next_num":4,"trial_type":"ticket-choose","trial_index":69,"time_elapsed":865156,"internal_node_id":"0.0-69.0"},{"responses":[{"value":2,"offby":1,"category":"$90 - $120","category_index":0},{"value":4,"offby":1,"category":"$121 - $145","category_index":1},{"value":5,"offby":2,"category":"$146 - $170","category_index":2},{"value":4,"offby":-2,"category":"$171 - $195","category_index":3},{"value":3,"offby":-1,"category":"$196 - $220","category_index":4},{"value":1,"offby":-1,"category":"$221 - $245","category_index":5},{"value":1,"offby":0,"category":"$246 - $270","category_index":6}],"phase":0,"number":1,"trial_type":"bar-choose","trial_index":70,"time_elapsed":936732,"internal_node_id":"0.0-70.0"},{"rt":4722,"url":"\/tickets\/utils\/start2.html","trial_type":"html","trial_index":71,"time_elapsed":942654,"internal_node_id":"0.0-71.0"},{"trial_type":"number-animation","trial_index":72,"time_elapsed":977605,"internal_node_id":"0.0-72.0"},{"phase":1,"sequence":0,"avg":181,"response":178,"trial_type":"training_avg","trial_index":73,"time_elapsed":986553,"internal_node_id":"0.0-73.0"},{"trial_type":"number-animation","trial_index":74,"time_elapsed":1031849,"internal_node_id":"0.0-74.0"},{"phase":1,"sequence":1,"avg":188,"response":188,"trial_type":"training_avg","trial_index":75,"time_elapsed":1042222,"internal_node_id":"0.0-75.0"},{"trial_type":"number-animation","trial_index":76,"time_elapsed":1081289,"internal_node_id":"0.0-76.0"},{"phase":1,"sequence":2,"avg":188,"response":187,"trial_type":"training_avg","trial_index":77,"time_elapsed":1088479,"internal_node_id":"0.0-77.0"},{"trial_type":"number-animation","trial_index":78,"time_elapsed":1138134,"internal_node_id":"0.0-78.0"},{"phase":1,"sequence":3,"avg":177,"response":177,"trial_type":"training_avg","trial_index":79,"time_elapsed":1144332,"internal_node_id":"0.0-79.0"},{"trial_type":"number-animation","trial_index":80,"time_elapsed":1184012,"internal_node_id":"0.0-80.0"},{"phase":1,"sequence":4,"avg":182,"response":182,"trial_type":"training_avg","trial_index":81,"time_elapsed":1192296,"internal_node_id":"0.0-81.0"},{"responses":[{"value":0,"offby":0,"category":"$106 - $134","category_index":0},{"value":2,"offby":1,"category":"$135 - $150","category_index":1},{"value":6,"offby":3,"category":"$151 - $165","category_index":2},{"value":10,"offby":4,"category":"$166 - $180","category_index":3},{"value":1,"offby":-5,"category":"$181 - $195","category_index":4},{"value":1,"offby":-2,"category":"$196 - $210","category_index":5},{"value":0,"offby":-1,"category":"$211 - $225","category_index":6}],"phase":1,"number":0,"trial_type":"bar-choose","trial_index":82,"time_elapsed":1215011,"internal_node_id":"0.0-82.0"},{"rt":9776,"url":"\/tickets\/utils\/testing2.html","trial_type":"html","trial_index":83,"time_elapsed":1225988,"internal_node_id":"0.0-83.0"},{"phase":1,"order":[2,25,43,4,46,1,8,29,3,18,17,28,23,26,36,13,24,39,10,14,21,12,37,41,20,9,31,19,44,5,38,6,48,34,27,22,30,35,40,15,42,45,0,32,33,7,16,49,11,47],"trial_type":"store_order","trial_index":84,"time_elapsed":1226993,"internal_node_id":"0.0-84.0"},{"result":167,"points":2,"place":1,"phase":1,"sequence":0,"prices":[174,186,178,217,181,188,167,168,208,156],"times":[2943,611,533,816,731,571,1137],"next_num":7,"trial_type":"ticket-choose","trial_index":85,"time_elapsed":1238540,"internal_node_id":"0.0-85.0"},{"result":163,"points":2,"place":1,"phase":1,"sequence":1,"prices":[175,187,163,209,180,188,176,165,154,208],"times":[18248,579,1224],"next_num":3,"trial_type":"ticket-choose","trial_index":86,"time_elapsed":1261593,"internal_node_id":"0.0-86.0"},{"result":167,"points":2,"place":1,"phase":1,"sequence":2,"prices":[175,185,178,215,181,186,167,168,208,156],"times":[595,402,381,342,419,535,1012],"next_num":7,"trial_type":"ticket-choose","trial_index":87,"time_elapsed":1268385,"internal_node_id":"0.0-87.0"},{"result":161,"points":3,"place":0,"phase":1,"sequence":3,"prices":[161,193,167,187,190,224,174,194,195,188],"times":[1945],"next_num":1,"trial_type":"ticket-choose","trial_index":88,"time_elapsed":1272356,"internal_node_id":"0.0-88.0"},{"result":150,"points":3,"place":0,"phase":1,"sequence":4,"prices":[150,185,154,161,173,199,155,188,191,168],"times":[2258],"next_num":1,"trial_type":"ticket-choose","trial_index":89,"time_elapsed":1276646,"internal_node_id":"0.0-89.0"},{"result":157,"points":3,"place":0,"phase":1,"sequence":5,"prices":[157,191,165,175,182,203,170,195,200,176],"times":[1140],"next_num":1,"trial_type":"ticket-choose","trial_index":90,"time_elapsed":1279830,"internal_node_id":"0.0-90.0"},{"result":166,"points":1,"place":2,"phase":1,"sequence":6,"prices":[175,186,158,211,180,187,177,166,209,153],"times":[1087,663,382,726,708,604,689,1045],"next_num":8,"trial_type":"ticket-choose","trial_index":91,"time_elapsed":1289098,"internal_node_id":"0.0-91.0"},{"result":143,"points":3,"place":0,"phase":1,"sequence":7,"prices":[222,173,202,197,143,205,198,183,178,186],"times":[1239,943,772,750,1086],"next_num":5,"trial_type":"ticket-choose","trial_index":92,"time_elapsed":1296668,"internal_node_id":"0.0-92.0"},{"result":165,"points":2,"place":1,"phase":1,"sequence":8,"prices":[188,200,165,172,198,174,177,154,177,180],"times":[773,639,3496],"next_num":3,"trial_type":"ticket-choose","trial_index":93,"time_elapsed":1303990,"internal_node_id":"0.0-93.0"},{"result":158,"points":2,"place":1,"phase":1,"sequence":9,"prices":[176,187,177,225,181,187,158,165,208,153],"times":[925,508,570,639,655,610,1091],"next_num":7,"trial_type":"ticket-choose","trial_index":94,"time_elapsed":1312175,"internal_node_id":"0.0-94.0"},{"result":154,"points":3,"place":0,"phase":1,"sequence":10,"prices":[176,185,158,217,180,186,177,166,209,154],"times":[689,718,505,624,750,659,756,1400,605,998],"next_num":10,"trial_type":"ticket-choose","trial_index":95,"time_elapsed":1323835,"internal_node_id":"0.0-95.0"},{"result":163,"points":3,"place":0,"phase":1,"sequence":11,"prices":[168,199,196,198,185,195,227,163,177,166],"times":[1405,586,690,674,820,666,1011,1227],"next_num":8,"trial_type":"ticket-choose","trial_index":96,"time_elapsed":1334606,"internal_node_id":"0.0-96.0"},{"result":163,"points":1,"place":2,"phase":1,"sequence":12,"prices":[183,163,185,180,166,148,160,186,176,184],"times":[2058,1152],"next_num":2,"trial_type":"ticket-choose","trial_index":97,"time_elapsed":1339946,"internal_node_id":"0.0-97.0"},{"result":164,"points":3,"place":0,"phase":1,"sequence":13,"prices":[212,192,188,184,167,193,189,164,176,170],"times":[836,768,861,628,555,646,637,1164],"next_num":8,"trial_type":"ticket-choose","trial_index":98,"time_elapsed":1349330,"internal_node_id":"0.0-98.0"},{"result":186,"points":1,"place":4,"phase":1,"sequence":14,"prices":[168,192,171,178,188,217,172,195,197,186],"times":[1602,628,662,606,678,738,734,666,669,1075],"next_num":10,"trial_type":"ticket-choose","trial_index":99,"time_elapsed":1361871,"internal_node_id":"0.0-99.0"},{"result":158,"points":1,"place":3,"phase":1,"sequence":15,"prices":[201,207,155,158,156,165,167,135,178,177],"times":[939,566,514,1070],"next_num":4,"trial_type":"ticket-choose","trial_index":100,"time_elapsed":1367610,"internal_node_id":"0.0-100.0"},{"result":167,"points":2,"place":1,"phase":1,"sequence":16,"prices":[175,186,178,212,179,187,167,169,209,153],"times":[706,622,702,715,717,595,992],"next_num":7,"trial_type":"ticket-choose","trial_index":101,"time_elapsed":1375788,"internal_node_id":"0.0-101.0"},{"result":158,"points":2,"place":1,"phase":1,"sequence":17,"prices":[176,185,177,218,180,186,158,166,209,154],"times":[732,987,564,642,636,686,1258],"next_num":7,"trial_type":"ticket-choose","trial_index":102,"time_elapsed":1384639,"internal_node_id":"0.0-102.0"},{"result":184,"points":1,"place":4,"phase":1,"sequence":18,"prices":[161,193,175,181,185,224,180,199,218,184],"times":[837,568,720,765,633,869,765,724,650,710],"next_num":10,"trial_type":"ticket-choose","trial_index":103,"time_elapsed":1395796,"internal_node_id":"0.0-103.0"},{"result":169,"points":2,"place":1,"phase":1,"sequence":19,"prices":[181,215,169,147,182,193,177,184,176,179],"times":[1039,772,1116],"next_num":3,"trial_type":"ticket-choose","trial_index":104,"time_elapsed":1400948,"internal_node_id":"0.0-104.0"},{"result":158,"points":2,"place":1,"phase":1,"sequence":20,"prices":[175,186,158,209,181,188,177,167,208,154],"times":[726,696,2351],"next_num":3,"trial_type":"ticket-choose","trial_index":105,"time_elapsed":1406940,"internal_node_id":"0.0-105.0"},{"result":156,"points":3,"place":0,"phase":1,"sequence":21,"prices":[174,186,167,211,181,188,178,168,208,156],"times":[855,666,1076,612,677,639,664,699,725,686],"next_num":10,"trial_type":"ticket-choose","trial_index":106,"time_elapsed":1418022,"internal_node_id":"0.0-106.0"},{"result":162,"points":1,"place":2,"phase":1,"sequence":22,"prices":[148,171,150,163,167,220,162,186,187,165],"times":[874,694,378,453,1020,597,1052],"next_num":7,"trial_type":"ticket-choose","trial_index":107,"time_elapsed":1426238,"internal_node_id":"0.0-107.0"},{"result":165,"points":3,"place":0,"phase":1,"sequence":23,"prices":[189,167,180,197,165,168,172,213,178,171],"times":[811,637,561,612,1100],"next_num":5,"trial_type":"ticket-choose","trial_index":108,"time_elapsed":1432696,"internal_node_id":"0.0-108.0"},{"result":155,"points":2,"place":1,"phase":1,"sequence":24,"prices":[181,155,148,161,168,187,172,199,176,194],"times":[790,1022],"next_num":2,"trial_type":"ticket-choose","trial_index":109,"time_elapsed":1436699,"internal_node_id":"0.0-109.0"},{"result":168,"points":1,"place":2,"phase":1,"sequence":25,"prices":[175,185,167,224,181,186,178,168,208,156],"times":[2011,639,900,620,821,617,602,1239],"next_num":8,"trial_type":"ticket-choose","trial_index":110,"time_elapsed":1447583,"internal_node_id":"0.0-110.0"},{"result":158,"points":2,"place":1,"phase":1,"sequence":26,"prices":[175,186,177,221,180,187,158,166,209,153],"times":[772,1455,588,718,673,617,1070],"next_num":7,"trial_type":"ticket-choose","trial_index":111,"time_elapsed":1456600,"internal_node_id":"0.0-111.0"},{"result":152,"points":3,"place":0,"phase":1,"sequence":27,"prices":[152,200,158,173,182,207,161,202,204,180],"times":[989],"next_num":1,"trial_type":"ticket-choose","trial_index":112,"time_elapsed":1459513,"internal_node_id":"0.0-112.0"},{"result":153,"points":3,"place":0,"phase":1,"sequence":28,"prices":[175,187,167,212,179,187,178,169,208,153],"times":[759,875,1077,698,1124,710,1305,454,908,1260],"next_num":10,"trial_type":"ticket-choose","trial_index":113,"time_elapsed":1472531,"internal_node_id":"0.0-113.0"},{"result":159,"points":3,"place":0,"phase":1,"sequence":29,"prices":[159,183,166,168,173,205,167,187,191,170],"times":[1024],"next_num":1,"trial_type":"ticket-choose","trial_index":114,"time_elapsed":1475557,"internal_node_id":"0.0-114.0"},{"result":171,"points":1,"place":2,"phase":1,"sequence":30,"prices":[169,196,170,184,187,211,171,201,202,185],"times":[840,676,607,649,614,797,1210],"next_num":7,"trial_type":"ticket-choose","trial_index":115,"time_elapsed":1484080,"internal_node_id":"0.0-115.0"},{"result":154,"points":2,"place":1,"phase":1,"sequence":31,"prices":[168,154,172,185,195,144,184,211,177,227],"times":[1819,1710],"next_num":2,"trial_type":"ticket-choose","trial_index":116,"time_elapsed":1489792,"internal_node_id":"0.0-116.0"},{"result":163,"points":2,"place":1,"phase":1,"sequence":32,"prices":[176,186,176,210,179,187,163,166,153,208],"times":[949,790,863,635,676,585,1068],"next_num":7,"trial_type":"ticket-choose","trial_index":117,"time_elapsed":1498820,"internal_node_id":"0.0-117.0"},{"result":163,"points":2,"place":1,"phase":1,"sequence":33,"prices":[175,186,176,224,179,187,163,165,153,210],"times":[1881,1553,587,444,453,684,1111],"next_num":7,"trial_type":"ticket-choose","trial_index":118,"time_elapsed":1508809,"internal_node_id":"0.0-118.0"},{"result":154,"points":3,"place":0,"phase":1,"sequence":34,"prices":[175,186,177,209,181,188,158,167,208,154],"times":[994,723,718,611,623,737,616,1851,653,744],"next_num":10,"trial_type":"ticket-choose","trial_index":119,"time_elapsed":1520969,"internal_node_id":"0.0-119.0"},{"result":163,"points":2,"place":1,"phase":1,"sequence":35,"prices":[174,186,176,217,181,187,163,166,153,209],"times":[1279,540,596,636,669,602,1269],"next_num":7,"trial_type":"ticket-choose","trial_index":120,"time_elapsed":1529648,"internal_node_id":"0.0-120.0"},{"result":208,"points":0,"place":8,"phase":1,"sequence":36,"prices":[176,186,163,214,179,187,176,166,153,208],"times":[801,641,623,524,583,605,950,1366,578,1174],"next_num":11,"trial_type":"ticket-choose","trial_index":121,"time_elapsed":1541583,"internal_node_id":"0.0-121.0"},{"result":150,"points":3,"place":0,"phase":1,"sequence":37,"prices":[189,150,175,160,188,207,158,194,178,199],"times":[1328,1124],"next_num":2,"trial_type":"ticket-choose","trial_index":122,"time_elapsed":1546197,"internal_node_id":"0.0-122.0"},{"result":152,"points":3,"place":0,"phase":1,"sequence":38,"prices":[200,181,203,152,175,171,160,154,176,191],"times":[899,1204,692,1043],"next_num":4,"trial_type":"ticket-choose","trial_index":123,"time_elapsed":1552493,"internal_node_id":"0.0-123.0"},{"result":157,"points":3,"place":0,"phase":1,"sequence":39,"prices":[201,187,157,184,198,179,188,185,178,170],"times":[1028,656,1047],"next_num":3,"trial_type":"ticket-choose","trial_index":124,"time_elapsed":1557412,"internal_node_id":"0.0-124.0"},{"result":158,"points":2,"place":1,"phase":1,"sequence":40,"prices":[176,187,158,210,181,187,177,165,208,153],"times":[666,654,1045],"next_num":3,"trial_type":"ticket-choose","trial_index":125,"time_elapsed":1561997,"internal_node_id":"0.0-125.0"},{"result":153,"points":3,"place":0,"phase":1,"sequence":41,"prices":[175,187,178,209,179,187,167,169,208,153],"times":[1073,678,675,567,569,597,584,1141,596,780],"next_num":10,"trial_type":"ticket-choose","trial_index":126,"time_elapsed":1573202,"internal_node_id":"0.0-126.0"},{"result":165,"points":1,"place":2,"phase":1,"sequence":42,"prices":[175,186,163,211,179,187,176,165,153,210],"times":[913,456,289,748,332,880,853,1223],"next_num":8,"trial_type":"ticket-choose","trial_index":127,"time_elapsed":1582252,"internal_node_id":"0.0-127.0"},{"result":153,"points":3,"place":0,"phase":1,"sequence":43,"prices":[175,186,167,225,179,187,178,169,209,153],"times":[758,630,587,713,651,679,844,1052,747,956],"next_num":10,"trial_type":"ticket-choose","trial_index":128,"time_elapsed":1593766,"internal_node_id":"0.0-128.0"},{"result":158,"points":3,"place":0,"phase":1,"sequence":44,"prices":[210,184,226,193,215,158,199,175,176,208],"times":[1020,991,527,658,586,1038],"next_num":6,"trial_type":"ticket-choose","trial_index":129,"time_elapsed":1601511,"internal_node_id":"0.0-129.0"},{"result":165,"points":1,"place":2,"phase":1,"sequence":45,"prices":[175,187,176,209,180,188,163,165,154,208],"times":[1377,641,502,697,559,580,476,1502],"next_num":8,"trial_type":"ticket-choose","trial_index":130,"time_elapsed":1611241,"internal_node_id":"0.0-130.0"},{"result":179,"points":1,"place":4,"phase":1,"sequence":46,"prices":[156,201,162,166,185,214,165,202,204,179],"times":[641,476,340,637,455,635,675,600,604,942],"next_num":10,"trial_type":"ticket-choose","trial_index":131,"time_elapsed":1621185,"internal_node_id":"0.0-131.0"},{"result":141,"points":3,"place":0,"phase":1,"sequence":47,"prices":[180,159,149,175,185,141,163,174,178,207],"times":[1253,517,568,1595,1040,1047],"next_num":6,"trial_type":"ticket-choose","trial_index":132,"time_elapsed":1630251,"internal_node_id":"0.0-132.0"},{"result":152,"points":3,"place":0,"phase":1,"sequence":48,"prices":[198,193,169,163,202,182,152,164,177,171],"times":[791,627,905,918,844,746,1127],"next_num":7,"trial_type":"ticket-choose","trial_index":133,"time_elapsed":1639413,"internal_node_id":"0.0-133.0"},{"result":166,"points":1,"place":2,"phase":1,"sequence":49,"prices":[174,186,163,212,181,187,176,166,153,209],"times":[1087,575,820,714,768,595,766,1632],"next_num":8,"trial_type":"ticket-choose","trial_index":134,"time_elapsed":1649803,"internal_node_id":"0.0-134.0"},{"responses":[{"value":0,"offby":0,"category":"$106 - $134","category_index":0},{"value":2,"offby":1,"category":"$135 - $150","category_index":1},{"value":4,"offby":1,"category":"$151 - $165","category_index":2},{"value":5,"offby":-1,"category":"$166 - $180","category_index":3},{"value":6,"offby":0,"category":"$181 - $195","category_index":4},{"value":2,"offby":-1,"category":"$196 - $210","category_index":5},{"value":1,"offby":0,"category":"$211 - $225","category_index":6}],"phase":1,"number":1,"trial_type":"bar-choose","trial_index":135,"time_elapsed":1683735,"internal_node_id":"0.0-135.0"},{"special_comment":"no","trial_type":"special_sequence","trial_index":136,"time_elapsed":1688450,"internal_node_id":"0.0-136.0"},{"during":"Nothing","bonus":296,"trial_type":"final","trial_index":137,"time_elapsed":1709802,"internal_node_id":"0.0-137.0"}],"bonus":296}