{"start_time":"2017-02-16 15:32:06","end_time":"2017-02-16 16:17:22","points_phase0":114,"points_phase1":120,"phase_order":0,"age":31,"gender":"f","tries":1,"during":"Nothing","worker_id":"AEI5USUUPBU2G","assignment_id":"3HWRJOOET6VS0H9EJ9VQTKOF54HESB","data":[{"rt":246042,"url":"\/tickets\/utils\/consent.html","trial_type":"html","trial_index":0,"time_elapsed":246192,"internal_node_id":"0.0-0.0"},{"age":31,"gender":"f","trial_type":"age","trial_index":1,"time_elapsed":254386,"internal_node_id":"0.0-1.0"},{"worker_id":"AEI5USUUPBU2G","trial_type":"workerid","trial_index":2,"time_elapsed":261681,"internal_node_id":"0.0-2.0"},{"tries":1,"trial_type":"instructions_check","trial_index":3,"time_elapsed":315816,"internal_node_id":"0.0-3.0"},{"rt":19662,"url":"\/tickets\/utils\/start.html","trial_type":"html","trial_index":4,"time_elapsed":336700,"internal_node_id":"0.0-4.0"},{"trial_type":"number-animation","trial_index":5,"time_elapsed":360886,"internal_node_id":"0.0-5.0"},{"phase":0,"sequence":0,"avg":181,"response":182,"trial_type":"training_avg","trial_index":6,"time_elapsed":377374,"internal_node_id":"0.0-6.0"},{"trial_type":"number-animation","trial_index":7,"time_elapsed":392413,"internal_node_id":"0.0-7.0"},{"phase":0,"sequence":1,"avg":188,"response":192,"trial_type":"training_avg","trial_index":8,"time_elapsed":404764,"internal_node_id":"0.0-8.0"},{"trial_type":"number-animation","trial_index":9,"time_elapsed":420316,"internal_node_id":"0.0-9.0"},{"phase":0,"sequence":2,"avg":188,"response":189,"trial_type":"training_avg","trial_index":10,"time_elapsed":433431,"internal_node_id":"0.0-10.0"},{"trial_type":"number-animation","trial_index":11,"time_elapsed":449718,"internal_node_id":"0.0-11.0"},{"phase":0,"sequence":3,"avg":177,"response":178,"trial_type":"training_avg","trial_index":12,"time_elapsed":462954,"internal_node_id":"0.0-12.0"},{"trial_type":"number-animation","trial_index":13,"time_elapsed":475198,"internal_node_id":"0.0-13.0"},{"phase":0,"sequence":4,"avg":182,"response":168,"trial_type":"training_avg","trial_index":14,"time_elapsed":485752,"internal_node_id":"0.0-14.0"},{"responses":[{"value":0,"offby":0,"category":"$106 - $134","category_index":0},{"value":1,"offby":0,"category":"$135 - $150","category_index":1},{"value":2,"offby":-1,"category":"$151 - $165","category_index":2},{"value":5,"offby":-1,"category":"$166 - $180","category_index":3},{"value":8,"offby":2,"category":"$181 - $195","category_index":4},{"value":3,"offby":0,"category":"$196 - $210","category_index":5},{"value":1,"offby":0,"category":"$211 - $225","category_index":6}],"phase":0,"number":0,"trial_type":"bar-choose","trial_index":15,"time_elapsed":679347,"internal_node_id":"0.0-15.0"},{"rt":29948,"url":"\/tickets\/\/utils\/testing.html","trial_type":"html","trial_index":16,"time_elapsed":710446,"internal_node_id":"0.0-16.0"},{"phase":0,"order":[4,43,46,31,27,35,48,45,21,12,8,26,16,0,28,19,5,37,3,11,20,1,17,2,33,10,9,13,34,15,7,39,38,22,41,47,24,14,23,18,49,29,42,30,32,44,25,36,40,6],"trial_type":"store_order","trial_index":17,"time_elapsed":711448,"internal_node_id":"0.0-17.0"},{"result":126,"points":3,"place":0,"phase":0,"sequence":-1,"times":[3032,924,959,1310,1345,1579,3223,919,709,2404],"next_num":10,"trial_type":"ticket-choose","trial_index":18,"time_elapsed":732369,"internal_node_id":"0.0-18.0"},{"rt":26543,"url":"\/tickets\/utils\/testing_after.html","trial_type":"html","trial_index":19,"time_elapsed":760068,"internal_node_id":"0.0-19.0"},{"result":163,"points":2,"place":1,"phase":0,"sequence":0,"times":[2142,954,1254,917,1576,982,3507],"next_num":7,"trial_type":"ticket-choose","trial_index":20,"time_elapsed":777965,"internal_node_id":"0.0-20.0"},{"result":157,"points":3,"place":0,"phase":0,"sequence":1,"times":[1601,819,2331],"next_num":3,"trial_type":"ticket-choose","trial_index":21,"time_elapsed":787044,"internal_node_id":"0.0-21.0"},{"result":158,"points":3,"place":0,"phase":0,"sequence":2,"times":[1107,742,768,706,709,1867],"next_num":6,"trial_type":"ticket-choose","trial_index":22,"time_elapsed":796855,"internal_node_id":"0.0-22.0"},{"result":148,"points":3,"place":0,"phase":0,"sequence":3,"times":[2186],"next_num":1,"trial_type":"ticket-choose","trial_index":23,"time_elapsed":801991,"internal_node_id":"0.0-23.0"},{"result":186,"points":1,"place":4,"phase":0,"sequence":4,"times":[3045,614,923,777,678,814,5172,909,887,1691],"next_num":10,"trial_type":"ticket-choose","trial_index":24,"time_elapsed":822722,"internal_node_id":"0.0-24.0"},{"result":154,"points":2,"place":1,"phase":0,"sequence":5,"times":[3342,1660],"next_num":2,"trial_type":"ticket-choose","trial_index":25,"time_elapsed":830779,"internal_node_id":"0.0-25.0"},{"result":147,"points":3,"place":0,"phase":0,"sequence":6,"times":[1439,588,974,1531],"next_num":4,"trial_type":"ticket-choose","trial_index":26,"time_elapsed":838328,"internal_node_id":"0.0-26.0"},{"result":167,"points":2,"place":1,"phase":0,"sequence":7,"times":[1120,846,1044,602,2370],"next_num":5,"trial_type":"ticket-choose","trial_index":27,"time_elapsed":847731,"internal_node_id":"0.0-27.0"},{"result":158,"points":2,"place":1,"phase":0,"sequence":8,"times":[737,892,734,693,742,622,1767],"next_num":7,"trial_type":"ticket-choose","trial_index":28,"time_elapsed":857685,"internal_node_id":"0.0-28.0"},{"result":168,"points":1,"place":2,"phase":0,"sequence":9,"times":[1451,669,596,726,787,1071,2246,2762],"next_num":8,"trial_type":"ticket-choose","trial_index":29,"time_elapsed":872321,"internal_node_id":"0.0-29.0"},{"result":168,"points":1,"place":2,"phase":0,"sequence":10,"times":[1325,662,1013,606,829,1088,798,1889],"next_num":8,"trial_type":"ticket-choose","trial_index":30,"time_elapsed":884370,"internal_node_id":"0.0-30.0"},{"result":152,"points":3,"place":0,"phase":0,"sequence":11,"times":[1734],"next_num":1,"trial_type":"ticket-choose","trial_index":31,"time_elapsed":888990,"internal_node_id":"0.0-31.0"},{"result":158,"points":2,"place":1,"phase":0,"sequence":12,"times":[1002,804,1431],"next_num":3,"trial_type":"ticket-choose","trial_index":32,"time_elapsed":895943,"internal_node_id":"0.0-32.0"},{"result":163,"points":2,"place":1,"phase":0,"sequence":13,"times":[2867,597,3418],"next_num":3,"trial_type":"ticket-choose","trial_index":33,"time_elapsed":906126,"internal_node_id":"0.0-33.0"},{"result":185,"points":1,"place":4,"phase":0,"sequence":14,"times":[4990,653,590,951,765,637,765,816,789,1408],"next_num":10,"trial_type":"ticket-choose","trial_index":34,"time_elapsed":924060,"internal_node_id":"0.0-34.0"},{"result":158,"points":2,"place":1,"phase":0,"sequence":15,"times":[1153,605,1359],"next_num":3,"trial_type":"ticket-choose","trial_index":35,"time_elapsed":929665,"internal_node_id":"0.0-35.0"},{"result":163,"points":2,"place":1,"phase":0,"sequence":16,"times":[634,662,733,926,852,918,1546],"next_num":7,"trial_type":"ticket-choose","trial_index":36,"time_elapsed":940144,"internal_node_id":"0.0-36.0"},{"result":163,"points":2,"place":1,"phase":0,"sequence":17,"times":[723,717,2462,1411],"next_num":4,"trial_type":"ticket-choose","trial_index":37,"time_elapsed":948441,"internal_node_id":"0.0-37.0"},{"result":163,"points":2,"place":1,"phase":0,"sequence":18,"times":[1362,1316,1769],"next_num":3,"trial_type":"ticket-choose","trial_index":38,"time_elapsed":955603,"internal_node_id":"0.0-38.0"},{"result":153,"points":3,"place":0,"phase":0,"sequence":19,"times":[5941,4349,1046,653,757,871,708,2048,610,1678],"next_num":10,"trial_type":"ticket-choose","trial_index":39,"time_elapsed":979120,"internal_node_id":"0.0-39.0"},{"result":158,"points":2,"place":1,"phase":0,"sequence":20,"times":[1310,681,1149,797,649,574,2090],"next_num":7,"trial_type":"ticket-choose","trial_index":40,"time_elapsed":989790,"internal_node_id":"0.0-40.0"},{"result":163,"points":2,"place":1,"phase":0,"sequence":21,"times":[1032,574,2131],"next_num":3,"trial_type":"ticket-choose","trial_index":41,"time_elapsed":996143,"internal_node_id":"0.0-41.0"},{"result":158,"points":2,"place":1,"phase":0,"sequence":22,"times":[828,6524,1747],"next_num":3,"trial_type":"ticket-choose","trial_index":42,"time_elapsed":1007809,"internal_node_id":"0.0-42.0"},{"result":163,"points":2,"place":1,"phase":0,"sequence":23,"times":[721,1182,3196],"next_num":3,"trial_type":"ticket-choose","trial_index":43,"time_elapsed":1015520,"internal_node_id":"0.0-43.0"},{"result":159,"points":3,"place":0,"phase":0,"sequence":24,"times":[1680],"next_num":1,"trial_type":"ticket-choose","trial_index":44,"time_elapsed":1019340,"internal_node_id":"0.0-44.0"},{"result":153,"points":3,"place":0,"phase":0,"sequence":25,"times":[1248,886,1438,949,702,878,776,1492,549,1344],"next_num":10,"trial_type":"ticket-choose","trial_index":45,"time_elapsed":1033528,"internal_node_id":"0.0-45.0"},{"result":156,"points":3,"place":0,"phase":0,"sequence":26,"times":[1120,823,1046,1272,818,791,654,1550,534,1371],"next_num":10,"trial_type":"ticket-choose","trial_index":46,"time_elapsed":1047676,"internal_node_id":"0.0-46.0"},{"result":156,"points":3,"place":0,"phase":0,"sequence":27,"times":[1116,1169,804,1269,1100,621,1189,835,490,1129],"next_num":10,"trial_type":"ticket-choose","trial_index":47,"time_elapsed":1062531,"internal_node_id":"0.0-47.0"},{"result":155,"points":2,"place":1,"phase":0,"sequence":28,"times":[974,1611],"next_num":2,"trial_type":"ticket-choose","trial_index":48,"time_elapsed":1067423,"internal_node_id":"0.0-48.0"},{"result":153,"points":3,"place":0,"phase":0,"sequence":29,"times":[712,567,695,948,972,575,877,821,534,1104],"next_num":10,"trial_type":"ticket-choose","trial_index":49,"time_elapsed":1079363,"internal_node_id":"0.0-49.0"},{"result":153,"points":3,"place":0,"phase":0,"sequence":30,"times":[918,604,726,648,620,622,892,878,1828],"next_num":9,"trial_type":"ticket-choose","trial_index":50,"time_elapsed":1090955,"internal_node_id":"0.0-50.0"},{"result":171,"points":1,"place":3,"phase":0,"sequence":31,"times":[1017,1128,559,540,703,791,796,774,624,1646],"next_num":10,"trial_type":"ticket-choose","trial_index":51,"time_elapsed":1104049,"internal_node_id":"0.0-51.0"},{"result":163,"points":3,"place":0,"phase":0,"sequence":32,"times":[1042,908,665,588,1141,685,846,1779],"next_num":8,"trial_type":"ticket-choose","trial_index":52,"time_elapsed":1115262,"internal_node_id":"0.0-52.0"},{"result":158,"points":2,"place":1,"phase":0,"sequence":33,"times":[720,847,884,773,790,982,2407],"next_num":7,"trial_type":"ticket-choose","trial_index":53,"time_elapsed":1125977,"internal_node_id":"0.0-53.0"},{"result":155,"points":2,"place":1,"phase":0,"sequence":34,"times":[927,871,1703],"next_num":3,"trial_type":"ticket-choose","trial_index":54,"time_elapsed":1132443,"internal_node_id":"0.0-54.0"},{"result":152,"points":3,"place":0,"phase":0,"sequence":35,"times":[628,579,625,1424],"next_num":4,"trial_type":"ticket-choose","trial_index":55,"time_elapsed":1138602,"internal_node_id":"0.0-55.0"},{"result":184,"points":1,"place":4,"phase":0,"sequence":36,"times":[761,613,519,773,608,668,727,924,620,1211],"next_num":10,"trial_type":"ticket-choose","trial_index":56,"time_elapsed":1149900,"internal_node_id":"0.0-56.0"},{"result":153,"points":3,"place":0,"phase":0,"sequence":37,"times":[992,1167,552,1021,876,723,1671,903,708,1189],"next_num":10,"trial_type":"ticket-choose","trial_index":57,"time_elapsed":1169822,"internal_node_id":"0.0-57.0"},{"result":158,"points":2,"place":1,"phase":0,"sequence":38,"times":[2615,533,719,668,870,646,1496],"next_num":7,"trial_type":"ticket-choose","trial_index":58,"time_elapsed":1180737,"internal_node_id":"0.0-58.0"},{"result":158,"points":2,"place":1,"phase":0,"sequence":39,"times":[799,932,2549],"next_num":3,"trial_type":"ticket-choose","trial_index":59,"time_elapsed":1187447,"internal_node_id":"0.0-59.0"},{"result":163,"points":1,"place":2,"phase":0,"sequence":40,"times":[773,2192],"next_num":2,"trial_type":"ticket-choose","trial_index":60,"time_elapsed":1192634,"internal_node_id":"0.0-60.0"},{"result":150,"points":3,"place":0,"phase":0,"sequence":41,"times":[1630],"next_num":1,"trial_type":"ticket-choose","trial_index":61,"time_elapsed":1196345,"internal_node_id":"0.0-61.0"},{"result":143,"points":3,"place":0,"phase":0,"sequence":42,"times":[884,774,629,598,1587],"next_num":5,"trial_type":"ticket-choose","trial_index":62,"time_elapsed":1203843,"internal_node_id":"0.0-62.0"},{"result":157,"points":3,"place":0,"phase":0,"sequence":43,"times":[1716],"next_num":1,"trial_type":"ticket-choose","trial_index":63,"time_elapsed":1207627,"internal_node_id":"0.0-63.0"},{"result":161,"points":3,"place":0,"phase":0,"sequence":44,"times":[2740],"next_num":1,"trial_type":"ticket-choose","trial_index":64,"time_elapsed":1212546,"internal_node_id":"0.0-64.0"},{"result":159,"points":1,"place":2,"phase":0,"sequence":45,"times":[997,1832],"next_num":2,"trial_type":"ticket-choose","trial_index":65,"time_elapsed":1218246,"internal_node_id":"0.0-65.0"},{"result":156,"points":3,"place":0,"phase":0,"sequence":46,"times":[1626],"next_num":1,"trial_type":"ticket-choose","trial_index":66,"time_elapsed":1222287,"internal_node_id":"0.0-66.0"},{"result":154,"points":3,"place":0,"phase":0,"sequence":47,"times":[1018,654,3862,693,598,719,568,1594],"next_num":8,"trial_type":"ticket-choose","trial_index":67,"time_elapsed":1235599,"internal_node_id":"0.0-67.0"},{"result":150,"points":3,"place":0,"phase":0,"sequence":48,"times":[3904,1476],"next_num":2,"trial_type":"ticket-choose","trial_index":68,"time_elapsed":1244690,"internal_node_id":"0.0-68.0"},{"result":163,"points":2,"place":1,"phase":0,"sequence":49,"times":[1389,749,673,756,660,647,2072],"next_num":7,"trial_type":"ticket-choose","trial_index":69,"time_elapsed":1255049,"internal_node_id":"0.0-69.0"},{"responses":[{"value":0,"offby":0,"category":"$106 - $134","category_index":0},{"value":1,"offby":0,"category":"$135 - $150","category_index":1},{"value":3,"offby":0,"category":"$151 - $165","category_index":2},{"value":7,"offby":1,"category":"$166 - $180","category_index":3},{"value":6,"offby":0,"category":"$181 - $195","category_index":4},{"value":2,"offby":-1,"category":"$196 - $210","category_index":5},{"value":1,"offby":0,"category":"$211 - $225","category_index":6}],"phase":0,"number":1,"trial_type":"bar-choose","trial_index":70,"time_elapsed":1323840,"internal_node_id":"0.0-70.0"},{"rt":14503,"url":"\/tickets\/utils\/start2.html","trial_type":"html","trial_index":71,"time_elapsed":1339497,"internal_node_id":"0.0-71.0"},{"trial_type":"number-animation","trial_index":72,"time_elapsed":1441212,"internal_node_id":"0.0-72.0"},{"phase":1,"sequence":0,"avg":182,"response":174,"trial_type":"training_avg","trial_index":73,"time_elapsed":1452197,"internal_node_id":"0.0-73.0"},{"trial_type":"number-animation","trial_index":74,"time_elapsed":1469933,"internal_node_id":"0.0-74.0"},{"phase":1,"sequence":1,"avg":188,"response":182,"trial_type":"training_avg","trial_index":75,"time_elapsed":1477462,"internal_node_id":"0.0-75.0"},{"trial_type":"number-animation","trial_index":76,"time_elapsed":1494213,"internal_node_id":"0.0-76.0"},{"phase":1,"sequence":2,"avg":176,"response":182,"trial_type":"training_avg","trial_index":77,"time_elapsed":1504229,"internal_node_id":"0.0-77.0"},{"trial_type":"number-animation","trial_index":78,"time_elapsed":1516012,"internal_node_id":"0.0-78.0"},{"phase":1,"sequence":3,"avg":180,"response":184,"trial_type":"training_avg","trial_index":79,"time_elapsed":1524009,"internal_node_id":"0.0-79.0"},{"trial_type":"number-animation","trial_index":80,"time_elapsed":1538852,"internal_node_id":"0.0-80.0"},{"phase":1,"sequence":4,"avg":174,"response":182,"trial_type":"training_avg","trial_index":81,"time_elapsed":1547046,"internal_node_id":"0.0-81.0"},{"responses":[{"value":0,"offby":-1,"category":"$90 - $120","category_index":0},{"value":2,"offby":-1,"category":"$121 - $145","category_index":1},{"value":6,"offby":3,"category":"$146 - $170","category_index":2},{"value":7,"offby":1,"category":"$171 - $195","category_index":3},{"value":3,"offby":-1,"category":"$196 - $220","category_index":4},{"value":2,"offby":0,"category":"$221 - $245","category_index":5},{"value":0,"offby":-1,"category":"$246 - $270","category_index":6}],"phase":1,"number":0,"trial_type":"bar-choose","trial_index":82,"time_elapsed":1597057,"internal_node_id":"0.0-82.0"},{"rt":13284,"url":"\/tickets\/utils\/testing2.html","trial_type":"html","trial_index":83,"time_elapsed":1611485,"internal_node_id":"0.0-83.0"},{"phase":1,"order":[4,48,16,45,47,26,23,30,29,34,15,20,32,39,11,37,22,35,42,36,43,41,25,40,5,2,46,6,21,1,49,0,9,7,33,18,17,24,28,10,3,31,8,14,27,12,44,13,38,19],"trial_type":"store_order","trial_index":84,"time_elapsed":1612488,"internal_node_id":"0.0-84.0"},{"result":146,"points":2,"place":1,"phase":1,"sequence":0,"times":[2215,759,784,700,1234,1081,1509],"next_num":7,"trial_type":"ticket-choose","trial_index":85,"time_elapsed":1628149,"internal_node_id":"0.0-85.0"},{"result":159,"points":2,"place":1,"phase":1,"sequence":1,"times":[1356,885,1855],"next_num":3,"trial_type":"ticket-choose","trial_index":86,"time_elapsed":1634819,"internal_node_id":"0.0-86.0"},{"result":136,"points":2,"place":1,"phase":1,"sequence":2,"times":[6230,621,1602],"next_num":3,"trial_type":"ticket-choose","trial_index":87,"time_elapsed":1645733,"internal_node_id":"0.0-87.0"},{"result":154,"points":2,"place":1,"phase":1,"sequence":3,"times":[882,587,652,548,3908],"next_num":5,"trial_type":"ticket-choose","trial_index":88,"time_elapsed":1655314,"internal_node_id":"0.0-88.0"},{"result":124,"points":3,"place":0,"phase":1,"sequence":4,"times":[888,658,545,1927],"next_num":4,"trial_type":"ticket-choose","trial_index":89,"time_elapsed":1662089,"internal_node_id":"0.0-89.0"},{"result":124,"points":3,"place":0,"phase":1,"sequence":5,"times":[1455],"next_num":1,"trial_type":"ticket-choose","trial_index":90,"time_elapsed":1668587,"internal_node_id":"0.0-90.0"},{"result":136,"points":2,"place":1,"phase":1,"sequence":6,"times":[875,607,808,5843,1451,974,1723],"next_num":7,"trial_type":"ticket-choose","trial_index":91,"time_elapsed":1684908,"internal_node_id":"0.0-91.0"},{"result":135,"points":3,"place":0,"phase":1,"sequence":7,"times":[2231],"next_num":1,"trial_type":"ticket-choose","trial_index":92,"time_elapsed":1724468,"internal_node_id":"0.0-92.0"},{"result":121,"points":3,"place":0,"phase":1,"sequence":8,"times":[3227],"next_num":1,"trial_type":"ticket-choose","trial_index":93,"time_elapsed":1731480,"internal_node_id":"0.0-93.0"},{"result":130,"points":2,"place":1,"phase":1,"sequence":9,"times":[2602,1412],"next_num":2,"trial_type":"ticket-choose","trial_index":94,"time_elapsed":1737777,"internal_node_id":"0.0-94.0"},{"result":126,"points":3,"place":0,"phase":1,"sequence":10,"times":[952,933,1085,630,635,622,959,1028,502,1191],"next_num":10,"trial_type":"ticket-choose","trial_index":95,"time_elapsed":1750398,"internal_node_id":"0.0-95.0"},{"result":126,"points":3,"place":0,"phase":1,"sequence":11,"times":[1048,599,798,816,724,829,1918,790,693,1005],"next_num":10,"trial_type":"ticket-choose","trial_index":96,"time_elapsed":1763555,"internal_node_id":"0.0-96.0"},{"result":196,"points":1,"place":4,"phase":1,"sequence":12,"times":[1939,754,738,574,666,1080,618,653,623,1253],"next_num":10,"trial_type":"ticket-choose","trial_index":97,"time_elapsed":1776440,"internal_node_id":"0.0-97.0"},{"result":162,"points":1,"place":3,"phase":1,"sequence":13,"times":[800,933,537,625,600,653,896,635,799,1707],"next_num":10,"trial_type":"ticket-choose","trial_index":98,"time_elapsed":1789415,"internal_node_id":"0.0-98.0"},{"result":127,"points":3,"place":0,"phase":1,"sequence":14,"times":[738,607,1162,747,579,1356,547,1671,591,1172],"next_num":10,"trial_type":"ticket-choose","trial_index":99,"time_elapsed":1802999,"internal_node_id":"0.0-99.0"},{"result":124,"points":3,"place":0,"phase":1,"sequence":15,"times":[26944,591,614,1327,664,556,1771],"next_num":7,"trial_type":"ticket-choose","trial_index":100,"time_elapsed":1839139,"internal_node_id":"0.0-100.0"},{"result":136,"points":2,"place":1,"phase":1,"sequence":16,"times":[1298,602,535,536,615,573,1860],"next_num":7,"trial_type":"ticket-choose","trial_index":101,"time_elapsed":1851932,"internal_node_id":"0.0-101.0"},{"result":129,"points":2,"place":1,"phase":1,"sequence":17,"times":[918,1620],"next_num":2,"trial_type":"ticket-choose","trial_index":102,"time_elapsed":1856698,"internal_node_id":"0.0-102.0"},{"result":105,"points":3,"place":0,"phase":1,"sequence":18,"times":[693,610,630,660,1615],"next_num":5,"trial_type":"ticket-choose","trial_index":103,"time_elapsed":1863871,"internal_node_id":"0.0-103.0"},{"result":128,"points":3,"place":0,"phase":1,"sequence":19,"times":[992,747,1566,1084,1150,9016,674,2174],"next_num":8,"trial_type":"ticket-choose","trial_index":104,"time_elapsed":1884880,"internal_node_id":"0.0-104.0"},{"result":159,"points":2,"place":1,"phase":1,"sequence":20,"times":[873,560,1655,581,614,565,669,822,496,1136],"next_num":10,"trial_type":"ticket-choose","trial_index":105,"time_elapsed":1896952,"internal_node_id":"0.0-105.0"},{"result":131,"points":2,"place":1,"phase":1,"sequence":21,"times":[26016,692,1797],"next_num":3,"trial_type":"ticket-choose","trial_index":106,"time_elapsed":1927941,"internal_node_id":"0.0-106.0"},{"result":132,"points":3,"place":0,"phase":1,"sequence":22,"times":[4548],"next_num":1,"trial_type":"ticket-choose","trial_index":107,"time_elapsed":1934742,"internal_node_id":"0.0-107.0"},{"result":119,"points":3,"place":0,"phase":1,"sequence":23,"times":[20188,1721],"next_num":2,"trial_type":"ticket-choose","trial_index":108,"time_elapsed":1959830,"internal_node_id":"0.0-108.0"},{"result":128,"points":3,"place":0,"phase":1,"sequence":24,"times":[3182,637,732,576,590,582,1005,884,1689],"next_num":9,"trial_type":"ticket-choose","trial_index":109,"time_elapsed":1993980,"internal_node_id":"0.0-109.0"},{"result":126,"points":3,"place":0,"phase":1,"sequence":25,"times":[1063,557,986,623,715,534,634,1750,1580],"next_num":9,"trial_type":"ticket-choose","trial_index":110,"time_elapsed":2028969,"internal_node_id":"0.0-110.0"},{"result":236,"points":0,"place":6,"phase":1,"sequence":26,"times":[988,606,606,642,542,3831,622,629,724,1893],"next_num":10,"trial_type":"ticket-choose","trial_index":111,"time_elapsed":2044780,"internal_node_id":"0.0-111.0"},{"result":125,"points":3,"place":0,"phase":1,"sequence":27,"times":[23668,604,566,581,662,662,960,787,1509],"next_num":9,"trial_type":"ticket-choose","trial_index":112,"time_elapsed":2078868,"internal_node_id":"0.0-112.0"},{"result":136,"points":2,"place":1,"phase":1,"sequence":28,"times":[29628,602,643,685,550,605,1671],"next_num":7,"trial_type":"ticket-choose","trial_index":113,"time_elapsed":2116574,"internal_node_id":"0.0-113.0"},{"result":129,"points":3,"place":0,"phase":1,"sequence":29,"times":[1171,777,849,565,710,709,1898,1762,1950],"next_num":9,"trial_type":"ticket-choose","trial_index":114,"time_elapsed":2131158,"internal_node_id":"0.0-114.0"},{"result":116,"points":3,"place":0,"phase":1,"sequence":30,"times":[21046,1142,594,607,748,1638],"next_num":6,"trial_type":"ticket-choose","trial_index":115,"time_elapsed":2160007,"internal_node_id":"0.0-115.0"},{"result":126,"points":3,"place":0,"phase":1,"sequence":31,"times":[863,771,771,645,538,654,596,1567,1480],"next_num":9,"trial_type":"ticket-choose","trial_index":116,"time_elapsed":2190014,"internal_node_id":"0.0-116.0"},{"result":133,"points":3,"place":0,"phase":1,"sequence":32,"times":[1043,650,1039,652,676,568,759,953,910,1309],"next_num":10,"trial_type":"ticket-choose","trial_index":117,"time_elapsed":2202769,"internal_node_id":"0.0-117.0"},{"result":127,"points":3,"place":0,"phase":1,"sequence":33,"times":[1436,697,743,598,706,684,1651,1208,1377],"next_num":9,"trial_type":"ticket-choose","trial_index":118,"time_elapsed":2215855,"internal_node_id":"0.0-118.0"},{"result":160,"points":1,"place":4,"phase":1,"sequence":34,"times":[20091,581,874,606,783,718,645,912,656,1117],"next_num":10,"trial_type":"ticket-choose","trial_index":119,"time_elapsed":2246902,"internal_node_id":"0.0-119.0"},{"result":136,"points":2,"place":1,"phase":1,"sequence":35,"times":[24688,697,2608],"next_num":3,"trial_type":"ticket-choose","trial_index":120,"time_elapsed":2277369,"internal_node_id":"0.0-120.0"},{"result":136,"points":2,"place":1,"phase":1,"sequence":36,"times":[786,644,2950],"next_num":3,"trial_type":"ticket-choose","trial_index":121,"time_elapsed":2284127,"internal_node_id":"0.0-121.0"},{"result":188,"points":1,"place":4,"phase":1,"sequence":37,"times":[680,535,615,670,722,655,582,809,669,1160],"next_num":10,"trial_type":"ticket-choose","trial_index":122,"time_elapsed":2319878,"internal_node_id":"0.0-122.0"},{"result":189,"points":1,"place":4,"phase":1,"sequence":38,"times":[1423,1678,587,622,729,754,793,846,859,1315],"next_num":10,"trial_type":"ticket-choose","trial_index":123,"time_elapsed":2333858,"internal_node_id":"0.0-123.0"},{"result":126,"points":3,"place":0,"phase":1,"sequence":39,"times":[15141,539,1300,653,536,555,566,1625,543,1348],"next_num":10,"trial_type":"ticket-choose","trial_index":124,"time_elapsed":2360569,"internal_node_id":"0.0-124.0"},{"result":126,"points":3,"place":0,"phase":1,"sequence":40,"times":[2743,617,1475,622,511,590,790,924,1472],"next_num":9,"trial_type":"ticket-choose","trial_index":125,"time_elapsed":2374339,"internal_node_id":"0.0-125.0"},{"result":117,"points":3,"place":0,"phase":1,"sequence":41,"times":[1438],"next_num":1,"trial_type":"ticket-choose","trial_index":126,"time_elapsed":2377717,"internal_node_id":"0.0-126.0"},{"result":133,"points":3,"place":0,"phase":1,"sequence":42,"times":[21397,615,1141,594,620,728,544,974,671,1040],"next_num":10,"trial_type":"ticket-choose","trial_index":127,"time_elapsed":2410128,"internal_node_id":"0.0-127.0"},{"result":125,"points":3,"place":0,"phase":1,"sequence":43,"times":[28432,666,562,569,526,550,565,1175,676,1137],"next_num":10,"trial_type":"ticket-choose","trial_index":128,"time_elapsed":2448882,"internal_node_id":"0.0-128.0"},{"result":192,"points":1,"place":4,"phase":1,"sequence":44,"times":[1588,685,769,775,615,1007,714,611,778,1097],"next_num":10,"trial_type":"ticket-choose","trial_index":129,"time_elapsed":2461501,"internal_node_id":"0.0-129.0"},{"result":132,"points":3,"place":0,"phase":1,"sequence":45,"times":[17821,579,806,653,566,791,3076,902,614,915],"next_num":10,"trial_type":"ticket-choose","trial_index":130,"time_elapsed":2492260,"internal_node_id":"0.0-130.0"},{"result":118,"points":2,"place":1,"phase":1,"sequence":46,"times":[771,30128,1939],"next_num":3,"trial_type":"ticket-choose","trial_index":131,"time_elapsed":2527695,"internal_node_id":"0.0-131.0"},{"result":131,"points":3,"place":0,"phase":1,"sequence":47,"times":[2326,654,549,574,729,659,1334,626,496,1728],"next_num":10,"trial_type":"ticket-choose","trial_index":132,"time_elapsed":2543057,"internal_node_id":"0.0-132.0"},{"result":146,"points":3,"place":0,"phase":1,"sequence":48,"times":[1148,660,620,562,671,597,895,2215],"next_num":8,"trial_type":"ticket-choose","trial_index":133,"time_elapsed":2554074,"internal_node_id":"0.0-133.0"},{"result":136,"points":2,"place":1,"phase":1,"sequence":49,"times":[2261,574,2889],"next_num":3,"trial_type":"ticket-choose","trial_index":134,"time_elapsed":2562484,"internal_node_id":"0.0-134.0"},{"responses":[{"value":1,"offby":0,"category":"$90 - $120","category_index":0},{"value":3,"offby":0,"category":"$121 - $145","category_index":1},{"value":4,"offby":1,"category":"$146 - $170","category_index":2},{"value":5,"offby":-1,"category":"$171 - $195","category_index":3},{"value":4,"offby":0,"category":"$196 - $220","category_index":4},{"value":2,"offby":0,"category":"$221 - $245","category_index":5},{"value":1,"offby":0,"category":"$246 - $270","category_index":6}],"phase":1,"number":1,"trial_type":"bar-choose","trial_index":135,"time_elapsed":2669084,"internal_node_id":"0.0-135.0"},{"special_comment":"somehad similar sequences. there were times I felt confident that the lowest would be last","trial_type":"special_sequence","trial_index":136,"time_elapsed":2691723,"internal_node_id":"0.0-136.0"},{"during":"Nothing","bonus":312,"trial_type":"final","trial_index":137,"time_elapsed":2712890,"internal_node_id":"0.0-137.0"}],"bonus":312}