{"start_time":"2017-02-22 11:16:35","end_time":"2017-02-22 11:45:14","points_phase0":93,"points_phase1":100,"phase_order":1,"age":45,"gender":"m","tries":1,"during":"Nothing","worker_id":"AFDC9A6Z60W2Z","assignment_id":"30IQTZXKALZ158GJ5C2Y7333R49X0P","data":[{"rt":6726,"url":"\/tickets\/utils\/consent.html","trial_type":"html","trial_index":0,"time_elapsed":7002,"internal_node_id":"0.0-0.0"},{"age":45,"gender":"m","trial_type":"age","trial_index":1,"time_elapsed":10891,"internal_node_id":"0.0-1.0"},{"worker_id":"AFDC9A6Z60W2Z","trial_type":"workerid","trial_index":2,"time_elapsed":20144,"internal_node_id":"0.0-2.0"},{"tries":1,"trial_type":"instructions_check","trial_index":3,"time_elapsed":41061,"internal_node_id":"0.0-3.0"},{"rt":7522,"url":"\/tickets\/utils\/start.html","trial_type":"html","trial_index":4,"time_elapsed":49681,"internal_node_id":"0.0-4.0"},{"trial_type":"number-animation","trial_index":5,"time_elapsed":60369,"internal_node_id":"0.0-5.0"},{"phase":0,"sequence":0,"avg":182,"response":175,"trial_type":"training_avg","trial_index":6,"time_elapsed":69796,"internal_node_id":"0.0-6.0"},{"trial_type":"number-animation","trial_index":7,"time_elapsed":77906,"internal_node_id":"0.0-7.0"},{"phase":0,"sequence":1,"avg":188,"response":172,"trial_type":"training_avg","trial_index":8,"time_elapsed":85420,"internal_node_id":"0.0-8.0"},{"trial_type":"number-animation","trial_index":9,"time_elapsed":92241,"internal_node_id":"0.0-9.0"},{"phase":0,"sequence":2,"avg":176,"response":172,"trial_type":"training_avg","trial_index":10,"time_elapsed":99541,"internal_node_id":"0.0-10.0"},{"trial_type":"number-animation","trial_index":11,"time_elapsed":106924,"internal_node_id":"0.0-11.0"},{"phase":0,"sequence":3,"avg":180,"response":170,"trial_type":"training_avg","trial_index":12,"time_elapsed":112901,"internal_node_id":"0.0-12.0"},{"trial_type":"number-animation","trial_index":13,"time_elapsed":120112,"internal_node_id":"0.0-13.0"},{"phase":0,"sequence":4,"avg":174,"response":169,"trial_type":"training_avg","trial_index":14,"time_elapsed":125640,"internal_node_id":"0.0-14.0"},{"responses":[{"value":0,"offby":-1,"category":"$90 - $120","category_index":0},{"value":2,"offby":-1,"category":"$121 - $145","category_index":1},{"value":4,"offby":1,"category":"$146 - $170","category_index":2},{"value":8,"offby":2,"category":"$171 - $195","category_index":3},{"value":4,"offby":0,"category":"$196 - $220","category_index":4},{"value":2,"offby":0,"category":"$221 - $245","category_index":5},{"value":0,"offby":-1,"category":"$246 - $270","category_index":6}],"phase":0,"number":0,"trial_type":"bar-choose","trial_index":15,"time_elapsed":166701,"internal_node_id":"0.0-15.0"},{"rt":13429,"url":"\/tickets\/\/utils\/testing.html","trial_type":"html","trial_index":16,"time_elapsed":181230,"internal_node_id":"0.0-16.0"},{"phase":0,"order":[33,21,43,8,11,40,31,26,44,9,23,35,4,28,32,38,2,34,46,3,14,0,41,29,12,19,25,24,15,13,22,18,36,45,5,6,17,20,39,48,49,7,10,37,16,1,42,47,30,27],"trial_type":"store_order","trial_index":17,"time_elapsed":182243,"internal_node_id":"0.0-17.0"},{"result":165,"points":2,"place":1,"phase":0,"sequence":-1,"prices":[184,180,224,165,181,199,185,193,218,126],"times":[1653,728,626,1791],"next_num":4,"trial_type":"ticket-choose","trial_index":18,"time_elapsed":193064,"internal_node_id":"0.0-18.0"},{"rt":91556,"url":"\/tickets\/utils\/testing_after.html","trial_type":"html","trial_index":19,"time_elapsed":285744,"internal_node_id":"0.0-19.0"},{"result":153,"points":1,"place":2,"phase":0,"sequence":0,"prices":[168,191,146,252,183,193,172,153,126,238],"times":[1967,622,1404,618,677,638,563,1065],"next_num":8,"trial_type":"ticket-choose","trial_index":20,"time_elapsed":297775,"internal_node_id":"0.0-20.0"},{"result":105,"points":3,"place":0,"phase":0,"sequence":1,"prices":[263,165,224,214,105,230,215,185,177,193],"times":[1717,1226,596,655,1118],"next_num":5,"trial_type":"ticket-choose","trial_index":21,"time_elapsed":306876,"internal_node_id":"0.0-21.0"},{"result":154,"points":2,"place":1,"phase":0,"sequence":2,"prices":[169,192,176,244,178,194,154,159,237,125],"times":[1214,670,829,683,737,808,1069],"next_num":7,"trial_type":"ticket-choose","trial_index":22,"time_elapsed":316530,"internal_node_id":"0.0-22.0"},{"result":124,"points":3,"place":0,"phase":0,"sequence":3,"prices":[219,183,227,124,176,161,140,129,171,201],"times":[1102,757,586,1121],"next_num":4,"trial_type":"ticket-choose","trial_index":23,"time_elapsed":323526,"internal_node_id":"0.0-23.0"},{"result":136,"points":2,"place":1,"phase":0,"sequence":4,"prices":[171,192,136,265,180,194,174,152,239,127],"times":[1020,626,2289],"next_num":3,"trial_type":"ticket-choose","trial_index":24,"time_elapsed":330259,"internal_node_id":"0.0-24.0"},{"result":146,"points":2,"place":1,"phase":0,"sequence":5,"prices":[170,193,146,268,178,195,172,149,126,241],"times":[979,555,2609],"next_num":3,"trial_type":"ticket-choose","trial_index":25,"time_elapsed":337122,"internal_node_id":"0.0-25.0"},{"result":146,"points":2,"place":1,"phase":0,"sequence":6,"prices":[171,191,172,268,179,194,146,150,127,239],"times":[930,688,644,689,640,688,972],"next_num":7,"trial_type":"ticket-choose","trial_index":26,"time_elapsed":346112,"internal_node_id":"0.0-26.0"},{"result":131,"points":2,"place":1,"phase":0,"sequence":7,"prices":[221,234,131,136,132,149,154,90,176,173],"times":[1025,692,1205],"next_num":3,"trial_type":"ticket-choose","trial_index":27,"time_elapsed":351605,"internal_node_id":"0.0-27.0"},{"result":179,"points":1,"place":4,"phase":0,"sequence":8,"prices":[132,222,144,153,190,248,151,224,228,179],"times":[1243,649,706,603,677,650,1240,609,671,1807],"next_num":11,"trial_type":"ticket-choose","trial_index":28,"time_elapsed":365095,"internal_node_id":"0.0-28.0"},{"result":150,"points":3,"place":0,"phase":0,"sequence":9,"prices":[197,153,181,215,150,155,164,247,177,162],"times":[1126,873,623,697,1026],"next_num":5,"trial_type":"ticket-choose","trial_index":29,"time_elapsed":372790,"internal_node_id":"0.0-29.0"},{"result":136,"points":2,"place":1,"phase":0,"sequence":10,"prices":[171,192,136,243,182,195,174,154,236,128],"times":[1061,634,1210],"next_num":3,"trial_type":"ticket-choose","trial_index":30,"time_elapsed":378495,"internal_node_id":"0.0-30.0"},{"result":136,"points":2,"place":1,"phase":0,"sequence":11,"prices":[173,194,136,239,182,200,174,150,236,127],"times":[792,609,1118],"next_num":3,"trial_type":"ticket-choose","trial_index":31,"time_elapsed":383669,"internal_node_id":"0.0-31.0"},{"result":154,"points":2,"place":1,"phase":0,"sequence":12,"prices":[244,203,196,189,154,206,197,149,171,159],"times":[-1361,894,673,707,1194],"next_num":5,"trial_type":"ticket-choose","trial_index":32,"time_elapsed":388920,"internal_node_id":"0.0-32.0"},{"result":188,"points":1,"place":4,"phase":0,"sequence":13,"prices":[142,207,171,182,190,269,180,218,256,188],"times":[1028,622,658,639,624,824,705,638,657,939],"next_num":10,"trial_type":"ticket-choose","trial_index":33,"time_elapsed":400804,"internal_node_id":"0.0-33.0"},{"result":114,"points":3,"place":0,"phase":0,"sequence":14,"prices":[182,249,159,114,184,205,175,189,172,178],"times":[1178,736,1072,1008],"next_num":4,"trial_type":"ticket-choose","trial_index":34,"time_elapsed":407904,"internal_node_id":"0.0-34.0"},{"result":165,"points":1,"place":2,"phase":0,"sequence":15,"prices":[157,205,161,175,197,254,165,210,214,192],"times":[1332,1276,873,574,572,603,1027],"next_num":7,"trial_type":"ticket-choose","trial_index":35,"time_elapsed":417667,"internal_node_id":"0.0-35.0"},{"result":135,"points":3,"place":0,"phase":0,"sequence":16,"prices":[221,193,135,188,217,179,196,190,175,159],"times":[1136,690,1083],"next_num":3,"trial_type":"ticket-choose","trial_index":36,"time_elapsed":423183,"internal_node_id":"0.0-36.0"},{"result":158,"points":1,"place":2,"phase":0,"sequence":17,"prices":[169,194,154,271,178,201,176,158,236,127],"times":[1135,597,892,635,659,617,660,1053],"next_num":8,"trial_type":"ticket-choose","trial_index":37,"time_elapsed":433444,"internal_node_id":"0.0-37.0"},{"result":154,"points":2,"place":1,"phase":0,"sequence":18,"prices":[170,190,176,251,183,192,154,157,236,131],"times":[888,670,702,658,621,689,976],"next_num":7,"trial_type":"ticket-choose","trial_index":38,"time_elapsed":441924,"internal_node_id":"0.0-38.0"},{"result":146,"points":1,"place":2,"phase":0,"sequence":19,"prices":[186,146,191,179,152,116,140,201,172,187],"times":[894,2324],"next_num":2,"trial_type":"ticket-choose","trial_index":39,"time_elapsed":447714,"internal_node_id":"0.0-39.0"},{"result":136,"points":3,"place":0,"phase":0,"sequence":20,"prices":[240,188,273,207,250,136,217,170,171,236],"times":[969,623,625,606,627,1006],"next_num":6,"trial_type":"ticket-choose","trial_index":40,"time_elapsed":455368,"internal_node_id":"0.0-40.0"},{"result":136,"points":2,"place":1,"phase":0,"sequence":21,"prices":[172,194,174,243,182,193,136,150,237,126],"times":[829,614,720,606,651,724,958],"next_num":7,"trial_type":"ticket-choose","trial_index":41,"time_elapsed":463849,"internal_node_id":"0.0-41.0"},{"result":138,"points":1,"place":2,"phase":0,"sequence":22,"prices":[181,138,118,170,190,101,146,169,175,233],"times":[950,1768],"next_num":2,"trial_type":"ticket-choose","trial_index":42,"time_elapsed":469201,"internal_node_id":"0.0-42.0"},{"result":146,"points":2,"place":1,"phase":0,"sequence":23,"prices":[172,191,176,272,179,194,146,152,126,235],"times":[855,678,666,576,620,706,957],"next_num":7,"trial_type":"ticket-choose","trial_index":43,"time_elapsed":477634,"internal_node_id":"0.0-43.0"},{"result":149,"points":2,"place":1,"phase":0,"sequence":24,"prices":[196,221,149,164,216,167,175,128,176,181],"times":[1602,869,2079],"next_num":3,"trial_type":"ticket-choose","trial_index":44,"time_elapsed":484804,"internal_node_id":"0.0-44.0"},{"result":117,"points":3,"place":0,"phase":0,"sequence":25,"prices":[117,161,120,147,153,259,144,191,195,149],"times":[1747],"next_num":1,"trial_type":"ticket-choose","trial_index":45,"time_elapsed":489111,"internal_node_id":"0.0-45.0"},{"result":189,"points":1,"place":4,"phase":0,"sequence":26,"prices":[157,213,159,187,194,242,161,222,225,189],"times":[1211,605,991,587,590,586,1411,607,618,807],"next_num":10,"trial_type":"ticket-choose","trial_index":46,"time_elapsed":501174,"internal_node_id":"0.0-46.0"},{"result":156,"points":1,"place":2,"phase":0,"sequence":27,"prices":[168,192,154,237,182,196,176,156,235,133],"times":[1030,-1673,2609,661,591,604,641,1142],"next_num":8,"trial_type":"ticket-choose","trial_index":47,"time_elapsed":510285,"internal_node_id":"0.0-47.0"},{"result":158,"points":1,"place":2,"phase":0,"sequence":28,"prices":[169,193,154,255,178,194,176,158,239,126],"times":[1478,635,1391,573,687,639,656,1257],"next_num":8,"trial_type":"ticket-choose","trial_index":48,"time_elapsed":521199,"internal_node_id":"0.0-48.0"},{"result":146,"points":2,"place":1,"phase":0,"sequence":29,"prices":[169,193,146,237,180,196,172,150,129,236],"times":[948,706,2092],"next_num":3,"trial_type":"ticket-choose","trial_index":49,"time_elapsed":527563,"internal_node_id":"0.0-49.0"},{"result":154,"points":2,"place":1,"phase":0,"sequence":30,"prices":[169,191,154,268,183,197,176,155,236,133],"times":[809,586,1272],"next_num":3,"trial_type":"ticket-choose","trial_index":50,"time_elapsed":533022,"internal_node_id":"0.0-50.0"},{"result":136,"points":2,"place":1,"phase":0,"sequence":31,"prices":[170,192,174,242,181,196,136,153,236,128],"times":[948,570,608,623,751,639,1065],"next_num":7,"trial_type":"ticket-choose","trial_index":51,"time_elapsed":541557,"internal_node_id":"0.0-51.0"},{"result":154,"points":2,"place":1,"phase":0,"sequence":32,"prices":[170,193,176,245,178,194,154,159,236,126],"times":[1032,563,605,571,607,625,1053],"next_num":7,"trial_type":"ticket-choose","trial_index":52,"time_elapsed":549940,"internal_node_id":"0.0-52.0"},{"result":160,"points":1,"place":4,"phase":0,"sequence":33,"prices":[137,187,152,156,166,231,155,194,202,160],"times":[1204,598,666,665,664,623,1141,708,624,923],"next_num":10,"trial_type":"ticket-choose","trial_index":53,"time_elapsed":561664,"internal_node_id":"0.0-53.0"},{"result":129,"points":2,"place":1,"phase":0,"sequence":34,"prices":[155,129,164,189,210,108,187,241,174,275],"times":[1010,1220],"next_num":2,"trial_type":"ticket-choose","trial_index":54,"time_elapsed":566185,"internal_node_id":"0.0-54.0"},{"result":146,"points":2,"place":1,"phase":0,"sequence":35,"prices":[171,195,172,242,179,196,146,150,128,235],"times":[792,612,722,708,608,671,1051],"next_num":7,"trial_type":"ticket-choose","trial_index":55,"time_elapsed":574571,"internal_node_id":"0.0-55.0"},{"result":136,"points":2,"place":1,"phase":0,"sequence":36,"prices":[172,190,136,270,179,192,174,152,237,129],"times":[954,575,1041],"next_num":3,"trial_type":"ticket-choose","trial_index":56,"time_elapsed":579818,"internal_node_id":"0.0-56.0"},{"result":152,"points":1,"place":2,"phase":0,"sequence":37,"prices":[173,191,146,242,178,194,172,152,126,235],"times":[888,623,1039,556,566,600,594,1006],"next_num":8,"trial_type":"ticket-choose","trial_index":57,"time_elapsed":589233,"internal_node_id":"0.0-57.0"},{"result":196,"points":1,"place":4,"phase":0,"sequence":38,"prices":[143,206,153,194,201,267,168,208,210,196],"times":[1827,612,694,670,657,625,767,606,709,938],"next_num":10,"trial_type":"ticket-choose","trial_index":58,"time_elapsed":601277,"internal_node_id":"0.0-58.0"},{"result":146,"points":3,"place":0,"phase":0,"sequence":39,"prices":[156,218,212,216,191,210,275,146,174,152],"times":[1385,605,541,542,685,622,658,1073],"next_num":8,"trial_type":"ticket-choose","trial_index":59,"time_elapsed":610887,"internal_node_id":"0.0-59.0"},{"result":130,"points":2,"place":1,"phase":0,"sequence":40,"prices":[181,130,116,142,157,193,165,218,173,207],"times":[1054,2674],"next_num":2,"trial_type":"ticket-choose","trial_index":60,"time_elapsed":616991,"internal_node_id":"0.0-60.0"},{"result":146,"points":2,"place":1,"phase":0,"sequence":41,"prices":[168,191,172,240,183,193,146,151,125,238],"times":[732,589,623,653,-1625,623,1151],"next_num":7,"trial_type":"ticket-choose","trial_index":61,"time_elapsed":623092,"internal_node_id":"0.0-61.0"},{"result":119,"points":3,"place":0,"phase":0,"sequence":42,"prices":[198,119,169,141,195,233,136,208,177,217],"times":[740,1174],"next_num":2,"trial_type":"ticket-choose","trial_index":62,"time_elapsed":627304,"internal_node_id":"0.0-62.0"},{"result":136,"points":2,"place":1,"phase":0,"sequence":43,"prices":[173,191,174,270,180,193,136,153,239,129],"times":[878,653,2769,561,754,639,1074],"next_num":7,"trial_type":"ticket-choose","trial_index":63,"time_elapsed":638058,"internal_node_id":"0.0-63.0"},{"result":179,"points":1,"place":4,"phase":0,"sequence":44,"prices":[124,220,136,165,185,234,143,225,228,179],"times":[1300,562,1505,573,592,686,1737,777,609,1030],"next_num":10,"trial_type":"ticket-choose","trial_index":64,"time_elapsed":651365,"internal_node_id":"0.0-64.0"},{"result":136,"points":2,"place":1,"phase":0,"sequence":45,"prices":[169,192,174,246,180,195,136,152,238,126],"times":[734,605,622,620,642,928,1460],"next_num":7,"trial_type":"ticket-choose","trial_index":65,"time_elapsed":661052,"internal_node_id":"0.0-65.0"},{"result":145,"points":2,"place":1,"phase":0,"sequence":46,"prices":[216,206,158,145,224,185,124,149,175,162],"times":[1056,590,1490,1312],"next_num":4,"trial_type":"ticket-choose","trial_index":66,"time_elapsed":668423,"internal_node_id":"0.0-66.0"},{"result":172,"points":1,"place":4,"phase":0,"sequence":47,"prices":[135,202,150,169,183,225,160,211,220,172],"times":[1151,558,722,649,594,622,1656,597,701,872],"next_num":10,"trial_type":"ticket-choose","trial_index":67,"time_elapsed":680209,"internal_node_id":"0.0-67.0"},{"result":129,"points":1,"place":2,"phase":0,"sequence":48,"prices":[121,191,128,141,166,217,129,196,202,157],"times":[750,538,562,868,655,907,1798],"next_num":7,"trial_type":"ticket-choose","trial_index":68,"time_elapsed":691102,"internal_node_id":"0.0-68.0"},{"result":154,"points":2,"place":1,"phase":0,"sequence":49,"prices":[168,192,176,242,183,197,154,156,237,132],"times":[1829,591,688,640,607,591,1587],"next_num":7,"trial_type":"ticket-choose","trial_index":69,"time_elapsed":701145,"internal_node_id":"0.0-69.0"},{"responses":[{"value":1,"offby":0,"category":"$90 - $120","category_index":0},{"value":2,"offby":-1,"category":"$121 - $145","category_index":1},{"value":4,"offby":1,"category":"$146 - $170","category_index":2},{"value":6,"offby":0,"category":"$171 - $195","category_index":3},{"value":4,"offby":0,"category":"$196 - $220","category_index":4},{"value":2,"offby":0,"category":"$221 - $245","category_index":5},{"value":1,"offby":0,"category":"$246 - $270","category_index":6}],"phase":0,"number":1,"trial_type":"bar-choose","trial_index":70,"time_elapsed":753776,"internal_node_id":"0.0-70.0"},{"rt":182824,"url":"\/tickets\/utils\/start2.html","trial_type":"html","trial_index":71,"time_elapsed":937705,"internal_node_id":"0.0-71.0"},{"trial_type":"number-animation","trial_index":72,"time_elapsed":946477,"internal_node_id":"0.0-72.0"},{"phase":1,"sequence":0,"avg":181,"response":177,"trial_type":"training_avg","trial_index":73,"time_elapsed":953506,"internal_node_id":"0.0-73.0"},{"trial_type":"number-animation","trial_index":74,"time_elapsed":961406,"internal_node_id":"0.0-74.0"},{"phase":1,"sequence":1,"avg":188,"response":187,"trial_type":"training_avg","trial_index":75,"time_elapsed":969371,"internal_node_id":"0.0-75.0"},{"trial_type":"number-animation","trial_index":76,"time_elapsed":977286,"internal_node_id":"0.0-76.0"},{"phase":1,"sequence":2,"avg":188,"response":182,"trial_type":"training_avg","trial_index":77,"time_elapsed":983338,"internal_node_id":"0.0-77.0"},{"trial_type":"number-animation","trial_index":78,"time_elapsed":991218,"internal_node_id":"0.0-78.0"},{"phase":1,"sequence":3,"avg":177,"response":177,"trial_type":"training_avg","trial_index":79,"time_elapsed":996887,"internal_node_id":"0.0-79.0"},{"trial_type":"number-animation","trial_index":80,"time_elapsed":1004568,"internal_node_id":"0.0-80.0"},{"phase":1,"sequence":4,"avg":182,"response":181,"trial_type":"training_avg","trial_index":81,"time_elapsed":1010384,"internal_node_id":"0.0-81.0"},{"responses":[{"value":0,"offby":0,"category":"$106 - $134","category_index":0},{"value":2,"offby":1,"category":"$135 - $150","category_index":1},{"value":4,"offby":1,"category":"$151 - $165","category_index":2},{"value":7,"offby":1,"category":"$166 - $180","category_index":3},{"value":4,"offby":-2,"category":"$181 - $195","category_index":4},{"value":2,"offby":-1,"category":"$196 - $210","category_index":5},{"value":1,"offby":0,"category":"$211 - $225","category_index":6}],"phase":1,"number":0,"trial_type":"bar-choose","trial_index":82,"time_elapsed":1038999,"internal_node_id":"0.0-82.0"},{"rt":252266,"url":"\/tickets\/utils\/testing2.html","trial_type":"html","trial_index":83,"time_elapsed":1292372,"internal_node_id":"0.0-83.0"},{"phase":1,"order":[2,42,14,47,16,3,7,41,25,39,17,18,45,24,48,27,43,11,13,49,46,22,44,4,36,31,28,8,10,1,9,21,15,33,35,5,19,0,32,38,34,6,40,23,26,20,37,30,29,12],"trial_type":"store_order","trial_index":84,"time_elapsed":1293390,"internal_node_id":"0.0-84.0"},{"result":170,"points":1,"place":4,"phase":1,"sequence":0,"prices":[159,183,166,168,173,205,167,187,191,170],"times":[1361,574,540,557,577,617,686,639,607,842],"next_num":10,"trial_type":"ticket-choose","trial_index":85,"time_elapsed":1304330,"internal_node_id":"0.0-85.0"},{"result":158,"points":2,"place":1,"phase":1,"sequence":1,"prices":[175,186,177,209,181,188,158,167,208,154],"times":[2179,522,755,641,642,514,1054],"next_num":7,"trial_type":"ticket-choose","trial_index":86,"time_elapsed":1313920,"internal_node_id":"0.0-86.0"},{"result":157,"points":3,"place":0,"phase":1,"sequence":2,"prices":[201,187,157,184,198,179,188,185,178,170],"times":[786,534,1996],"next_num":3,"trial_type":"ticket-choose","trial_index":87,"time_elapsed":1319761,"internal_node_id":"0.0-87.0"},{"result":168,"points":1,"place":2,"phase":1,"sequence":3,"prices":[174,186,167,211,181,188,178,168,208,156],"times":[766,490,754,540,572,642,823,1297],"next_num":8,"trial_type":"ticket-choose","trial_index":88,"time_elapsed":1329431,"internal_node_id":"0.0-88.0"},{"result":167,"points":2,"place":1,"phase":1,"sequence":4,"prices":[175,187,167,212,179,187,178,169,208,153],"times":[683,825,2189],"next_num":3,"trial_type":"ticket-choose","trial_index":89,"time_elapsed":1335730,"internal_node_id":"0.0-89.0"},{"result":150,"points":3,"place":0,"phase":1,"sequence":5,"prices":[189,150,175,160,188,207,158,194,178,199],"times":[717,2454],"next_num":2,"trial_type":"ticket-choose","trial_index":90,"time_elapsed":1341132,"internal_node_id":"0.0-90.0"},{"result":165,"points":1,"place":4,"phase":1,"sequence":6,"prices":[148,171,150,163,167,220,162,186,187,165],"times":[827,509,1717,642,602,557,872,575,591,819],"next_num":10,"trial_type":"ticket-choose","trial_index":91,"time_elapsed":1352880,"internal_node_id":"0.0-91.0"},{"result":180,"points":1,"place":4,"phase":1,"sequence":7,"prices":[152,200,158,173,182,207,161,202,204,180],"times":[1002,530,1366,604,540,575,852,573,606,804],"next_num":10,"trial_type":"ticket-choose","trial_index":92,"time_elapsed":1364487,"internal_node_id":"0.0-92.0"},{"result":159,"points":1,"place":2,"phase":1,"sequence":8,"prices":[180,159,149,175,185,141,163,174,178,207],"times":[964,1635],"next_num":2,"trial_type":"ticket-choose","trial_index":93,"time_elapsed":1369403,"internal_node_id":"0.0-93.0"},{"result":167,"points":2,"place":1,"phase":1,"sequence":9,"prices":[175,185,167,224,181,186,178,168,208,156],"times":[833,609,2641],"next_num":3,"trial_type":"ticket-choose","trial_index":94,"time_elapsed":1376059,"internal_node_id":"0.0-94.0"},{"result":158,"points":2,"place":1,"phase":1,"sequence":10,"prices":[176,185,177,218,180,186,158,166,209,154],"times":[720,562,516,572,672,668,897],"next_num":7,"trial_type":"ticket-choose","trial_index":95,"time_elapsed":1383879,"internal_node_id":"0.0-95.0"},{"result":144,"points":3,"place":0,"phase":1,"sequence":11,"prices":[168,154,172,185,195,144,184,211,177,227],"times":[657,1218,562,638,603,991],"next_num":6,"trial_type":"ticket-choose","trial_index":96,"time_elapsed":1391632,"internal_node_id":"0.0-96.0"},{"result":163,"points":2,"place":1,"phase":1,"sequence":12,"prices":[176,186,176,210,179,187,163,166,153,208],"times":[626,562,557,598,588,655,873],"next_num":7,"trial_type":"ticket-choose","trial_index":97,"time_elapsed":1399323,"internal_node_id":"0.0-97.0"},{"result":185,"points":1,"place":4,"phase":1,"sequence":13,"prices":[169,196,170,184,187,211,171,201,202,185],"times":[762,553,590,1527,737,722,836,611,551,789],"next_num":10,"trial_type":"ticket-choose","trial_index":98,"time_elapsed":1411075,"internal_node_id":"0.0-98.0"},{"result":188,"points":1,"place":4,"phase":1,"sequence":14,"prices":[161,193,167,187,190,224,174,194,195,188],"times":[850,509,656,605,616,538,834,647,551,840],"next_num":10,"trial_type":"ticket-choose","trial_index":99,"time_elapsed":1421609,"internal_node_id":"0.0-99.0"},{"result":163,"points":3,"place":0,"phase":1,"sequence":15,"prices":[168,199,196,198,185,195,227,163,177,166],"times":[638,571,608,507,671,643,611,968],"next_num":8,"trial_type":"ticket-choose","trial_index":100,"time_elapsed":1430252,"internal_node_id":"0.0-100.0"},{"result":163,"points":2,"place":1,"phase":1,"sequence":16,"prices":[174,186,163,212,181,187,176,166,153,209],"times":[734,765,1005],"next_num":3,"trial_type":"ticket-choose","trial_index":101,"time_elapsed":1435228,"internal_node_id":"0.0-101.0"},{"result":155,"points":2,"place":1,"phase":1,"sequence":17,"prices":[181,155,148,161,168,187,172,199,176,194],"times":[891,1021],"next_num":2,"trial_type":"ticket-choose","trial_index":102,"time_elapsed":1439345,"internal_node_id":"0.0-102.0"},{"result":158,"points":3,"place":0,"phase":1,"sequence":18,"prices":[210,184,226,193,215,158,199,175,176,208],"times":[707,586,660,532,609,939],"next_num":6,"trial_type":"ticket-choose","trial_index":103,"time_elapsed":1446325,"internal_node_id":"0.0-103.0"},{"result":163,"points":2,"place":1,"phase":1,"sequence":19,"prices":[175,186,163,211,179,187,176,165,153,210],"times":[738,538,1287],"next_num":3,"trial_type":"ticket-choose","trial_index":104,"time_elapsed":1451320,"internal_node_id":"0.0-104.0"},{"result":167,"points":2,"place":1,"phase":1,"sequence":20,"prices":[175,186,178,212,179,187,167,169,209,153],"times":[729,621,593,608,587,687,956],"next_num":7,"trial_type":"ticket-choose","trial_index":105,"time_elapsed":1459373,"internal_node_id":"0.0-105.0"},{"result":163,"points":2,"place":1,"phase":1,"sequence":21,"prices":[176,186,163,214,179,187,176,166,153,208],"times":[548,573,989],"next_num":3,"trial_type":"ticket-choose","trial_index":106,"time_elapsed":1463843,"internal_node_id":"0.0-106.0"},{"result":155,"points":2,"place":1,"phase":1,"sequence":22,"prices":[201,207,155,158,156,165,167,135,178,177],"times":[887,562,1207],"next_num":3,"trial_type":"ticket-choose","trial_index":107,"time_elapsed":1469091,"internal_node_id":"0.0-107.0"},{"result":150,"points":3,"place":0,"phase":1,"sequence":23,"prices":[150,185,154,161,173,199,155,188,191,168],"times":[1191],"next_num":1,"trial_type":"ticket-choose","trial_index":108,"time_elapsed":1472304,"internal_node_id":"0.0-108.0"},{"result":167,"points":2,"place":1,"phase":1,"sequence":24,"prices":[174,186,178,217,181,188,167,168,208,156],"times":[567,525,528,567,708,537,922],"next_num":7,"trial_type":"ticket-choose","trial_index":109,"time_elapsed":1479916,"internal_node_id":"0.0-109.0"},{"result":166,"points":1,"place":2,"phase":1,"sequence":25,"prices":[176,185,158,217,180,186,177,166,209,154],"times":[1014,524,491,489,589,556,623,936],"next_num":8,"trial_type":"ticket-choose","trial_index":110,"time_elapsed":1488540,"internal_node_id":"0.0-110.0"},{"result":156,"points":3,"place":0,"phase":1,"sequence":26,"prices":[156,201,162,166,185,214,165,202,204,179],"times":[1147],"next_num":1,"trial_type":"ticket-choose","trial_index":111,"time_elapsed":1491682,"internal_node_id":"0.0-111.0"},{"result":184,"points":1,"place":4,"phase":1,"sequence":27,"prices":[161,193,175,181,185,224,180,199,218,184],"times":[718,512,552,617,559,590,637,640,557,788],"next_num":10,"trial_type":"ticket-choose","trial_index":112,"time_elapsed":1501811,"internal_node_id":"0.0-112.0"},{"result":167,"points":2,"place":1,"phase":1,"sequence":28,"prices":[175,187,178,209,179,187,167,169,208,153],"times":[1011,580,754,621,1363,621,1035],"next_num":7,"trial_type":"ticket-choose","trial_index":113,"time_elapsed":1510995,"internal_node_id":"0.0-113.0"},{"result":167,"points":2,"place":1,"phase":1,"sequence":29,"prices":[175,185,178,215,181,186,167,168,208,156],"times":[718,591,693,607,770,638,990],"next_num":7,"trial_type":"ticket-choose","trial_index":114,"time_elapsed":1519382,"internal_node_id":"0.0-114.0"},{"result":158,"points":2,"place":1,"phase":1,"sequence":30,"prices":[176,187,177,225,181,187,158,165,208,153],"times":[-1285,551,559,572,635,673,993],"next_num":7,"trial_type":"ticket-choose","trial_index":115,"time_elapsed":1525222,"internal_node_id":"0.0-115.0"},{"result":158,"points":2,"place":1,"phase":1,"sequence":31,"prices":[176,187,158,210,181,187,177,165,208,153],"times":[723,558,958],"next_num":3,"trial_type":"ticket-choose","trial_index":116,"time_elapsed":1529901,"internal_node_id":"0.0-116.0"},{"result":165,"points":2,"place":1,"phase":1,"sequence":32,"prices":[188,200,165,172,198,174,177,154,177,180],"times":[729,560,840],"next_num":3,"trial_type":"ticket-choose","trial_index":117,"time_elapsed":1534514,"internal_node_id":"0.0-117.0"},{"result":167,"points":2,"place":1,"phase":1,"sequence":33,"prices":[212,192,188,184,167,193,189,164,176,170],"times":[714,581,623,577,1038],"next_num":5,"trial_type":"ticket-choose","trial_index":118,"time_elapsed":1540958,"internal_node_id":"0.0-118.0"},{"result":163,"points":2,"place":1,"phase":1,"sequence":34,"prices":[175,187,176,209,180,188,163,165,154,208],"times":[886,590,603,567,723,569,1008],"next_num":7,"trial_type":"ticket-choose","trial_index":119,"time_elapsed":1549227,"internal_node_id":"0.0-119.0"},{"result":163,"points":2,"place":1,"phase":1,"sequence":35,"prices":[174,186,176,217,181,187,163,166,153,209],"times":[834,523,657,553,723,644,935],"next_num":7,"trial_type":"ticket-choose","trial_index":120,"time_elapsed":1557518,"internal_node_id":"0.0-120.0"},{"result":158,"points":2,"place":1,"phase":1,"sequence":36,"prices":[175,186,158,209,181,188,177,167,208,154],"times":[2521,557,908],"next_num":3,"trial_type":"ticket-choose","trial_index":121,"time_elapsed":1563848,"internal_node_id":"0.0-121.0"},{"result":158,"points":2,"place":1,"phase":1,"sequence":37,"prices":[175,186,177,221,180,187,158,166,209,153],"times":[705,538,638,575,825,570,892],"next_num":7,"trial_type":"ticket-choose","trial_index":122,"time_elapsed":1571879,"internal_node_id":"0.0-122.0"},{"result":165,"points":3,"place":0,"phase":1,"sequence":38,"prices":[189,167,180,197,165,168,172,213,178,171],"times":[701,1622,479,590,1038],"next_num":5,"trial_type":"ticket-choose","trial_index":123,"time_elapsed":1579109,"internal_node_id":"0.0-123.0"},{"result":147,"points":3,"place":0,"phase":1,"sequence":39,"prices":[181,215,169,147,182,193,177,184,176,179],"times":[700,581,1058,1039],"next_num":4,"trial_type":"ticket-choose","trial_index":124,"time_elapsed":1585310,"internal_node_id":"0.0-124.0"},{"result":163,"points":1,"place":2,"phase":1,"sequence":40,"prices":[183,163,185,180,166,148,160,186,176,184],"times":[962,924],"next_num":2,"trial_type":"ticket-choose","trial_index":125,"time_elapsed":1589621,"internal_node_id":"0.0-125.0"},{"result":163,"points":2,"place":1,"phase":1,"sequence":41,"prices":[175,186,176,224,179,187,163,165,153,210],"times":[679,644,780,689,629,571,955],"next_num":7,"trial_type":"ticket-choose","trial_index":126,"time_elapsed":1597852,"internal_node_id":"0.0-126.0"},{"result":153,"points":3,"place":0,"phase":1,"sequence":42,"prices":[175,186,167,225,179,187,178,169,209,153],"times":[705,612,1164,542,691,571,591,1684,572,906],"next_num":10,"trial_type":"ticket-choose","trial_index":127,"time_elapsed":1610160,"internal_node_id":"0.0-127.0"},{"result":163,"points":2,"place":1,"phase":1,"sequence":43,"prices":[198,193,169,163,202,182,152,164,177,171],"times":[929,538,1122,1053],"next_num":4,"trial_type":"ticket-choose","trial_index":128,"time_elapsed":1616738,"internal_node_id":"0.0-128.0"},{"result":158,"points":2,"place":1,"phase":1,"sequence":44,"prices":[175,186,158,211,180,187,177,166,209,153],"times":[1101,623,1052],"next_num":3,"trial_type":"ticket-choose","trial_index":129,"time_elapsed":1621946,"internal_node_id":"0.0-129.0"},{"result":163,"points":2,"place":1,"phase":1,"sequence":45,"prices":[175,187,163,209,180,188,176,165,154,208],"times":[750,565,930],"next_num":3,"trial_type":"ticket-choose","trial_index":130,"time_elapsed":1626747,"internal_node_id":"0.0-130.0"},{"result":143,"points":3,"place":0,"phase":1,"sequence":46,"prices":[222,173,202,197,143,205,198,183,178,186],"times":[773,689,560,558,919],"next_num":5,"trial_type":"ticket-choose","trial_index":131,"time_elapsed":1633212,"internal_node_id":"0.0-131.0"},{"result":152,"points":3,"place":0,"phase":1,"sequence":47,"prices":[200,181,203,152,175,171,160,154,176,191],"times":[742,704,591,956],"next_num":4,"trial_type":"ticket-choose","trial_index":132,"time_elapsed":1638923,"internal_node_id":"0.0-132.0"},{"result":176,"points":1,"place":4,"phase":1,"sequence":48,"prices":[157,191,165,175,182,203,170,195,200,176],"times":[978,557,587,578,552,556,597,598,591,803],"next_num":10,"trial_type":"ticket-choose","trial_index":133,"time_elapsed":1646981,"internal_node_id":"0.0-133.0"},{"result":186,"points":1,"place":4,"phase":1,"sequence":49,"prices":[168,192,171,178,188,217,172,195,197,186],"times":[910,622,605,590,858,573,634,664,663,760],"next_num":10,"trial_type":"ticket-choose","trial_index":134,"time_elapsed":1658103,"internal_node_id":"0.0-134.0"},{"responses":[{"value":1,"offby":1,"category":"$106 - $134","category_index":0},{"value":2,"offby":1,"category":"$135 - $150","category_index":1},{"value":3,"offby":0,"category":"$151 - $165","category_index":2},{"value":6,"offby":0,"category":"$166 - $180","category_index":3},{"value":4,"offby":-2,"category":"$181 - $195","category_index":4},{"value":3,"offby":0,"category":"$196 - $210","category_index":5},{"value":1,"offby":0,"category":"$211 - $225","category_index":6}],"phase":1,"number":1,"trial_type":"bar-choose","trial_index":135,"time_elapsed":1695506,"internal_node_id":"0.0-135.0"},{"special_comment":"no","trial_type":"special_sequence","trial_index":136,"time_elapsed":1701154,"internal_node_id":"0.0-136.0"},{"during":"Nothing","bonus":256,"trial_type":"final","trial_index":137,"time_elapsed":1717978,"internal_node_id":"0.0-137.0"}],"bonus":256}