{"start_time":"2017-02-27 12:29:49","end_time":"2017-02-27 13:13:41","points_phase0":111,"points_phase1":77,"phase_order":1,"age":27,"gender":"m","tries":1,"during":"Nothing","worker_id":"AFHYKBNXB3FQ2","assignment_id":"3YOH7BII0A0BE9IS9QBY22LRPCDVK2","data":[{"rt":208307,"url":"\/tickets\/utils\/consent.html","trial_type":"html","trial_index":0,"time_elapsed":208442,"internal_node_id":"0.0-0.0"},{"age":27,"gender":"m","trial_type":"age","trial_index":1,"time_elapsed":346504,"internal_node_id":"0.0-1.0"},{"worker_id":"AFHYKBNXB3FQ2","trial_type":"workerid","trial_index":2,"time_elapsed":354640,"internal_node_id":"0.0-2.0"},{"tries":1,"trial_type":"instructions_check","trial_index":3,"time_elapsed":362096,"internal_node_id":"0.0-3.0"},{"rt":936,"url":"\/tickets\/utils\/start.html","trial_type":"html","trial_index":4,"time_elapsed":364144,"internal_node_id":"0.0-4.0"},{"trial_type":"number-animation","trial_index":5,"time_elapsed":392623,"internal_node_id":"0.0-5.0"},{"phase":0,"sequence":0,"avg":166,"response":130,"trial_type":"training_avg","trial_index":6,"time_elapsed":419328,"internal_node_id":"0.0-6.0"},{"trial_type":"number-animation","trial_index":7,"time_elapsed":426520,"internal_node_id":"0.0-7.0"},{"phase":0,"sequence":1,"avg":198,"response":192,"trial_type":"training_avg","trial_index":8,"time_elapsed":435816,"internal_node_id":"0.0-8.0"},{"trial_type":"number-animation","trial_index":9,"time_elapsed":478464,"internal_node_id":"0.0-9.0"},{"phase":0,"sequence":2,"avg":177,"response":152,"trial_type":"training_avg","trial_index":10,"time_elapsed":486031,"internal_node_id":"0.0-10.0"},{"trial_type":"number-animation","trial_index":11,"time_elapsed":580512,"internal_node_id":"0.0-11.0"},{"phase":0,"sequence":3,"avg":190,"response":171,"trial_type":"training_avg","trial_index":12,"time_elapsed":588280,"internal_node_id":"0.0-12.0"},{"trial_type":"number-animation","trial_index":13,"time_elapsed":1035120,"internal_node_id":"0.0-13.0"},{"phase":0,"sequence":4,"avg":201,"response":185,"trial_type":"training_avg","trial_index":14,"time_elapsed":1047023,"internal_node_id":"0.0-14.0"},{"responses":[{"value":1,"offby":0,"category":"$30 - $75","category_index":0},{"value":2,"offby":0,"category":"$76 - $120","category_index":1},{"value":3,"offby":-1,"category":"$121 - $165","category_index":2},{"value":8,"offby":2,"category":"$166 - $210","category_index":3},{"value":3,"offby":-3,"category":"$211 - $255","category_index":4},{"value":2,"offby":1,"category":"$256 - $300","category_index":5},{"value":1,"offby":1,"category":"$301 - $345","category_index":6}],"phase":0,"number":0,"trial_type":"bar-choose","trial_index":15,"time_elapsed":1092336,"internal_node_id":"0.0-15.0"},{"rt":8256,"url":"\/tickets\/\/utils\/testing.html","trial_type":"html","trial_index":16,"time_elapsed":1101709,"internal_node_id":"0.0-16.0"},{"phase":0,"order":[29,1,14,7,15,21,44,3,33,47,24,12,37,32,46,40,20,43,49,18,4,27,22,42,31,2,30,13,19,36,11,26,34,39,0,38,5,17,6,28,10,8,25,48,35,23,9,16,45,41],"trial_type":"store_order","trial_index":17,"time_elapsed":1102711,"internal_node_id":"0.0-17.0"},{"result":126,"points":3,"place":0,"phase":0,"sequence":-1,"prices":[184,180,224,165,181,199,185,193,218,126],"times":[1735,96906,655,246,360,278,246,311,301,280],"next_num":11,"trial_type":"ticket-choose","trial_index":18,"time_elapsed":1209415,"internal_node_id":"0.0-18.0"},{"rt":4935,"url":"\/tickets\/utils\/testing_after.html","trial_type":"html","trial_index":19,"time_elapsed":1215511,"internal_node_id":"0.0-19.0"},{"result":140,"points":1,"place":2,"phase":0,"sequence":0,"prices":[146,171,120,245,165,191,160,140,100,196],"times":[1491,495,694,391,351,1215,1414,1504],"next_num":8,"trial_type":"ticket-choose","trial_index":20,"time_elapsed":1226822,"internal_node_id":"0.0-20.0"},{"result":196,"points":1,"place":4,"phase":0,"sequence":1,"prices":[120,221,135,185,200,261,181,251,255,196],"times":[2191,663,1910,1887,662,614,766,631,648,1015],"next_num":11,"trial_type":"ticket-choose","trial_index":21,"time_elapsed":1241814,"internal_node_id":"0.0-21.0"},{"result":130,"points":2,"place":1,"phase":0,"sequence":2,"prices":[176,150,276,171,261,116,130,201,166,231],"times":[2132,687,711,751,606,1198,96],"next_num":7,"trial_type":"ticket-choose","trial_index":22,"time_elapsed":1251390,"internal_node_id":"0.0-22.0"},{"result":105,"points":3,"place":0,"phase":0,"sequence":3,"prices":[151,176,126,251,170,196,165,145,105,201],"times":[1814,680,1023,630,734,694,585,606,1503],"next_num":9,"trial_type":"ticket-choose","trial_index":23,"time_elapsed":1263319,"internal_node_id":"0.0-23.0"},{"result":126,"points":2,"place":1,"phase":0,"sequence":4,"prices":[156,176,165,246,171,190,126,141,101,196],"times":[88277,550,527,574,647,568,984],"next_num":7,"trial_type":"ticket-choose","trial_index":24,"time_elapsed":1358518,"internal_node_id":"0.0-24.0"},{"result":75,"points":3,"place":0,"phase":0,"sequence":5,"prices":[75,171,131,151,161,250,145,190,206,156],"times":[1856],"next_num":1,"trial_type":"ticket-choose","trial_index":25,"time_elapsed":1362493,"internal_node_id":"0.0-25.0"},{"result":130,"points":3,"place":0,"phase":0,"sequence":6,"prices":[185,175,276,221,130,141,171,216,235,165],"times":[5158,2335,1632,1351,1912],"next_num":5,"trial_type":"ticket-choose","trial_index":26,"time_elapsed":1377734,"internal_node_id":"0.0-26.0"},{"result":81,"points":3,"place":0,"phase":0,"sequence":7,"prices":[81,205,130,151,191,261,145,210,250,165],"times":[1678],"next_num":1,"trial_type":"ticket-choose","trial_index":27,"time_elapsed":1381391,"internal_node_id":"0.0-27.0"},{"result":105,"points":3,"place":0,"phase":0,"sequence":8,"prices":[150,175,166,251,170,196,126,145,105,201],"times":[1514,598,615,520,366,551,538,661,1192],"next_num":9,"trial_type":"ticket-choose","trial_index":28,"time_elapsed":1391695,"internal_node_id":"0.0-28.0"},{"result":101,"points":3,"place":0,"phase":0,"sequence":9,"prices":[155,175,166,245,171,190,125,140,101,196],"times":[76846,2702,526,679,639,633,1846,695,1001],"next_num":9,"trial_type":"ticket-choose","trial_index":29,"time_elapsed":1481214,"internal_node_id":"0.0-29.0"},{"result":95,"points":3,"place":0,"phase":0,"sequence":10,"prices":[95,205,106,151,186,271,145,210,215,181],"times":[3898],"next_num":1,"trial_type":"ticket-choose","trial_index":30,"time_elapsed":1487142,"internal_node_id":"0.0-30.0"},{"result":66,"points":3,"place":0,"phase":0,"sequence":11,"prices":[66,201,96,150,185,230,121,216,225,165],"times":[1253],"next_num":1,"trial_type":"ticket-choose","trial_index":31,"time_elapsed":1490558,"internal_node_id":"0.0-31.0"},{"result":106,"points":2,"place":1,"phase":0,"sequence":12,"prices":[185,180,235,210,106,266,76,115,250,205],"times":[822,613,605,646,984],"next_num":5,"trial_type":"ticket-choose","trial_index":32,"time_elapsed":1496918,"internal_node_id":"0.0-32.0"},{"result":135,"points":1,"place":2,"phase":0,"sequence":13,"prices":[150,171,120,241,165,185,160,135,96,190],"times":[868,518,567,2094,959,623,1168,968],"next_num":8,"trial_type":"ticket-choose","trial_index":33,"time_elapsed":1508054,"internal_node_id":"0.0-33.0"},{"result":175,"points":1,"place":4,"phase":0,"sequence":14,"prices":[130,195,141,155,181,226,150,216,221,175],"times":[1389,719,773,719,646,648,783,1687,808,8504],"next_num":11,"trial_type":"ticket-choose","trial_index":34,"time_elapsed":1540183,"internal_node_id":"0.0-34.0"},{"result":136,"points":1,"place":2,"phase":0,"sequence":15,"prices":[150,171,121,241,165,185,160,136,95,191],"times":[1700,551,742,712,862,735,927,1080],"next_num":8,"trial_type":"ticket-choose","trial_index":35,"time_elapsed":1550822,"internal_node_id":"0.0-35.0"},{"result":120,"points":2,"place":1,"phase":0,"sequence":16,"prices":[150,170,160,241,166,186,120,136,96,191],"times":[1233,552,575,687,806,935,1176],"next_num":7,"trial_type":"ticket-choose","trial_index":36,"time_elapsed":1560006,"internal_node_id":"0.0-36.0"},{"result":150,"points":1,"place":4,"phase":0,"sequence":17,"prices":[111,231,131,146,171,295,141,241,271,150],"times":[959,663,975,648,680,568,2007,536,630,807],"next_num":10,"trial_type":"ticket-choose","trial_index":37,"time_elapsed":1572230,"internal_node_id":"0.0-37.0"},{"result":136,"points":1,"place":2,"phase":0,"sequence":18,"prices":[255,166,266,175,136,145,155,61,96,301],"times":[1202,711,591,679,1071],"next_num":5,"trial_type":"ticket-choose","trial_index":38,"time_elapsed":1579487,"internal_node_id":"0.0-38.0"},{"result":166,"points":1,"place":3,"phase":0,"sequence":19,"prices":[180,106,166,245,211,261,215,125,135,190],"times":[2112,1110,38],"next_num":3,"trial_type":"ticket-choose","trial_index":39,"time_elapsed":1586062,"internal_node_id":"0.0-39.0"},{"result":105,"points":3,"place":0,"phase":0,"sequence":20,"prices":[160,180,130,251,176,195,170,146,105,200],"times":[1320,663,920,679,624,695,630,1319,1327],"next_num":9,"trial_type":"ticket-choose","trial_index":40,"time_elapsed":1598230,"internal_node_id":"0.0-40.0"},{"result":126,"points":2,"place":1,"phase":0,"sequence":21,"prices":[151,175,166,251,170,195,126,146,105,201],"times":[1489,624,1399,607,6495,655,862],"next_num":7,"trial_type":"ticket-choose","trial_index":41,"time_elapsed":1613534,"internal_node_id":"0.0-41.0"},{"result":125,"points":2,"place":1,"phase":0,"sequence":22,"prices":[156,175,125,245,170,190,165,140,101,196],"times":[1637,710,911],"next_num":3,"trial_type":"ticket-choose","trial_index":42,"time_elapsed":1619302,"internal_node_id":"0.0-42.0"},{"result":131,"points":2,"place":1,"phase":0,"sequence":23,"prices":[161,180,171,250,176,195,131,146,105,201],"times":[1155,654,726,703,648,771,2658],"next_num":7,"trial_type":"ticket-choose","trial_index":43,"time_elapsed":1629949,"internal_node_id":"0.0-43.0"},{"result":151,"points":1,"place":2,"phase":0,"sequence":24,"prices":[156,181,131,256,176,200,171,151,111,206],"times":[1299,775,720,703,743,703,1007,1616],"next_num":8,"trial_type":"ticket-choose","trial_index":44,"time_elapsed":1640885,"internal_node_id":"0.0-44.0"},{"result":105,"points":3,"place":0,"phase":0,"sequence":25,"prices":[105,216,146,165,210,260,161,235,241,185],"times":[1791],"next_num":1,"trial_type":"ticket-choose","trial_index":45,"time_elapsed":1644550,"internal_node_id":"0.0-45.0"},{"result":91,"points":3,"place":0,"phase":0,"sequence":26,"prices":[176,150,141,91,290,201,106,266,206,126],"times":[1228,1087,800,1111],"next_num":4,"trial_type":"ticket-choose","trial_index":46,"time_elapsed":1651181,"internal_node_id":"0.0-46.0"},{"result":150,"points":2,"place":1,"phase":0,"sequence":27,"prices":[181,156,145,165,236,231,201,260,150,185],"times":[1130,647,735,709,679,999,870,735,2087],"next_num":9,"trial_type":"ticket-choose","trial_index":47,"time_elapsed":1663492,"internal_node_id":"0.0-47.0"},{"result":126,"points":2,"place":1,"phase":0,"sequence":28,"prices":[156,175,126,246,170,190,165,140,100,196],"times":[1166,663,1968],"next_num":3,"trial_type":"ticket-choose","trial_index":48,"time_elapsed":1669583,"internal_node_id":"0.0-48.0"},{"result":110,"points":3,"place":0,"phase":0,"sequence":29,"prices":[155,181,170,255,176,200,130,150,110,205],"times":[1063,678,911,784,911,727,719,726,943],"next_num":9,"trial_type":"ticket-choose","trial_index":49,"time_elapsed":1680621,"internal_node_id":"0.0-49.0"},{"result":105,"points":3,"place":0,"phase":0,"sequence":30,"prices":[150,176,126,251,171,195,165,145,105,200],"times":[1125,558,1919,536,639,567,687,703,1031],"next_num":9,"trial_type":"ticket-choose","trial_index":50,"time_elapsed":1691981,"internal_node_id":"0.0-50.0"},{"result":86,"points":3,"place":0,"phase":0,"sequence":31,"prices":[86,180,130,151,170,271,145,191,220,160],"times":[1216],"next_num":1,"trial_type":"ticket-choose","trial_index":51,"time_elapsed":1694878,"internal_node_id":"0.0-51.0"},{"result":30,"points":3,"place":0,"phase":0,"sequence":32,"prices":[155,30,101,55,136,276,70,181,200,261],"times":[1383,2126],"next_num":2,"trial_type":"ticket-choose","trial_index":52,"time_elapsed":1700717,"internal_node_id":"0.0-52.0"},{"result":141,"points":2,"place":1,"phase":0,"sequence":33,"prices":[135,180,141,151,175,220,145,196,211,155],"times":[1167,584,1503],"next_num":3,"trial_type":"ticket-choose","trial_index":53,"time_elapsed":1706660,"internal_node_id":"0.0-53.0"},{"result":120,"points":2,"place":1,"phase":0,"sequence":34,"prices":[145,170,160,245,165,190,120,141,100,195],"times":[1637,592,670,695,770,708,1295],"next_num":7,"trial_type":"ticket-choose","trial_index":54,"time_elapsed":1716245,"internal_node_id":"0.0-54.0"},{"result":65,"points":2,"place":1,"phase":0,"sequence":35,"prices":[220,236,176,65,185,101,110,61,156,191],"times":[1012,671,719,893],"next_num":4,"trial_type":"ticket-choose","trial_index":55,"time_elapsed":1721869,"internal_node_id":"0.0-55.0"},{"result":81,"points":3,"place":0,"phase":0,"sequence":36,"prices":[155,245,155,81,180,130,156,306,166,115],"times":[772,824,671,895],"next_num":4,"trial_type":"ticket-choose","trial_index":56,"time_elapsed":1727317,"internal_node_id":"0.0-56.0"},{"result":215,"points":0,"place":7,"phase":0,"sequence":37,"prices":[246,145,155,191,176,270,185,136,160,215],"times":[1022,669,606,600,510,1031,751,1240,703,663],"next_num":11,"trial_type":"ticket-choose","trial_index":57,"time_elapsed":1739742,"internal_node_id":"0.0-57.0"},{"result":111,"points":3,"place":0,"phase":0,"sequence":38,"prices":[175,211,266,286,111,216,220,245,230,165],"times":[1247,678,582,567,1255],"next_num":5,"trial_type":"ticket-choose","trial_index":58,"time_elapsed":1746701,"internal_node_id":"0.0-58.0"},{"result":51,"points":3,"place":0,"phase":0,"sequence":39,"prices":[221,175,51,196,146,130,166,80,126,156],"times":[1218,591,822],"next_num":3,"trial_type":"ticket-choose","trial_index":59,"time_elapsed":1751750,"internal_node_id":"0.0-59.0"},{"result":121,"points":2,"place":1,"phase":0,"sequence":40,"prices":[150,170,160,240,166,185,121,136,95,191],"times":[882,615,583,560,743,616,871],"next_num":7,"trial_type":"ticket-choose","trial_index":60,"time_elapsed":1759934,"internal_node_id":"0.0-60.0"},{"result":105,"points":3,"place":0,"phase":0,"sequence":41,"prices":[160,180,170,251,176,195,131,146,105,200],"times":[2577,622,550,631,734,774,1687,663,1031],"next_num":9,"trial_type":"ticket-choose","trial_index":61,"time_elapsed":1772549,"internal_node_id":"0.0-61.0"},{"result":111,"points":3,"place":0,"phase":0,"sequence":42,"prices":[156,181,130,255,175,200,170,150,111,205],"times":[1287,607,774,710,600,975,646,831,1039],"next_num":9,"trial_type":"ticket-choose","trial_index":62,"time_elapsed":1783478,"internal_node_id":"0.0-62.0"},{"result":100,"points":3,"place":0,"phase":0,"sequence":43,"prices":[145,171,161,245,165,191,120,140,100,196],"times":[4881,1239,511,583,558,615,1423,775,1144],"next_num":9,"trial_type":"ticket-choose","trial_index":63,"time_elapsed":1798911,"internal_node_id":"0.0-63.0"},{"result":105,"points":3,"place":0,"phase":0,"sequence":44,"prices":[161,180,131,251,175,196,171,146,105,201],"times":[798,671,767,870,958,792,871,1286,1495],"next_num":9,"trial_type":"ticket-choose","trial_index":64,"time_elapsed":1811550,"internal_node_id":"0.0-64.0"},{"result":106,"points":3,"place":0,"phase":0,"sequence":45,"prices":[155,225,245,130,176,106,180,211,165,200],"times":[1256,502,559,695,894,1055],"next_num":6,"trial_type":"ticket-choose","trial_index":65,"time_elapsed":1819382,"internal_node_id":"0.0-65.0"},{"result":195,"points":0,"place":8,"phase":0,"sequence":46,"prices":[146,170,121,245,166,190,161,141,100,195],"times":[22909,877,615,831,3856,790,806,2024,7580,1368],"next_num":11,"trial_type":"ticket-choose","trial_index":66,"time_elapsed":1865365,"internal_node_id":"0.0-66.0"},{"result":45,"points":3,"place":0,"phase":0,"sequence":47,"prices":[186,156,191,120,195,145,45,130,246,176],"times":[1100,767,624,1039,599,711,951],"next_num":7,"trial_type":"ticket-choose","trial_index":67,"time_elapsed":1874309,"internal_node_id":"0.0-67.0"},{"result":150,"points":1,"place":2,"phase":0,"sequence":48,"prices":[156,181,171,256,175,200,131,150,110,206],"times":[841,400,566,647,638,743,838,926],"next_num":8,"trial_type":"ticket-choose","trial_index":68,"time_elapsed":1883639,"internal_node_id":"0.0-68.0"},{"result":115,"points":3,"place":0,"phase":0,"sequence":49,"prices":[226,205,125,120,115,135,180,145,150,220],"times":[1153,655,2847,1214,1727],"next_num":5,"trial_type":"ticket-choose","trial_index":69,"time_elapsed":1894101,"internal_node_id":"0.0-69.0"},{"responses":[{"value":1,"offby":0,"category":"$30 - $75","category_index":0},{"value":2,"offby":0,"category":"$76 - $120","category_index":1},{"value":3,"offby":-1,"category":"$121 - $165","category_index":2},{"value":8,"offby":2,"category":"$166 - $210","category_index":3},{"value":3,"offby":-3,"category":"$211 - $255","category_index":4},{"value":2,"offby":1,"category":"$256 - $300","category_index":5},{"value":1,"offby":1,"category":"$301 - $345","category_index":6}],"phase":0,"number":1,"trial_type":"bar-choose","trial_index":70,"time_elapsed":1938791,"internal_node_id":"0.0-70.0"},{"rt":5597,"url":"\/tickets\/utils\/start2.html","trial_type":"html","trial_index":71,"time_elapsed":1945502,"internal_node_id":"0.0-71.0"},{"trial_type":"number-animation","trial_index":72,"time_elapsed":1952990,"internal_node_id":"0.0-72.0"},{"phase":1,"sequence":0,"avg":180,"response":183,"trial_type":"training_avg","trial_index":73,"time_elapsed":1962230,"internal_node_id":"0.0-73.0"},{"trial_type":"number-animation","trial_index":74,"time_elapsed":1969302,"internal_node_id":"0.0-74.0"},{"phase":1,"sequence":1,"avg":178,"response":178,"trial_type":"training_avg","trial_index":75,"time_elapsed":1974839,"internal_node_id":"0.0-75.0"},{"trial_type":"number-animation","trial_index":76,"time_elapsed":1981485,"internal_node_id":"0.0-76.0"},{"phase":1,"sequence":2,"avg":176,"response":177,"trial_type":"training_avg","trial_index":77,"time_elapsed":1987862,"internal_node_id":"0.0-77.0"},{"trial_type":"number-animation","trial_index":78,"time_elapsed":2026909,"internal_node_id":"0.0-78.0"},{"phase":1,"sequence":3,"avg":178,"response":174,"trial_type":"training_avg","trial_index":79,"time_elapsed":2031822,"internal_node_id":"0.0-79.0"},{"trial_type":"number-animation","trial_index":80,"time_elapsed":2044182,"internal_node_id":"0.0-80.0"},{"phase":1,"sequence":4,"avg":179,"response":175,"trial_type":"training_avg","trial_index":81,"time_elapsed":2064718,"internal_node_id":"0.0-81.0"},{"responses":[{"value":1,"offby":1,"category":"$140 - $250","category_index":0},{"value":1,"offby":1,"category":"$151 - $160","category_index":1},{"value":2,"offby":-2,"category":"$161 - $170","category_index":2},{"value":8,"offby":2,"category":"$171 - $180","category_index":3},{"value":6,"offby":-1,"category":"$181 - $190","category_index":4},{"value":1,"offby":-2,"category":"$191 - $200","category_index":5},{"value":1,"offby":1,"category":"$201 - $210","category_index":6}],"phase":1,"number":0,"trial_type":"bar-choose","trial_index":82,"time_elapsed":2091385,"internal_node_id":"0.0-82.0"},{"rt":2061,"url":"\/tickets\/utils\/testing2.html","trial_type":"html","trial_index":83,"time_elapsed":2094558,"internal_node_id":"0.0-83.0"},{"phase":1,"order":[18,27,40,2,5,28,38,30,6,4,25,31,34,17,33,16,21,29,39,41,9,7,1,12,10,26,45,47,0,14,3,24,44,32,23,43,42,48,46,35,20,13,11,22,8,49,19,37,15,36],"trial_type":"store_order","trial_index":84,"time_elapsed":2095560,"internal_node_id":"0.0-84.0"},{"result":174,"points":1,"place":4,"phase":1,"sequence":0,"prices":[166,190,170,173,178,203,172,192,198,174],"times":[72388,310,384,2566,256,264,216,230,310,1768],"next_num":11,"trial_type":"ticket-choose","trial_index":85,"time_elapsed":2183078,"internal_node_id":"0.0-85.0"},{"result":164,"points":3,"place":0,"phase":1,"sequence":1,"prices":[175,179,169,193,178,182,177,172,164,183],"times":[1269,375,775,592,567,599,679,574,711],"next_num":9,"trial_type":"ticket-choose","trial_index":86,"time_elapsed":2192694,"internal_node_id":"0.0-86.0"},{"result":179,"points":0,"place":5,"phase":1,"sequence":2,"prices":[175,180,178,195,179,184,170,174,166,185],"times":[949,655,574,568,230],"next_num":5,"trial_type":"ticket-choose","trial_index":87,"time_elapsed":2198207,"internal_node_id":"0.0-87.0"},{"result":173,"points":1,"place":2,"phase":1,"sequence":3,"prices":[174,179,177,194,178,183,169,173,165,184],"times":[863,542,318,368,326,336,382,839],"next_num":8,"trial_type":"ticket-choose","trial_index":88,"time_elapsed":2205422,"internal_node_id":"0.0-88.0"},{"result":174,"points":1,"place":2,"phase":1,"sequence":4,"prices":[175,180,178,195,179,184,170,174,166,185],"times":[699,311,319,279,663,2023,551,696],"next_num":8,"trial_type":"ticket-choose","trial_index":89,"time_elapsed":2214238,"internal_node_id":"0.0-89.0"},{"result":182,"points":0,"place":8,"phase":1,"sequence":5,"prices":[174,178,176,192,177,181,168,171,163,182],"times":[1141,324,512,694,480,2503,358,567,695,1423],"next_num":11,"trial_type":"ticket-choose","trial_index":90,"time_elapsed":2226836,"internal_node_id":"0.0-90.0"},{"result":164,"points":1,"place":3,"phase":1,"sequence":6,"prices":[175,150,164,155,171,199,158,180,184,196],"times":[889,256,799],"next_num":3,"trial_type":"ticket-choose","trial_index":91,"time_elapsed":2230972,"internal_node_id":"0.0-91.0"},{"result":165,"points":3,"place":0,"phase":1,"sequence":7,"prices":[174,179,169,194,178,183,177,173,165,184],"times":[809,632,654,735,807,599,662,686,1207],"next_num":9,"trial_type":"ticket-choose","trial_index":92,"time_elapsed":2241844,"internal_node_id":"0.0-92.0"},{"result":179,"points":1,"place":4,"phase":1,"sequence":8,"prices":[170,183,172,175,180,189,174,187,188,179],"times":[1029,304,614,622,391,600,743,1080,726,487],"next_num":11,"trial_type":"ticket-choose","trial_index":93,"time_elapsed":2252311,"internal_node_id":"0.0-93.0"},{"result":174,"points":2,"place":1,"phase":1,"sequence":9,"prices":[180,175,173,177,191,190,184,196,174,181],"times":[980,752,759,655,614,871,735,686,1528],"next_num":9,"trial_type":"ticket-choose","trial_index":94,"time_elapsed":2263356,"internal_node_id":"0.0-94.0"},{"result":161,"points":3,"place":0,"phase":1,"sequence":10,"prices":[161,180,170,174,178,198,173,182,188,176],"times":[1239],"next_num":1,"trial_type":"ticket-choose","trial_index":95,"time_elapsed":2266557,"internal_node_id":"0.0-95.0"},{"result":165,"points":3,"place":0,"phase":1,"sequence":11,"prices":[176,180,178,194,179,183,170,173,165,184],"times":[1083,425,375,336,310,311,615,791,847],"next_num":9,"trial_type":"ticket-choose","trial_index":96,"time_elapsed":2275116,"internal_node_id":"0.0-96.0"},{"result":168,"points":2,"place":1,"phase":1,"sequence":12,"prices":[181,175,182,168,183,173,153,170,193,179],"times":[1180,761,630,943],"next_num":4,"trial_type":"ticket-choose","trial_index":97,"time_elapsed":2280908,"internal_node_id":"0.0-97.0"},{"result":175,"points":1,"place":4,"phase":1,"sequence":13,"prices":[171,180,172,174,179,188,173,183,186,175],"times":[1052,312,231,341,246,303,272,687,415,624],"next_num":11,"trial_type":"ticket-choose","trial_index":98,"time_elapsed":2289276,"internal_node_id":"0.0-98.0"},{"result":177,"points":2,"place":1,"phase":1,"sequence":14,"prices":[179,186,197,201,166,187,188,193,190,177],"times":[830,567,1071,719,2143,2007,591,640,607,583],"next_num":11,"trial_type":"ticket-choose","trial_index":99,"time_elapsed":2303364,"internal_node_id":"0.0-99.0"},{"result":167,"points":3,"place":0,"phase":1,"sequence":15,"prices":[179,174,199,178,196,167,170,184,177,190],"times":[1249,662,776,823,919,1959],"next_num":6,"trial_type":"ticket-choose","trial_index":100,"time_elapsed":2312740,"internal_node_id":"0.0-100.0"},{"result":163,"points":3,"place":0,"phase":1,"sequence":16,"prices":[174,178,176,192,177,181,168,171,163,182],"times":[1325,1656,598,615,591,670,575,816,1502],"next_num":9,"trial_type":"ticket-choose","trial_index":101,"time_elapsed":2324965,"internal_node_id":"0.0-101.0"},{"result":157,"points":2,"place":1,"phase":1,"sequence":17,"prices":[188,191,179,157,181,164,166,156,175,182],"times":[1263,326,2335,984],"next_num":4,"trial_type":"ticket-choose","trial_index":102,"time_elapsed":2332300,"internal_node_id":"0.0-102.0"},{"result":179,"points":1,"place":4,"phase":1,"sequence":18,"prices":[175,189,193,170,179,165,180,186,177,184],"times":[1216,239,600,662,279],"next_num":5,"trial_type":"ticket-choose","trial_index":103,"time_elapsed":2337940,"internal_node_id":"0.0-103.0"},{"result":193,"points":0,"place":9,"phase":1,"sequence":19,"prices":[173,178,168,193,177,182,176,172,164,183],"times":[749,367,239,320],"next_num":4,"trial_type":"ticket-choose","trial_index":104,"time_elapsed":2341964,"internal_node_id":"0.0-104.0"},{"result":193,"points":0,"place":9,"phase":1,"sequence":20,"prices":[175,179,177,193,178,182,169,172,164,183],"times":[673,655,321,286],"next_num":4,"trial_type":"ticket-choose","trial_index":105,"time_elapsed":2346181,"internal_node_id":"0.0-105.0"},{"result":194,"points":0,"place":7,"phase":1,"sequence":21,"prices":[168,188,171,181,184,196,180,194,195,183],"times":[1628,390,287,1679,686,606,615,199],"next_num":8,"trial_type":"ticket-choose","trial_index":106,"time_elapsed":2355525,"internal_node_id":"0.0-106.0"},{"result":178,"points":0,"place":6,"phase":1,"sequence":22,"prices":[173,178,176,193,177,182,168,172,164,183],"times":[886,511],"next_num":2,"trial_type":"ticket-choose","trial_index":107,"time_elapsed":2358925,"internal_node_id":"0.0-107.0"},{"result":175,"points":1,"place":3,"phase":1,"sequence":23,"prices":[175,193,175,160,180,170,175,205,177,167],"times":[850],"next_num":1,"trial_type":"ticket-choose","trial_index":108,"time_elapsed":2361493,"internal_node_id":"0.0-108.0"},{"result":157,"points":3,"place":0,"phase":1,"sequence":24,"prices":[157,184,163,174,181,190,168,187,189,177],"times":[1175],"next_num":1,"trial_type":"ticket-choose","trial_index":109,"time_elapsed":2364597,"internal_node_id":"0.0-109.0"},{"result":174,"points":1,"place":3,"phase":1,"sequence":25,"prices":[174,179,169,194,178,183,177,173,165,184],"times":[1310],"next_num":1,"trial_type":"ticket-choose","trial_index":110,"time_elapsed":2367805,"internal_node_id":"0.0-110.0"},{"result":160,"points":3,"place":0,"phase":1,"sequence":26,"prices":[160,185,170,174,182,196,173,186,194,177],"times":[2694],"next_num":1,"trial_type":"ticket-choose","trial_index":111,"time_elapsed":2372365,"internal_node_id":"0.0-111.0"},{"result":173,"points":1,"place":2,"phase":1,"sequence":27,"prices":[176,180,178,194,179,183,170,173,165,184],"times":[1309,584,623,567,631,680,599,960],"next_num":8,"trial_type":"ticket-choose","trial_index":112,"time_elapsed":2381638,"internal_node_id":"0.0-112.0"},{"result":173,"points":1,"place":3,"phase":1,"sequence":28,"prices":[173,178,168,193,177,182,176,172,164,183],"times":[955],"next_num":1,"trial_type":"ticket-choose","trial_index":113,"time_elapsed":2384333,"internal_node_id":"0.0-113.0"},{"result":167,"points":3,"place":0,"phase":1,"sequence":29,"prices":[189,185,169,168,167,171,180,173,174,188],"times":[1381,624,503,350,560],"next_num":5,"trial_type":"ticket-choose","trial_index":114,"time_elapsed":2390293,"internal_node_id":"0.0-114.0"},{"result":174,"points":1,"place":2,"phase":1,"sequence":30,"prices":[175,180,170,195,179,184,178,174,166,185],"times":[2384,735,686,632,592,679,647,831],"next_num":8,"trial_type":"ticket-choose","trial_index":115,"time_elapsed":2400725,"internal_node_id":"0.0-115.0"},{"result":177,"points":1,"place":3,"phase":1,"sequence":31,"prices":[165,187,173,177,186,196,176,191,192,181],"times":[1709,327,631,904],"next_num":4,"trial_type":"ticket-choose","trial_index":116,"time_elapsed":2406613,"internal_node_id":"0.0-116.0"},{"result":159,"points":3,"place":0,"phase":1,"sequence":32,"prices":[181,180,191,186,165,197,159,167,194,185],"times":[21141,640,575,640,1783,1408,1285],"next_num":7,"trial_type":"ticket-choose","trial_index":117,"time_elapsed":2437766,"internal_node_id":"0.0-117.0"},{"result":171,"points":1,"place":2,"phase":1,"sequence":33,"prices":[195,177,197,179,171,173,175,156,163,204],"times":[1436,1303,671,1216,943],"next_num":5,"trial_type":"ticket-choose","trial_index":118,"time_elapsed":2446077,"internal_node_id":"0.0-118.0"},{"result":175,"points":1,"place":3,"phase":1,"sequence":34,"prices":[175,179,169,193,178,182,177,172,164,183],"times":[1633],"next_num":1,"trial_type":"ticket-choose","trial_index":119,"time_elapsed":2449901,"internal_node_id":"0.0-119.0"},{"result":170,"points":3,"place":0,"phase":1,"sequence":35,"prices":[181,179,199,188,170,172,178,187,191,177],"times":[1264,717,775,1480,1408],"next_num":5,"trial_type":"ticket-choose","trial_index":120,"time_elapsed":2458133,"internal_node_id":"0.0-120.0"},{"result":169,"points":2,"place":1,"phase":1,"sequence":36,"prices":[175,179,177,193,178,182,169,172,164,183],"times":[1558,847,591,623,455,686,1022],"next_num":7,"trial_type":"ticket-choose","trial_index":121,"time_elapsed":2466957,"internal_node_id":"0.0-121.0"},{"result":168,"points":2,"place":1,"phase":1,"sequence":37,"prices":[174,178,168,192,177,181,176,171,163,182],"times":[953,583,1360],"next_num":3,"trial_type":"ticket-choose","trial_index":122,"time_elapsed":2472029,"internal_node_id":"0.0-122.0"},{"result":184,"points":0,"place":8,"phase":1,"sequence":38,"prices":[174,179,177,194,178,183,169,173,165,184],"times":[1253,663,550,655,583,375,1088,664,671,1080],"next_num":11,"trial_type":"ticket-choose","trial_index":123,"time_elapsed":2483580,"internal_node_id":"0.0-123.0"},{"result":174,"points":1,"place":3,"phase":1,"sequence":39,"prices":[159,178,170,174,176,194,173,182,185,175],"times":[1498,1206,976,1887],"next_num":4,"trial_type":"ticket-choose","trial_index":124,"time_elapsed":2492333,"internal_node_id":"0.0-124.0"},{"result":178,"points":1,"place":4,"phase":1,"sequence":40,"prices":[175,180,170,195,179,184,178,174,166,185],"times":[1314,847,1383,1758,584,855,1206],"next_num":7,"trial_type":"ticket-choose","trial_index":125,"time_elapsed":2503567,"internal_node_id":"0.0-125.0"},{"result":170,"points":2,"place":1,"phase":1,"sequence":41,"prices":[176,180,170,194,179,183,178,173,165,184],"times":[1089,2262,974],"next_num":3,"trial_type":"ticket-choose","trial_index":126,"time_elapsed":2510382,"internal_node_id":"0.0-126.0"},{"result":165,"points":2,"place":1,"phase":1,"sequence":42,"prices":[163,185,165,174,181,198,173,186,187,180],"times":[1217,960,744],"next_num":3,"trial_type":"ticket-choose","trial_index":127,"time_elapsed":2515469,"internal_node_id":"0.0-127.0"},{"result":173,"points":2,"place":1,"phase":1,"sequence":43,"prices":[193,173,175,182,179,198,181,171,176,187],"times":[1733,1640],"next_num":2,"trial_type":"ticket-choose","trial_index":128,"time_elapsed":2520861,"internal_node_id":"0.0-128.0"},{"result":183,"points":0,"place":8,"phase":1,"sequence":44,"prices":[188,179,154,183,173,170,177,160,169,175],"times":[1219,911,2254,1128],"next_num":4,"trial_type":"ticket-choose","trial_index":129,"time_elapsed":2529221,"internal_node_id":"0.0-129.0"},{"result":176,"points":1,"place":4,"phase":1,"sequence":45,"prices":[173,178,176,193,177,182,168,172,164,183],"times":[947,470,614],"next_num":3,"trial_type":"ticket-choose","trial_index":130,"time_elapsed":2533789,"internal_node_id":"0.0-130.0"},{"result":170,"points":2,"place":1,"phase":1,"sequence":46,"prices":[176,180,170,194,179,183,178,173,165,184],"times":[1352,727,695],"next_num":3,"trial_type":"ticket-choose","trial_index":131,"time_elapsed":2538804,"internal_node_id":"0.0-131.0"},{"result":168,"points":2,"place":1,"phase":1,"sequence":47,"prices":[174,178,168,192,177,181,176,171,163,182],"times":[1317,376,1327],"next_num":3,"trial_type":"ticket-choose","trial_index":132,"time_elapsed":2544149,"internal_node_id":"0.0-132.0"},{"result":174,"points":1,"place":4,"phase":1,"sequence":48,"prices":[179,174,172,162,202,184,165,197,185,169],"times":[1370,1047],"next_num":2,"trial_type":"ticket-choose","trial_index":133,"time_elapsed":2548989,"internal_node_id":"0.0-133.0"},{"result":165,"points":3,"place":0,"phase":1,"sequence":49,"prices":[180,165,177,193,186,196,187,169,171,182],"times":[1583,960],"next_num":2,"trial_type":"ticket-choose","trial_index":134,"time_elapsed":2553869,"internal_node_id":"0.0-134.0"},{"responses":[{"value":2,"offby":2,"category":"$140 - $250","category_index":0},{"value":2,"offby":2,"category":"$151 - $160","category_index":1},{"value":4,"offby":0,"category":"$161 - $170","category_index":2},{"value":6,"offby":0,"category":"$171 - $180","category_index":3},{"value":3,"offby":-4,"category":"$181 - $190","category_index":4},{"value":2,"offby":-1,"category":"$191 - $200","category_index":5},{"value":1,"offby":1,"category":"$201 - $210","category_index":6}],"phase":1,"number":1,"trial_type":"bar-choose","trial_index":135,"time_elapsed":2586207,"internal_node_id":"0.0-135.0"},{"special_comment":"Theywere a little higher.","trial_type":"special_sequence","trial_index":136,"time_elapsed":2597910,"internal_node_id":"0.0-136.0"},{"during":"Nothing","bonus":252,"trial_type":"final","trial_index":137,"time_elapsed":2630054,"internal_node_id":"0.0-137.0"}],"bonus":252}