{"start_time":"2017-02-21 11:11:58","end_time":"2017-02-21 11:43:37","points_phase0":118,"points_phase1":108,"phase_order":0,"age":26,"gender":"f","tries":1,"during":"Nothing","worker_id":"AG0X3PQK2FWQJ","assignment_id":"3UXUOQ9OKFQ3R68AF1VT2A2SYSJA71","data":[{"rt":32521,"url":"\/tickets\/utils\/consent.html","trial_type":"html","trial_index":0,"time_elapsed":32758,"internal_node_id":"0.0-0.0"},{"age":26,"gender":"f","trial_type":"age","trial_index":1,"time_elapsed":355454,"internal_node_id":"0.0-1.0"},{"worker_id":"AG0X3PQK2FWQJ","trial_type":"workerid","trial_index":2,"time_elapsed":363853,"internal_node_id":"0.0-2.0"},{"tries":1,"trial_type":"instructions_check","trial_index":3,"time_elapsed":380973,"internal_node_id":"0.0-3.0"},{"rt":14268,"url":"\/tickets\/utils\/start.html","trial_type":"html","trial_index":4,"time_elapsed":396437,"internal_node_id":"0.0-4.0"},{"trial_type":"number-animation","trial_index":5,"time_elapsed":418883,"internal_node_id":"0.0-5.0"},{"phase":0,"sequence":0,"avg":181,"response":181,"trial_type":"training_avg","trial_index":6,"time_elapsed":430628,"internal_node_id":"0.0-6.0"},{"trial_type":"number-animation","trial_index":7,"time_elapsed":443977,"internal_node_id":"0.0-7.0"},{"phase":0,"sequence":1,"avg":188,"response":190,"trial_type":"training_avg","trial_index":8,"time_elapsed":453316,"internal_node_id":"0.0-8.0"},{"trial_type":"number-animation","trial_index":9,"time_elapsed":463258,"internal_node_id":"0.0-9.0"},{"phase":0,"sequence":2,"avg":188,"response":191,"trial_type":"training_avg","trial_index":10,"time_elapsed":471212,"internal_node_id":"0.0-10.0"},{"trial_type":"number-animation","trial_index":11,"time_elapsed":479616,"internal_node_id":"0.0-11.0"},{"phase":0,"sequence":3,"avg":177,"response":164,"trial_type":"training_avg","trial_index":12,"time_elapsed":488021,"internal_node_id":"0.0-12.0"},{"trial_type":"number-animation","trial_index":13,"time_elapsed":498438,"internal_node_id":"0.0-13.0"},{"phase":0,"sequence":4,"avg":182,"response":171,"trial_type":"training_avg","trial_index":14,"time_elapsed":507725,"internal_node_id":"0.0-14.0"},{"responses":[{"value":0,"offby":0,"category":"$106 - $134","category_index":0},{"value":1,"offby":0,"category":"$135 - $150","category_index":1},{"value":3,"offby":0,"category":"$151 - $165","category_index":2},{"value":5,"offby":-1,"category":"$166 - $180","category_index":3},{"value":6,"offby":0,"category":"$181 - $195","category_index":4},{"value":3,"offby":0,"category":"$196 - $210","category_index":5},{"value":2,"offby":1,"category":"$211 - $225","category_index":6}],"phase":0,"number":0,"trial_type":"bar-choose","trial_index":15,"time_elapsed":612999,"internal_node_id":"0.0-15.0"},{"rt":25846,"url":"\/tickets\/\/utils\/testing.html","trial_type":"html","trial_index":16,"time_elapsed":640030,"internal_node_id":"0.0-16.0"},{"phase":0,"order":[49,37,3,36,12,4,26,23,46,7,17,30,27,38,34,8,39,13,22,9,48,15,42,14,24,47,44,16,20,21,18,33,25,0,19,5,2,43,28,6,10,1,35,40,31,41,11,45,32,29],"trial_type":"store_order","trial_index":17,"time_elapsed":641031,"internal_node_id":"0.0-17.0"},{"result":126,"points":3,"place":0,"phase":0,"sequence":-1,"prices":[184,180,224,165,181,199,185,193,218,126],"times":[1682,990,915,1893,601,761,654,833,1059,3043],"next_num":10,"trial_type":"ticket-choose","trial_index":18,"time_elapsed":657966,"internal_node_id":"0.0-18.0"},{"rt":22421,"url":"\/tickets\/utils\/testing_after.html","trial_type":"html","trial_index":19,"time_elapsed":681574,"internal_node_id":"0.0-19.0"},{"result":148,"points":3,"place":0,"phase":0,"sequence":0,"prices":[183,163,185,180,166,148,160,186,176,184],"times":[1345,2095,698,555,672,1542],"next_num":6,"trial_type":"ticket-choose","trial_index":20,"time_elapsed":693334,"internal_node_id":"0.0-20.0"},{"result":152,"points":3,"place":0,"phase":0,"sequence":1,"prices":[198,193,169,163,202,182,152,164,177,171],"times":[11489,844,710,826,1223,908,2782],"next_num":7,"trial_type":"ticket-choose","trial_index":21,"time_elapsed":717069,"internal_node_id":"0.0-21.0"},{"result":153,"points":3,"place":0,"phase":0,"sequence":2,"prices":[175,186,163,211,179,187,176,165,153,210],"times":[841,497,537,2238,559,505,4409,885,1668],"next_num":9,"trial_type":"ticket-choose","trial_index":22,"time_elapsed":734077,"internal_node_id":"0.0-22.0"},{"result":154,"points":3,"place":0,"phase":0,"sequence":3,"prices":[188,200,165,172,198,174,177,154,177,180],"times":[2456,482,506,549,590,629,512,1582],"next_num":8,"trial_type":"ticket-choose","trial_index":23,"time_elapsed":745732,"internal_node_id":"0.0-23.0"},{"result":156,"points":3,"place":0,"phase":0,"sequence":4,"prices":[174,186,178,217,181,188,167,168,208,156],"times":[4088,499,631,571,521,440,1317,1100,1175,1212],"next_num":10,"trial_type":"ticket-choose","trial_index":24,"time_elapsed":762268,"internal_node_id":"0.0-24.0"},{"result":153,"points":3,"place":0,"phase":0,"sequence":5,"prices":[176,186,176,210,179,187,163,166,153,208],"times":[1231,510,476,1109,520,465,599,808,1224],"next_num":9,"trial_type":"ticket-choose","trial_index":25,"time_elapsed":774061,"internal_node_id":"0.0-25.0"},{"result":152,"points":3,"place":0,"phase":0,"sequence":6,"prices":[152,200,158,173,182,207,161,202,204,180],"times":[3033],"next_num":1,"trial_type":"ticket-choose","trial_index":26,"time_elapsed":781492,"internal_node_id":"0.0-26.0"},{"result":158,"points":2,"place":1,"phase":0,"sequence":7,"prices":[176,185,177,218,180,186,158,166,209,154],"times":[1297,477,512,678,519,537,1065],"next_num":7,"trial_type":"ticket-choose","trial_index":27,"time_elapsed":791149,"internal_node_id":"0.0-27.0"},{"result":158,"points":3,"place":0,"phase":0,"sequence":8,"prices":[210,184,226,193,215,158,199,175,176,208],"times":[1822,842,751,503,642,1125],"next_num":6,"trial_type":"ticket-choose","trial_index":28,"time_elapsed":800189,"internal_node_id":"0.0-28.0"},{"result":153,"points":3,"place":0,"phase":0,"sequence":9,"prices":[175,186,176,224,179,187,163,165,153,210],"times":[2240,475,596,704,575,631,1808,833,1343],"next_num":9,"trial_type":"ticket-choose","trial_index":29,"time_elapsed":813445,"internal_node_id":"0.0-29.0"},{"result":167,"points":1,"place":2,"phase":0,"sequence":10,"prices":[175,186,158,209,181,188,177,167,208,154],"times":[1309,548,513,3138,612,565,614,2828],"next_num":8,"trial_type":"ticket-choose","trial_index":30,"time_elapsed":827821,"internal_node_id":"0.0-30.0"},{"result":157,"points":3,"place":0,"phase":0,"sequence":11,"prices":[157,191,165,175,182,203,170,195,200,176],"times":[3197],"next_num":1,"trial_type":"ticket-choose","trial_index":31,"time_elapsed":834342,"internal_node_id":"0.0-31.0"},{"result":186,"points":1,"place":4,"phase":0,"sequence":12,"prices":[168,192,171,178,188,217,172,195,197,186],"times":[6959,532,538,436,509,562,837,1026,1066,1389],"next_num":10,"trial_type":"ticket-choose","trial_index":32,"time_elapsed":852485,"internal_node_id":"0.0-32.0"},{"result":163,"points":3,"place":0,"phase":0,"sequence":13,"prices":[168,199,196,198,185,195,227,163,177,166],"times":[1606,494,435,497,482,1120,907,1550],"next_num":8,"trial_type":"ticket-choose","trial_index":33,"time_elapsed":863269,"internal_node_id":"0.0-33.0"},{"result":148,"points":3,"place":0,"phase":0,"sequence":14,"prices":[181,155,148,161,168,187,172,199,176,194],"times":[5278,521,1184],"next_num":3,"trial_type":"ticket-choose","trial_index":34,"time_elapsed":872948,"internal_node_id":"0.0-34.0"},{"result":156,"points":3,"place":0,"phase":0,"sequence":15,"prices":[174,186,167,211,181,188,178,168,208,156],"times":[1371,480,644,544,797,530,949,1988,881,959],"next_num":10,"trial_type":"ticket-choose","trial_index":35,"time_elapsed":885876,"internal_node_id":"0.0-35.0"},{"result":171,"points":1,"place":3,"phase":0,"sequence":16,"prices":[189,167,180,197,165,168,172,213,178,171],"times":[1224,864,495,559,741,663,863,1065,1025,888],"next_num":10,"trial_type":"ticket-choose","trial_index":36,"time_elapsed":900268,"internal_node_id":"0.0-36.0"},{"result":167,"points":2,"place":1,"phase":0,"sequence":17,"prices":[175,185,178,215,181,186,167,168,208,156],"times":[3700,502,468,630,888,1152,1354],"next_num":7,"trial_type":"ticket-choose","trial_index":37,"time_elapsed":912189,"internal_node_id":"0.0-37.0"},{"result":158,"points":2,"place":1,"phase":0,"sequence":18,"prices":[176,187,177,225,181,187,158,165,208,153],"times":[909,1724,581,565,522,506,1254],"next_num":7,"trial_type":"ticket-choose","trial_index":38,"time_elapsed":923222,"internal_node_id":"0.0-38.0"},{"result":156,"points":3,"place":0,"phase":0,"sequence":19,"prices":[175,185,167,224,181,186,178,168,208,156],"times":[1379,746,1300,566,637,604,696,1557,1022,793],"next_num":10,"trial_type":"ticket-choose","trial_index":39,"time_elapsed":937758,"internal_node_id":"0.0-39.0"},{"result":147,"points":3,"place":0,"phase":0,"sequence":20,"prices":[181,215,169,147,182,193,177,184,176,179],"times":[1057,623,2033,1116],"next_num":4,"trial_type":"ticket-choose","trial_index":40,"time_elapsed":945461,"internal_node_id":"0.0-40.0"},{"result":167,"points":2,"place":1,"phase":0,"sequence":21,"prices":[175,187,178,209,179,187,167,169,208,153],"times":[3533,458,505,699,530,566,3257],"next_num":7,"trial_type":"ticket-choose","trial_index":41,"time_elapsed":958445,"internal_node_id":"0.0-41.0"},{"result":143,"points":3,"place":0,"phase":0,"sequence":22,"prices":[222,173,202,197,143,205,198,183,178,186],"times":[1386,700,960,572,1344],"next_num":5,"trial_type":"ticket-choose","trial_index":42,"time_elapsed":966581,"internal_node_id":"0.0-42.0"},{"result":153,"points":3,"place":0,"phase":0,"sequence":23,"prices":[175,186,178,212,179,187,167,169,209,153],"times":[1118,588,2108,1003,529,567,679,1624,970,770],"next_num":10,"trial_type":"ticket-choose","trial_index":43,"time_elapsed":980493,"internal_node_id":"0.0-43.0"},{"result":184,"points":1,"place":4,"phase":0,"sequence":24,"prices":[161,193,175,181,185,224,180,199,218,184],"times":[4522,548,699,712,883,589,860,968,987,949],"next_num":10,"trial_type":"ticket-choose","trial_index":44,"time_elapsed":995949,"internal_node_id":"0.0-44.0"},{"result":152,"points":3,"place":0,"phase":0,"sequence":25,"prices":[200,181,203,152,175,171,160,154,176,191],"times":[1762,624,1076,1064],"next_num":4,"trial_type":"ticket-choose","trial_index":45,"time_elapsed":1003076,"internal_node_id":"0.0-45.0"},{"result":159,"points":1,"place":2,"phase":0,"sequence":26,"prices":[180,159,149,175,185,141,163,174,178,207],"times":[7715,1446],"next_num":2,"trial_type":"ticket-choose","trial_index":46,"time_elapsed":1016134,"internal_node_id":"0.0-46.0"},{"result":158,"points":2,"place":1,"phase":0,"sequence":27,"prices":[175,186,158,211,180,187,177,166,209,153],"times":[1123,496,1467],"next_num":3,"trial_type":"ticket-choose","trial_index":47,"time_elapsed":1022388,"internal_node_id":"0.0-47.0"},{"result":158,"points":2,"place":1,"phase":0,"sequence":28,"prices":[175,186,177,221,180,187,158,166,209,153],"times":[852,622,693,571,575,1108,947],"next_num":7,"trial_type":"ticket-choose","trial_index":48,"time_elapsed":1031213,"internal_node_id":"0.0-48.0"},{"result":158,"points":2,"place":1,"phase":0,"sequence":29,"prices":[175,186,177,209,181,188,158,167,208,154],"times":[1312,783,860,738,614,559,1132],"next_num":7,"trial_type":"ticket-choose","trial_index":49,"time_elapsed":1040372,"internal_node_id":"0.0-49.0"},{"result":158,"points":2,"place":1,"phase":0,"sequence":30,"prices":[176,187,158,210,181,187,177,165,208,153],"times":[1115,1634,1103],"next_num":3,"trial_type":"ticket-choose","trial_index":50,"time_elapsed":1046973,"internal_node_id":"0.0-50.0"},{"result":159,"points":3,"place":0,"phase":0,"sequence":31,"prices":[159,183,166,168,173,205,167,187,191,170],"times":[2523],"next_num":1,"trial_type":"ticket-choose","trial_index":51,"time_elapsed":1051717,"internal_node_id":"0.0-51.0"},{"result":156,"points":3,"place":0,"phase":0,"sequence":32,"prices":[156,201,162,166,185,214,165,202,204,179],"times":[2876],"next_num":1,"trial_type":"ticket-choose","trial_index":52,"time_elapsed":1057005,"internal_node_id":"0.0-52.0"},{"result":166,"points":1,"place":2,"phase":0,"sequence":33,"prices":[176,186,163,214,179,187,176,166,153,208],"times":[1283,490,667,641,642,611,938,1024],"next_num":8,"trial_type":"ticket-choose","trial_index":53,"time_elapsed":1067029,"internal_node_id":"0.0-53.0"},{"result":158,"points":2,"place":1,"phase":0,"sequence":34,"prices":[176,185,158,217,180,186,177,166,209,154],"times":[1723,1762,1021],"next_num":3,"trial_type":"ticket-choose","trial_index":54,"time_elapsed":1073925,"internal_node_id":"0.0-54.0"},{"result":163,"points":2,"place":1,"phase":0,"sequence":35,"prices":[175,187,176,209,180,188,163,165,154,208],"times":[4069,1245,564,671,889,981,937],"next_num":7,"trial_type":"ticket-choose","trial_index":55,"time_elapsed":1086861,"internal_node_id":"0.0-55.0"},{"result":153,"points":3,"place":0,"phase":0,"sequence":36,"prices":[174,186,163,212,181,187,176,166,153,209],"times":[1329,568,1094,617,797,630,977,1902,1099],"next_num":9,"trial_type":"ticket-choose","trial_index":56,"time_elapsed":1099613,"internal_node_id":"0.0-56.0"},{"result":157,"points":3,"place":0,"phase":0,"sequence":37,"prices":[201,187,157,184,198,179,188,185,178,170],"times":[1747,562,1099],"next_num":3,"trial_type":"ticket-choose","trial_index":57,"time_elapsed":1105678,"internal_node_id":"0.0-57.0"},{"result":185,"points":1,"place":4,"phase":0,"sequence":38,"prices":[169,196,170,184,187,211,171,201,202,185],"times":[4298,536,562,1401,494,690,650,980,864,979],"next_num":10,"trial_type":"ticket-choose","trial_index":58,"time_elapsed":1121166,"internal_node_id":"0.0-58.0"},{"result":163,"points":2,"place":1,"phase":0,"sequence":39,"prices":[174,186,176,217,181,187,163,166,153,209],"times":[1166,485,1718,680,777,1564,994],"next_num":7,"trial_type":"ticket-choose","trial_index":59,"time_elapsed":1131742,"internal_node_id":"0.0-59.0"},{"result":169,"points":1,"place":2,"phase":0,"sequence":40,"prices":[175,186,167,225,179,187,178,169,209,153],"times":[1116,500,456,565,567,1012,841,963],"next_num":8,"trial_type":"ticket-choose","trial_index":60,"time_elapsed":1141358,"internal_node_id":"0.0-60.0"},{"result":154,"points":3,"place":0,"phase":0,"sequence":41,"prices":[175,187,163,209,180,188,176,165,154,208],"times":[2732,498,2205,477,477,523,574,1543,1004],"next_num":9,"trial_type":"ticket-choose","trial_index":61,"time_elapsed":1155129,"internal_node_id":"0.0-61.0"},{"result":154,"points":2,"place":1,"phase":0,"sequence":42,"prices":[168,154,172,185,195,144,184,211,177,227],"times":[1351,1175],"next_num":2,"trial_type":"ticket-choose","trial_index":62,"time_elapsed":1160198,"internal_node_id":"0.0-62.0"},{"result":150,"points":3,"place":0,"phase":0,"sequence":43,"prices":[189,150,175,160,188,207,158,194,178,199],"times":[1120,1250],"next_num":2,"trial_type":"ticket-choose","trial_index":63,"time_elapsed":1165398,"internal_node_id":"0.0-63.0"},{"result":148,"points":3,"place":0,"phase":0,"sequence":44,"prices":[148,171,150,163,167,220,162,186,187,165],"times":[1856],"next_num":1,"trial_type":"ticket-choose","trial_index":64,"time_elapsed":1169526,"internal_node_id":"0.0-64.0"},{"result":155,"points":2,"place":1,"phase":0,"sequence":45,"prices":[201,207,155,158,156,165,167,135,178,177],"times":[1119,585,1403],"next_num":3,"trial_type":"ticket-choose","trial_index":65,"time_elapsed":1175325,"internal_node_id":"0.0-65.0"},{"result":153,"points":3,"place":0,"phase":0,"sequence":46,"prices":[175,187,167,212,179,187,178,169,208,153],"times":[1901,789,665,560,478,914,844,2233,564,769],"next_num":10,"trial_type":"ticket-choose","trial_index":66,"time_elapsed":1189910,"internal_node_id":"0.0-66.0"},{"result":167,"points":2,"place":1,"phase":0,"sequence":47,"prices":[212,192,188,184,167,193,189,164,176,170],"times":[875,1378,909,616,1016],"next_num":5,"trial_type":"ticket-choose","trial_index":67,"time_elapsed":1197565,"internal_node_id":"0.0-67.0"},{"result":188,"points":1,"place":4,"phase":0,"sequence":48,"prices":[161,193,167,187,190,224,174,194,195,188],"times":[2477,481,894,522,623,1059,725,1056,1111,993],"next_num":10,"trial_type":"ticket-choose","trial_index":68,"time_elapsed":1211958,"internal_node_id":"0.0-68.0"},{"result":150,"points":3,"place":0,"phase":0,"sequence":49,"prices":[150,185,154,161,173,199,155,188,191,168],"times":[1557],"next_num":1,"trial_type":"ticket-choose","trial_index":69,"time_elapsed":1216037,"internal_node_id":"0.0-69.0"},{"responses":[{"value":0,"offby":0,"category":"$106 - $134","category_index":0},{"value":0,"offby":-1,"category":"$135 - $150","category_index":1},{"value":2,"offby":-1,"category":"$151 - $165","category_index":2},{"value":6,"offby":0,"category":"$166 - $180","category_index":3},{"value":6,"offby":0,"category":"$181 - $195","category_index":4},{"value":4,"offby":1,"category":"$196 - $210","category_index":5},{"value":2,"offby":1,"category":"$211 - $225","category_index":6}],"phase":0,"number":1,"trial_type":"bar-choose","trial_index":70,"time_elapsed":1284743,"internal_node_id":"0.0-70.0"},{"rt":11975,"url":"\/tickets\/utils\/start2.html","trial_type":"html","trial_index":71,"time_elapsed":1297901,"internal_node_id":"0.0-71.0"},{"trial_type":"number-animation","trial_index":72,"time_elapsed":1312396,"internal_node_id":"0.0-72.0"},{"phase":1,"sequence":0,"avg":182,"response":170,"trial_type":"training_avg","trial_index":73,"time_elapsed":1327318,"internal_node_id":"0.0-73.0"},{"trial_type":"number-animation","trial_index":74,"time_elapsed":1338163,"internal_node_id":"0.0-74.0"},{"phase":1,"sequence":1,"avg":188,"response":188,"trial_type":"training_avg","trial_index":75,"time_elapsed":1347495,"internal_node_id":"0.0-75.0"},{"trial_type":"number-animation","trial_index":76,"time_elapsed":1357012,"internal_node_id":"0.0-76.0"},{"phase":1,"sequence":2,"avg":176,"response":170,"trial_type":"training_avg","trial_index":77,"time_elapsed":1365566,"internal_node_id":"0.0-77.0"},{"trial_type":"number-animation","trial_index":78,"time_elapsed":1374555,"internal_node_id":"0.0-78.0"},{"phase":1,"sequence":3,"avg":180,"response":168,"trial_type":"training_avg","trial_index":79,"time_elapsed":1382318,"internal_node_id":"0.0-79.0"},{"trial_type":"number-animation","trial_index":80,"time_elapsed":1390661,"internal_node_id":"0.0-80.0"},{"phase":1,"sequence":4,"avg":174,"response":175,"trial_type":"training_avg","trial_index":81,"time_elapsed":1397913,"internal_node_id":"0.0-81.0"},{"responses":[{"value":0,"offby":-1,"category":"$90 - $120","category_index":0},{"value":2,"offby":-1,"category":"$121 - $145","category_index":1},{"value":6,"offby":3,"category":"$146 - $170","category_index":2},{"value":8,"offby":2,"category":"$171 - $195","category_index":3},{"value":3,"offby":-1,"category":"$196 - $220","category_index":4},{"value":1,"offby":-1,"category":"$221 - $245","category_index":5},{"value":0,"offby":-1,"category":"$246 - $270","category_index":6}],"phase":1,"number":0,"trial_type":"bar-choose","trial_index":82,"time_elapsed":1470273,"internal_node_id":"0.0-82.0"},{"rt":20486,"url":"\/tickets\/utils\/testing2.html","trial_type":"html","trial_index":83,"time_elapsed":1492751,"internal_node_id":"0.0-83.0"},{"phase":1,"order":[42,8,27,22,46,49,19,45,41,11,12,37,48,40,4,26,0,7,43,38,2,5,47,10,17,33,30,31,20,3,28,18,21,34,15,35,32,1,9,23,44,6,36,16,24,39,14,25,13,29],"trial_type":"store_order","trial_index":84,"time_elapsed":1493753,"internal_node_id":"0.0-84.0"},{"result":105,"points":3,"place":0,"phase":1,"sequence":0,"prices":[263,165,224,214,105,230,215,185,177,193],"times":[5600,3097,696,528,1279],"next_num":5,"trial_type":"ticket-choose","trial_index":85,"time_elapsed":1508270,"internal_node_id":"0.0-85.0"},{"result":154,"points":2,"place":1,"phase":1,"sequence":1,"prices":[168,192,154,237,182,196,176,156,235,133],"times":[29014,459,893],"next_num":3,"trial_type":"ticket-choose","trial_index":86,"time_elapsed":1540927,"internal_node_id":"0.0-86.0"},{"result":192,"points":1,"place":4,"phase":1,"sequence":2,"prices":[157,205,161,175,197,254,165,210,214,192],"times":[2095,487,765,506,496,742,1330,940,984,905],"next_num":10,"trial_type":"ticket-choose","trial_index":87,"time_elapsed":1553950,"internal_node_id":"0.0-87.0"},{"result":136,"points":2,"place":1,"phase":1,"sequence":3,"prices":[172,194,174,243,182,193,136,150,237,126],"times":[1316,576,472,659,647,570,879],"next_num":7,"trial_type":"ticket-choose","trial_index":88,"time_elapsed":1562390,"internal_node_id":"0.0-88.0"},{"result":136,"points":3,"place":0,"phase":1,"sequence":4,"prices":[240,188,273,207,250,136,217,170,171,236],"times":[2338,2698,503,796,521,1079],"next_num":6,"trial_type":"ticket-choose","trial_index":89,"time_elapsed":1573742,"internal_node_id":"0.0-89.0"},{"result":146,"points":1,"place":2,"phase":1,"sequence":5,"prices":[186,146,191,179,152,116,140,201,172,187],"times":[926,1100],"next_num":2,"trial_type":"ticket-choose","trial_index":90,"time_elapsed":1577774,"internal_node_id":"0.0-90.0"},{"result":136,"points":2,"place":1,"phase":1,"sequence":6,"prices":[172,190,136,270,179,192,174,152,237,129],"times":[907,1057,1115],"next_num":3,"trial_type":"ticket-choose","trial_index":91,"time_elapsed":1583142,"internal_node_id":"0.0-91.0"},{"result":154,"points":2,"place":1,"phase":1,"sequence":7,"prices":[244,203,196,189,154,206,197,149,171,159],"times":[735,959,592,472,1157],"next_num":5,"trial_type":"ticket-choose","trial_index":92,"time_elapsed":1589686,"internal_node_id":"0.0-92.0"},{"result":131,"points":2,"place":1,"phase":1,"sequence":8,"prices":[221,234,131,136,132,149,154,90,176,173],"times":[5793,518,998],"next_num":3,"trial_type":"ticket-choose","trial_index":93,"time_elapsed":1599184,"internal_node_id":"0.0-93.0"},{"result":154,"points":2,"place":1,"phase":1,"sequence":9,"prices":[169,194,154,271,178,201,176,158,236,127],"times":[2236,474,1311],"next_num":3,"trial_type":"ticket-choose","trial_index":94,"time_elapsed":1605943,"internal_node_id":"0.0-94.0"},{"result":154,"points":2,"place":1,"phase":1,"sequence":10,"prices":[168,192,176,242,183,197,154,156,237,132],"times":[4227,490,414,517,501,520,785],"next_num":7,"trial_type":"ticket-choose","trial_index":95,"time_elapsed":1616361,"internal_node_id":"0.0-95.0"},{"result":145,"points":2,"place":1,"phase":1,"sequence":11,"prices":[216,206,158,145,224,185,124,149,175,162],"times":[872,486,436,978],"next_num":4,"trial_type":"ticket-choose","trial_index":96,"time_elapsed":1621473,"internal_node_id":"0.0-96.0"},{"result":159,"points":2,"place":1,"phase":1,"sequence":12,"prices":[182,249,159,114,184,205,175,189,172,178],"times":[1980,434,1028],"next_num":3,"trial_type":"ticket-choose","trial_index":97,"time_elapsed":1627055,"internal_node_id":"0.0-97.0"},{"result":119,"points":3,"place":0,"phase":1,"sequence":13,"prices":[198,119,169,141,195,233,136,208,177,217],"times":[946,1022],"next_num":2,"trial_type":"ticket-choose","trial_index":98,"time_elapsed":1630990,"internal_node_id":"0.0-98.0"},{"result":179,"points":0,"place":5,"phase":1,"sequence":14,"prices":[172,191,176,272,179,194,146,152,126,235],"times":[915,540,700,521,961],"next_num":5,"trial_type":"ticket-choose","trial_index":99,"time_elapsed":1637143,"internal_node_id":"0.0-99.0"},{"result":124,"points":3,"place":0,"phase":1,"sequence":15,"prices":[124,220,136,165,185,234,143,225,228,179],"times":[1346],"next_num":1,"trial_type":"ticket-choose","trial_index":100,"time_elapsed":1640201,"internal_node_id":"0.0-100.0"},{"result":146,"points":2,"place":1,"phase":1,"sequence":16,"prices":[173,191,146,242,178,194,172,152,126,235],"times":[837,1540,903],"next_num":3,"trial_type":"ticket-choose","trial_index":101,"time_elapsed":1645655,"internal_node_id":"0.0-101.0"},{"result":146,"points":2,"place":1,"phase":1,"sequence":17,"prices":[171,191,172,268,179,194,146,150,127,239],"times":[813,476,585,646,1176,507,989],"next_num":7,"trial_type":"ticket-choose","trial_index":102,"time_elapsed":1653959,"internal_node_id":"0.0-102.0"},{"result":135,"points":3,"place":0,"phase":1,"sequence":18,"prices":[221,193,135,188,217,179,196,190,175,159],"times":[906,625,922],"next_num":3,"trial_type":"ticket-choose","trial_index":103,"time_elapsed":1658623,"internal_node_id":"0.0-103.0"},{"result":156,"points":1,"place":2,"phase":1,"sequence":19,"prices":[156,218,212,216,191,210,275,146,174,152],"times":[2797],"next_num":1,"trial_type":"ticket-choose","trial_index":104,"time_elapsed":1663150,"internal_node_id":"0.0-104.0"},{"result":146,"points":2,"place":1,"phase":1,"sequence":20,"prices":[168,191,146,252,183,193,172,153,126,238],"times":[838,551,1388],"next_num":3,"trial_type":"ticket-choose","trial_index":105,"time_elapsed":1668111,"internal_node_id":"0.0-105.0"},{"result":146,"points":2,"place":1,"phase":1,"sequence":21,"prices":[171,195,172,242,179,196,146,150,128,235],"times":[3625,814,1093,580,518,681,819],"next_num":7,"trial_type":"ticket-choose","trial_index":106,"time_elapsed":1679201,"internal_node_id":"0.0-106.0"},{"result":124,"points":3,"place":0,"phase":1,"sequence":22,"prices":[219,183,227,124,176,161,140,129,171,201],"times":[1394,571,510,929],"next_num":4,"trial_type":"ticket-choose","trial_index":107,"time_elapsed":1684927,"internal_node_id":"0.0-107.0"},{"result":154,"points":2,"place":1,"phase":1,"sequence":23,"prices":[169,193,154,255,178,194,176,158,239,126],"times":[896,6740,1141],"next_num":3,"trial_type":"ticket-choose","trial_index":108,"time_elapsed":1695873,"internal_node_id":"0.0-108.0"},{"result":136,"points":2,"place":1,"phase":1,"sequence":24,"prices":[171,192,136,243,182,195,174,154,236,128],"times":[959,647,1165],"next_num":3,"trial_type":"ticket-choose","trial_index":109,"time_elapsed":1700918,"internal_node_id":"0.0-109.0"},{"result":137,"points":3,"place":0,"phase":1,"sequence":25,"prices":[137,187,152,156,166,231,155,194,202,160],"times":[969],"next_num":1,"trial_type":"ticket-choose","trial_index":110,"time_elapsed":1703775,"internal_node_id":"0.0-110.0"},{"result":135,"points":3,"place":0,"phase":1,"sequence":26,"prices":[135,202,150,169,183,225,160,211,220,172],"times":[1093],"next_num":1,"trial_type":"ticket-choose","trial_index":111,"time_elapsed":1706663,"internal_node_id":"0.0-111.0"},{"result":117,"points":3,"place":0,"phase":1,"sequence":27,"prices":[117,161,120,147,153,259,144,191,195,149],"times":[1202],"next_num":1,"trial_type":"ticket-choose","trial_index":112,"time_elapsed":1709631,"internal_node_id":"0.0-112.0"},{"result":136,"points":2,"place":1,"phase":1,"sequence":28,"prices":[169,192,174,246,180,195,136,152,238,126],"times":[1456,529,431,513,451,520,1186],"next_num":7,"trial_type":"ticket-choose","trial_index":113,"time_elapsed":1717791,"internal_node_id":"0.0-113.0"},{"result":146,"points":2,"place":1,"phase":1,"sequence":29,"prices":[170,193,146,268,178,195,172,149,126,241],"times":[1976,521,1146],"next_num":3,"trial_type":"ticket-choose","trial_index":114,"time_elapsed":1723566,"internal_node_id":"0.0-114.0"},{"result":157,"points":3,"place":0,"phase":1,"sequence":30,"prices":[157,213,159,187,194,242,161,222,225,189],"times":[1278],"next_num":1,"trial_type":"ticket-choose","trial_index":115,"time_elapsed":1726598,"internal_node_id":"0.0-115.0"},{"result":136,"points":2,"place":1,"phase":1,"sequence":31,"prices":[173,194,136,239,182,200,174,150,236,127],"times":[751,429,968],"next_num":3,"trial_type":"ticket-choose","trial_index":116,"time_elapsed":1730790,"internal_node_id":"0.0-116.0"},{"result":136,"points":2,"place":1,"phase":1,"sequence":32,"prices":[170,192,174,242,181,196,136,153,236,128],"times":[1057,480,476,573,470,480,747],"next_num":7,"trial_type":"ticket-choose","trial_index":117,"time_elapsed":1737935,"internal_node_id":"0.0-117.0"},{"result":130,"points":2,"place":1,"phase":1,"sequence":33,"prices":[181,130,116,142,157,193,165,218,173,207],"times":[654,793],"next_num":2,"trial_type":"ticket-choose","trial_index":118,"time_elapsed":1741294,"internal_node_id":"0.0-118.0"},{"result":154,"points":2,"place":1,"phase":1,"sequence":34,"prices":[170,193,176,245,178,194,154,159,236,126],"times":[761,440,499,514,472,497,881],"next_num":7,"trial_type":"ticket-choose","trial_index":119,"time_elapsed":1748208,"internal_node_id":"0.0-119.0"},{"result":155,"points":1,"place":2,"phase":1,"sequence":35,"prices":[155,129,164,189,210,108,187,241,174,275],"times":[1012],"next_num":1,"trial_type":"ticket-choose","trial_index":120,"time_elapsed":1750806,"internal_node_id":"0.0-120.0"},{"result":143,"points":3,"place":0,"phase":1,"sequence":36,"prices":[143,206,153,194,201,267,168,208,210,196],"times":[1144],"next_num":1,"trial_type":"ticket-choose","trial_index":121,"time_elapsed":1753918,"internal_node_id":"0.0-121.0"},{"result":146,"points":2,"place":1,"phase":1,"sequence":37,"prices":[169,193,146,237,180,196,172,150,129,236],"times":[928,551,888],"next_num":3,"trial_type":"ticket-choose","trial_index":122,"time_elapsed":1758294,"internal_node_id":"0.0-122.0"},{"result":154,"points":2,"place":1,"phase":1,"sequence":38,"prices":[169,191,154,268,183,197,176,155,236,133],"times":[1551,528,904],"next_num":3,"trial_type":"ticket-choose","trial_index":123,"time_elapsed":1763438,"internal_node_id":"0.0-123.0"},{"result":136,"points":2,"place":1,"phase":1,"sequence":39,"prices":[173,191,174,270,180,193,136,153,239,129],"times":[2592,708,501,729,538,470,857],"next_num":7,"trial_type":"ticket-choose","trial_index":124,"time_elapsed":1772736,"internal_node_id":"0.0-124.0"},{"result":118,"points":2,"place":1,"phase":1,"sequence":40,"prices":[181,138,118,170,190,101,146,169,175,233],"times":[3543,429,910],"next_num":3,"trial_type":"ticket-choose","trial_index":125,"time_elapsed":1780303,"internal_node_id":"0.0-125.0"},{"result":146,"points":2,"place":1,"phase":1,"sequence":41,"prices":[168,191,172,240,183,193,146,151,125,238],"times":[784,676,647,583,485,534,871],"next_num":7,"trial_type":"ticket-choose","trial_index":126,"time_elapsed":1788049,"internal_node_id":"0.0-126.0"},{"result":149,"points":2,"place":1,"phase":1,"sequence":42,"prices":[196,221,149,164,216,167,175,128,176,181],"times":[782,457,919],"next_num":3,"trial_type":"ticket-choose","trial_index":127,"time_elapsed":1792368,"internal_node_id":"0.0-127.0"},{"result":136,"points":2,"place":1,"phase":1,"sequence":43,"prices":[171,192,136,265,180,194,174,152,239,127],"times":[785,507,928],"next_num":3,"trial_type":"ticket-choose","trial_index":128,"time_elapsed":1796783,"internal_node_id":"0.0-128.0"},{"result":142,"points":3,"place":0,"phase":1,"sequence":44,"prices":[142,207,171,182,190,269,180,218,256,188],"times":[1130],"next_num":1,"trial_type":"ticket-choose","trial_index":129,"time_elapsed":1800680,"internal_node_id":"0.0-129.0"},{"result":153,"points":2,"place":1,"phase":1,"sequence":45,"prices":[197,153,181,215,150,155,164,247,177,162],"times":[2041,975],"next_num":2,"trial_type":"ticket-choose","trial_index":130,"time_elapsed":1805695,"internal_node_id":"0.0-130.0"},{"result":154,"points":2,"place":1,"phase":1,"sequence":46,"prices":[169,192,176,244,178,194,154,159,237,125],"times":[964,494,685,563,744,509,805],"next_num":7,"trial_type":"ticket-choose","trial_index":131,"time_elapsed":1813586,"internal_node_id":"0.0-131.0"},{"result":132,"points":3,"place":0,"phase":1,"sequence":47,"prices":[132,222,144,153,190,248,151,224,228,179],"times":[1136],"next_num":1,"trial_type":"ticket-choose","trial_index":132,"time_elapsed":1816455,"internal_node_id":"0.0-132.0"},{"result":154,"points":2,"place":1,"phase":1,"sequence":48,"prices":[170,190,176,251,183,192,154,157,236,131],"times":[927,450,532,577,536,513,865],"next_num":7,"trial_type":"ticket-choose","trial_index":133,"time_elapsed":1823967,"internal_node_id":"0.0-133.0"},{"result":121,"points":3,"place":0,"phase":1,"sequence":49,"prices":[121,191,128,141,166,217,129,196,202,157],"times":[1186],"next_num":1,"trial_type":"ticket-choose","trial_index":134,"time_elapsed":1826983,"internal_node_id":"0.0-134.0"},{"responses":[{"value":0,"offby":-1,"category":"$90 - $120","category_index":0},{"value":2,"offby":-1,"category":"$121 - $145","category_index":1},{"value":4,"offby":1,"category":"$146 - $170","category_index":2},{"value":5,"offby":-1,"category":"$171 - $195","category_index":3},{"value":4,"offby":0,"category":"$196 - $220","category_index":4},{"value":3,"offby":1,"category":"$221 - $245","category_index":5},{"value":2,"offby":1,"category":"$246 - $270","category_index":6}],"phase":1,"number":1,"trial_type":"bar-choose","trial_index":135,"time_elapsed":1863378,"internal_node_id":"0.0-135.0"},{"special_comment":"No","trial_type":"special_sequence","trial_index":136,"time_elapsed":1869023,"internal_node_id":"0.0-136.0"},{"during":"Nothing","bonus":300,"trial_type":"final","trial_index":137,"time_elapsed":1896801,"internal_node_id":"0.0-137.0"}],"bonus":300}