{"start_time":"2017-02-21 11:23:37","end_time":"2017-02-21 11:47:00","points_phase0":112,"points_phase1":98,"phase_order":0,"age":21,"gender":"m","tries":1,"during":"Nothing","worker_id":"AK7NIT4IJ8X6D","assignment_id":"3YZ8UPK3VUFTIWH4CNKVIX60662CU8","data":[{"rt":16145,"url":"\/tickets\/utils\/consent.html","trial_type":"html","trial_index":0,"time_elapsed":16324,"internal_node_id":"0.0-0.0"},{"age":21,"gender":"m","trial_type":"age","trial_index":1,"time_elapsed":341901,"internal_node_id":"0.0-1.0"},{"worker_id":"AK7NIT4IJ8X6D","trial_type":"workerid","trial_index":2,"time_elapsed":350969,"internal_node_id":"0.0-2.0"},{"tries":1,"trial_type":"instructions_check","trial_index":3,"time_elapsed":368161,"internal_node_id":"0.0-3.0"},{"rt":7579,"url":"\/tickets\/utils\/start.html","trial_type":"html","trial_index":4,"time_elapsed":376887,"internal_node_id":"0.0-4.0"},{"trial_type":"number-animation","trial_index":5,"time_elapsed":395135,"internal_node_id":"0.0-5.0"},{"phase":0,"sequence":0,"avg":181,"response":170,"trial_type":"training_avg","trial_index":6,"time_elapsed":403510,"internal_node_id":"0.0-6.0"},{"trial_type":"number-animation","trial_index":7,"time_elapsed":417631,"internal_node_id":"0.0-7.0"},{"phase":0,"sequence":1,"avg":188,"response":195,"trial_type":"training_avg","trial_index":8,"time_elapsed":424478,"internal_node_id":"0.0-8.0"},{"trial_type":"number-animation","trial_index":9,"time_elapsed":438393,"internal_node_id":"0.0-9.0"},{"phase":0,"sequence":2,"avg":188,"response":185,"trial_type":"training_avg","trial_index":10,"time_elapsed":443734,"internal_node_id":"0.0-10.0"},{"trial_type":"number-animation","trial_index":11,"time_elapsed":464556,"internal_node_id":"0.0-11.0"},{"phase":0,"sequence":3,"avg":177,"response":175,"trial_type":"training_avg","trial_index":12,"time_elapsed":469637,"internal_node_id":"0.0-12.0"},{"trial_type":"number-animation","trial_index":13,"time_elapsed":481448,"internal_node_id":"0.0-13.0"},{"phase":0,"sequence":4,"avg":182,"response":175,"trial_type":"training_avg","trial_index":14,"time_elapsed":487372,"internal_node_id":"0.0-14.0"},{"responses":[{"value":0,"offby":0,"category":"$106 - $134","category_index":0},{"value":1,"offby":0,"category":"$135 - $150","category_index":1},{"value":4,"offby":1,"category":"$151 - $165","category_index":2},{"value":10,"offby":4,"category":"$166 - $180","category_index":3},{"value":4,"offby":-2,"category":"$181 - $195","category_index":4},{"value":1,"offby":-2,"category":"$196 - $210","category_index":5},{"value":0,"offby":-1,"category":"$211 - $225","category_index":6}],"phase":0,"number":0,"trial_type":"bar-choose","trial_index":15,"time_elapsed":576744,"internal_node_id":"0.0-15.0"},{"rt":32996,"url":"\/tickets\/\/utils\/testing.html","trial_type":"html","trial_index":16,"time_elapsed":610900,"internal_node_id":"0.0-16.0"},{"phase":0,"order":[35,27,36,46,37,6,38,42,10,39,9,26,4,2,0,19,3,22,14,49,25,5,47,21,44,15,48,45,8,12,34,20,43,17,1,13,31,40,32,18,28,30,23,11,41,29,16,7,33,24],"trial_type":"store_order","trial_index":17,"time_elapsed":611902,"internal_node_id":"0.0-17.0"},{"result":126,"points":3,"place":0,"phase":0,"sequence":-1,"prices":[184,180,224,165,181,199,185,193,218,126],"times":[2157,916,637,1339,638,962,868,789,756,1517],"next_num":10,"trial_type":"ticket-choose","trial_index":18,"time_elapsed":626646,"internal_node_id":"0.0-18.0"},{"rt":24778,"url":"\/tickets\/utils\/testing_after.html","trial_type":"html","trial_index":19,"time_elapsed":652590,"internal_node_id":"0.0-19.0"},{"result":154,"points":2,"place":1,"phase":0,"sequence":0,"prices":[168,154,172,185,195,144,184,211,177,227],"times":[1958,2765],"next_num":2,"trial_type":"ticket-choose","trial_index":20,"time_elapsed":660628,"internal_node_id":"0.0-20.0"},{"result":186,"points":1,"place":4,"phase":0,"sequence":1,"prices":[168,192,171,178,188,217,172,195,197,186],"times":[1125,644,556,604,547,603,1060,700,573,1150],"next_num":10,"trial_type":"ticket-choose","trial_index":21,"time_elapsed":672572,"internal_node_id":"0.0-21.0"},{"result":154,"points":3,"place":0,"phase":0,"sequence":2,"prices":[188,200,165,172,198,174,177,154,177,180],"times":[1496,639,1002,588,560,1427,650,1116],"next_num":8,"trial_type":"ticket-choose","trial_index":22,"time_elapsed":683805,"internal_node_id":"0.0-22.0"},{"result":158,"points":3,"place":0,"phase":0,"sequence":3,"prices":[210,184,226,193,215,158,199,175,176,208],"times":[1119,1035,533,556,548,953],"next_num":6,"trial_type":"ticket-choose","trial_index":23,"time_elapsed":691508,"internal_node_id":"0.0-23.0"},{"result":169,"points":1,"place":3,"phase":0,"sequence":4,"prices":[198,193,169,163,202,182,152,164,177,171],"times":[1029,615,786],"next_num":3,"trial_type":"ticket-choose","trial_index":24,"time_elapsed":696440,"internal_node_id":"0.0-24.0"},{"result":163,"points":2,"place":1,"phase":0,"sequence":5,"prices":[174,186,176,217,181,187,163,166,153,209],"times":[1288,463,825,493,666,531,933],"next_num":7,"trial_type":"ticket-choose","trial_index":25,"time_elapsed":704789,"internal_node_id":"0.0-25.0"},{"result":163,"points":3,"place":0,"phase":0,"sequence":6,"prices":[168,199,196,198,185,195,227,163,177,166],"times":[2875,506,387,436,459,612,579,1022],"next_num":8,"trial_type":"ticket-choose","trial_index":26,"time_elapsed":715037,"internal_node_id":"0.0-26.0"},{"result":143,"points":3,"place":0,"phase":0,"sequence":7,"prices":[222,173,202,197,143,205,198,183,178,186],"times":[3833,1260,528,511,853],"next_num":5,"trial_type":"ticket-choose","trial_index":27,"time_elapsed":724741,"internal_node_id":"0.0-27.0"},{"result":167,"points":2,"place":1,"phase":0,"sequence":8,"prices":[175,186,167,225,179,187,178,169,209,153],"times":[8954,558,819],"next_num":3,"trial_type":"ticket-choose","trial_index":28,"time_elapsed":737324,"internal_node_id":"0.0-28.0"},{"result":167,"points":2,"place":1,"phase":0,"sequence":9,"prices":[189,167,180,197,165,168,172,213,178,171],"times":[1547,2884],"next_num":2,"trial_type":"ticket-choose","trial_index":29,"time_elapsed":743837,"internal_node_id":"0.0-29.0"},{"result":167,"points":2,"place":1,"phase":0,"sequence":10,"prices":[175,185,167,224,181,186,178,168,208,156],"times":[912,516,1277],"next_num":3,"trial_type":"ticket-choose","trial_index":30,"time_elapsed":748780,"internal_node_id":"0.0-30.0"},{"result":152,"points":3,"place":0,"phase":0,"sequence":11,"prices":[152,200,158,173,182,207,161,202,204,180],"times":[987],"next_num":1,"trial_type":"ticket-choose","trial_index":31,"time_elapsed":751692,"internal_node_id":"0.0-31.0"},{"result":163,"points":2,"place":1,"phase":0,"sequence":12,"prices":[176,186,176,210,179,187,163,166,153,208],"times":[717,524,700,563,571,585,1244],"next_num":7,"trial_type":"ticket-choose","trial_index":32,"time_elapsed":759699,"internal_node_id":"0.0-32.0"},{"result":163,"points":2,"place":1,"phase":0,"sequence":13,"prices":[174,186,163,212,181,187,176,166,153,209],"times":[2340,547,1902],"next_num":3,"trial_type":"ticket-choose","trial_index":33,"time_elapsed":766675,"internal_node_id":"0.0-33.0"},{"result":163,"points":2,"place":1,"phase":0,"sequence":14,"prices":[176,186,163,214,179,187,176,166,153,208],"times":[757,524,982],"next_num":3,"trial_type":"ticket-choose","trial_index":34,"time_elapsed":771147,"internal_node_id":"0.0-34.0"},{"result":158,"points":2,"place":1,"phase":0,"sequence":15,"prices":[176,185,158,217,180,186,177,166,209,154],"times":[1005,539,989],"next_num":3,"trial_type":"ticket-choose","trial_index":35,"time_elapsed":775835,"internal_node_id":"0.0-35.0"},{"result":165,"points":1,"place":2,"phase":0,"sequence":16,"prices":[175,186,163,211,179,187,176,165,153,210],"times":[647,553,2418,726,646,546,603,932],"next_num":8,"trial_type":"ticket-choose","trial_index":36,"time_elapsed":786277,"internal_node_id":"0.0-36.0"},{"result":158,"points":2,"place":1,"phase":0,"sequence":17,"prices":[176,187,177,225,181,187,158,165,208,153],"times":[739,521,481,563,675,569,933],"next_num":7,"trial_type":"ticket-choose","trial_index":37,"time_elapsed":793755,"internal_node_id":"0.0-37.0"},{"result":167,"points":2,"place":1,"phase":0,"sequence":18,"prices":[175,186,178,212,179,187,167,169,209,153],"times":[1774,545,603,570,613,585,886],"next_num":7,"trial_type":"ticket-choose","trial_index":38,"time_elapsed":802370,"internal_node_id":"0.0-38.0"},{"result":163,"points":1,"place":2,"phase":0,"sequence":19,"prices":[183,163,185,180,166,148,160,186,176,184],"times":[1814,1203],"next_num":2,"trial_type":"ticket-choose","trial_index":39,"time_elapsed":807387,"internal_node_id":"0.0-39.0"},{"result":156,"points":3,"place":0,"phase":0,"sequence":20,"prices":[156,201,162,166,185,214,165,202,204,179],"times":[1024],"next_num":1,"trial_type":"ticket-choose","trial_index":40,"time_elapsed":810219,"internal_node_id":"0.0-40.0"},{"result":163,"points":2,"place":1,"phase":0,"sequence":21,"prices":[175,187,176,209,180,188,163,165,154,208],"times":[769,499,619,564,603,644,853],"next_num":7,"trial_type":"ticket-choose","trial_index":41,"time_elapsed":817811,"internal_node_id":"0.0-41.0"},{"result":152,"points":3,"place":0,"phase":0,"sequence":22,"prices":[200,181,203,152,175,171,160,154,176,191],"times":[770,580,534,861],"next_num":4,"trial_type":"ticket-choose","trial_index":42,"time_elapsed":823060,"internal_node_id":"0.0-42.0"},{"result":158,"points":2,"place":1,"phase":0,"sequence":23,"prices":[175,186,177,209,181,188,158,167,208,154],"times":[1070,604,598,628,629,686,845],"next_num":7,"trial_type":"ticket-choose","trial_index":43,"time_elapsed":831133,"internal_node_id":"0.0-43.0"},{"result":149,"points":2,"place":1,"phase":0,"sequence":24,"prices":[180,159,149,175,185,141,163,174,178,207],"times":[1225,491,1196],"next_num":3,"trial_type":"ticket-choose","trial_index":44,"time_elapsed":836252,"internal_node_id":"0.0-44.0"},{"result":153,"points":3,"place":0,"phase":0,"sequence":25,"prices":[175,187,178,209,179,187,167,169,208,153],"times":[816,571,549,596,1140,493,491,461,667,931],"next_num":10,"trial_type":"ticket-choose","trial_index":45,"time_elapsed":846907,"internal_node_id":"0.0-45.0"},{"result":169,"points":2,"place":1,"phase":0,"sequence":26,"prices":[181,215,169,147,182,193,177,184,176,179],"times":[1027,571,813],"next_num":3,"trial_type":"ticket-choose","trial_index":46,"time_elapsed":851492,"internal_node_id":"0.0-46.0"},{"result":167,"points":2,"place":1,"phase":0,"sequence":27,"prices":[212,192,188,184,167,193,189,164,176,170],"times":[860,683,824,795,1004],"next_num":5,"trial_type":"ticket-choose","trial_index":47,"time_elapsed":858260,"internal_node_id":"0.0-47.0"},{"result":156,"points":3,"place":0,"phase":0,"sequence":28,"prices":[174,186,167,211,181,188,178,168,208,156],"times":[914,1148,1157,525,685,526,587,2901,526,1093],"next_num":10,"trial_type":"ticket-choose","trial_index":48,"time_elapsed":875116,"internal_node_id":"0.0-48.0"},{"result":167,"points":2,"place":1,"phase":0,"sequence":29,"prices":[174,186,178,217,181,188,167,168,208,156],"times":[1345,546,574,564,540,514,973],"next_num":7,"trial_type":"ticket-choose","trial_index":49,"time_elapsed":883243,"internal_node_id":"0.0-49.0"},{"result":155,"points":2,"place":1,"phase":0,"sequence":30,"prices":[181,155,148,161,168,187,172,199,176,194],"times":[1895,1021],"next_num":2,"trial_type":"ticket-choose","trial_index":50,"time_elapsed":888580,"internal_node_id":"0.0-50.0"},{"result":158,"points":2,"place":1,"phase":0,"sequence":31,"prices":[175,186,177,221,180,187,158,166,209,153],"times":[13192,590,627,526,561,515,860],"next_num":7,"trial_type":"ticket-choose","trial_index":51,"time_elapsed":909020,"internal_node_id":"0.0-51.0"},{"result":170,"points":2,"place":1,"phase":0,"sequence":32,"prices":[201,187,157,184,198,179,188,185,178,170],"times":[709,577,502,395,500,772,539,891,1236,838],"next_num":10,"trial_type":"ticket-choose","trial_index":52,"time_elapsed":919571,"internal_node_id":"0.0-52.0"},{"result":158,"points":2,"place":1,"phase":0,"sequence":33,"prices":[175,186,158,209,181,188,177,167,208,154],"times":[797,469,741],"next_num":3,"trial_type":"ticket-choose","trial_index":53,"time_elapsed":923675,"internal_node_id":"0.0-53.0"},{"result":163,"points":2,"place":1,"phase":0,"sequence":34,"prices":[175,187,163,209,180,188,176,165,154,208],"times":[915,595,957],"next_num":3,"trial_type":"ticket-choose","trial_index":54,"time_elapsed":928292,"internal_node_id":"0.0-54.0"},{"result":156,"points":3,"place":0,"phase":0,"sequence":35,"prices":[175,185,178,215,181,186,167,168,208,156],"times":[544,524,549,549,572,523,499,915,540,774],"next_num":10,"trial_type":"ticket-choose","trial_index":55,"time_elapsed":938628,"internal_node_id":"0.0-55.0"},{"result":148,"points":3,"place":0,"phase":0,"sequence":36,"prices":[148,171,150,163,167,220,162,186,187,165],"times":[932],"next_num":1,"trial_type":"ticket-choose","trial_index":56,"time_elapsed":941258,"internal_node_id":"0.0-56.0"},{"result":150,"points":3,"place":0,"phase":0,"sequence":37,"prices":[189,150,175,160,188,207,158,194,178,199],"times":[1096,805],"next_num":2,"trial_type":"ticket-choose","trial_index":57,"time_elapsed":945515,"internal_node_id":"0.0-57.0"},{"result":161,"points":3,"place":0,"phase":0,"sequence":38,"prices":[161,193,167,187,190,224,174,194,195,188],"times":[1540],"next_num":1,"trial_type":"ticket-choose","trial_index":58,"time_elapsed":948907,"internal_node_id":"0.0-58.0"},{"result":158,"points":2,"place":1,"phase":0,"sequence":39,"prices":[176,187,158,210,181,187,177,165,208,153],"times":[998,541,771],"next_num":3,"trial_type":"ticket-choose","trial_index":59,"time_elapsed":953395,"internal_node_id":"0.0-59.0"},{"result":185,"points":1,"place":4,"phase":0,"sequence":40,"prices":[169,196,170,184,187,211,171,201,202,185],"times":[1247,580,517,578,588,563,707,606,541,772],"next_num":10,"trial_type":"ticket-choose","trial_index":60,"time_elapsed":964130,"internal_node_id":"0.0-60.0"},{"result":157,"points":3,"place":0,"phase":0,"sequence":41,"prices":[157,191,165,175,182,203,170,195,200,176],"times":[1088],"next_num":1,"trial_type":"ticket-choose","trial_index":61,"time_elapsed":966939,"internal_node_id":"0.0-61.0"},{"result":158,"points":2,"place":1,"phase":0,"sequence":42,"prices":[176,185,177,218,180,186,158,166,209,154],"times":[1062,660,523,548,580,620,876],"next_num":7,"trial_type":"ticket-choose","trial_index":62,"time_elapsed":974858,"internal_node_id":"0.0-62.0"},{"result":167,"points":2,"place":1,"phase":0,"sequence":43,"prices":[175,187,167,212,179,187,178,169,208,153],"times":[730,532,1005],"next_num":3,"trial_type":"ticket-choose","trial_index":63,"time_elapsed":979355,"internal_node_id":"0.0-63.0"},{"result":155,"points":2,"place":1,"phase":0,"sequence":44,"prices":[201,207,155,158,156,165,167,135,178,177],"times":[940,476,780],"next_num":3,"trial_type":"ticket-choose","trial_index":64,"time_elapsed":983786,"internal_node_id":"0.0-64.0"},{"result":150,"points":3,"place":0,"phase":0,"sequence":45,"prices":[150,185,154,161,173,199,155,188,191,168],"times":[840],"next_num":1,"trial_type":"ticket-choose","trial_index":65,"time_elapsed":986452,"internal_node_id":"0.0-65.0"},{"result":158,"points":2,"place":1,"phase":0,"sequence":46,"prices":[175,186,158,211,180,187,177,166,209,153],"times":[1026,665,964],"next_num":3,"trial_type":"ticket-choose","trial_index":66,"time_elapsed":991274,"internal_node_id":"0.0-66.0"},{"result":163,"points":2,"place":1,"phase":0,"sequence":47,"prices":[175,186,176,224,179,187,163,165,153,210],"times":[829,1155,675,556,685,665,1484],"next_num":7,"trial_type":"ticket-choose","trial_index":67,"time_elapsed":1000739,"internal_node_id":"0.0-67.0"},{"result":159,"points":3,"place":0,"phase":0,"sequence":48,"prices":[159,183,166,168,173,205,167,187,191,170],"times":[1058],"next_num":1,"trial_type":"ticket-choose","trial_index":68,"time_elapsed":1003618,"internal_node_id":"0.0-68.0"},{"result":161,"points":3,"place":0,"phase":0,"sequence":49,"prices":[161,193,175,181,185,224,180,199,218,184],"times":[1290],"next_num":1,"trial_type":"ticket-choose","trial_index":69,"time_elapsed":1006842,"internal_node_id":"0.0-69.0"},{"responses":[{"value":0,"offby":0,"category":"$106 - $134","category_index":0},{"value":2,"offby":1,"category":"$135 - $150","category_index":1},{"value":4,"offby":1,"category":"$151 - $165","category_index":2},{"value":8,"offby":2,"category":"$166 - $180","category_index":3},{"value":6,"offby":0,"category":"$181 - $195","category_index":4},{"value":0,"offby":-3,"category":"$196 - $210","category_index":5},{"value":0,"offby":-1,"category":"$211 - $225","category_index":6}],"phase":0,"number":1,"trial_type":"bar-choose","trial_index":70,"time_elapsed":1033925,"internal_node_id":"0.0-70.0"},{"rt":3123,"url":"\/tickets\/utils\/start2.html","trial_type":"html","trial_index":71,"time_elapsed":1038210,"internal_node_id":"0.0-71.0"},{"trial_type":"number-animation","trial_index":72,"time_elapsed":1052401,"internal_node_id":"0.0-72.0"},{"phase":1,"sequence":0,"avg":182,"response":200,"trial_type":"training_avg","trial_index":73,"time_elapsed":1058187,"internal_node_id":"0.0-73.0"},{"trial_type":"number-animation","trial_index":74,"time_elapsed":1067437,"internal_node_id":"0.0-74.0"},{"phase":1,"sequence":1,"avg":188,"response":165,"trial_type":"training_avg","trial_index":75,"time_elapsed":1077519,"internal_node_id":"0.0-75.0"},{"trial_type":"number-animation","trial_index":76,"time_elapsed":1083720,"internal_node_id":"0.0-76.0"},{"phase":1,"sequence":2,"avg":176,"response":180,"trial_type":"training_avg","trial_index":77,"time_elapsed":1089451,"internal_node_id":"0.0-77.0"},{"trial_type":"number-animation","trial_index":78,"time_elapsed":1096250,"internal_node_id":"0.0-78.0"},{"phase":1,"sequence":3,"avg":180,"response":183,"trial_type":"training_avg","trial_index":79,"time_elapsed":1101402,"internal_node_id":"0.0-79.0"},{"trial_type":"number-animation","trial_index":80,"time_elapsed":1107659,"internal_node_id":"0.0-80.0"},{"phase":1,"sequence":4,"avg":174,"response":171,"trial_type":"training_avg","trial_index":81,"time_elapsed":1114755,"internal_node_id":"0.0-81.0"},{"responses":[{"value":0,"offby":-1,"category":"$90 - $120","category_index":0},{"value":0,"offby":-3,"category":"$121 - $145","category_index":1},{"value":6,"offby":3,"category":"$146 - $170","category_index":2},{"value":7,"offby":1,"category":"$171 - $195","category_index":3},{"value":7,"offby":3,"category":"$196 - $220","category_index":4},{"value":0,"offby":-2,"category":"$221 - $245","category_index":5},{"value":0,"offby":-1,"category":"$246 - $270","category_index":6}],"phase":1,"number":0,"trial_type":"bar-choose","trial_index":82,"time_elapsed":1131351,"internal_node_id":"0.0-82.0"},{"rt":4216,"url":"\/tickets\/utils\/testing2.html","trial_type":"html","trial_index":83,"time_elapsed":1136715,"internal_node_id":"0.0-83.0"},{"phase":1,"order":[48,26,10,19,1,44,46,17,32,31,12,49,30,6,11,7,23,27,13,21,8,4,25,28,47,18,33,15,34,38,41,5,35,3,36,43,0,40,2,9,29,14,45,16,20,42,37,39,22,24],"trial_type":"store_order","trial_index":84,"time_elapsed":1137720,"internal_node_id":"0.0-84.0"},{"result":159,"points":2,"place":1,"phase":1,"sequence":0,"prices":[182,249,159,114,184,205,175,189,172,178],"times":[2545,565,1537],"next_num":3,"trial_type":"ticket-choose","trial_index":85,"time_elapsed":1144507,"internal_node_id":"0.0-85.0"},{"result":124,"points":3,"place":0,"phase":1,"sequence":1,"prices":[124,220,136,165,185,234,143,225,228,179],"times":[805],"next_num":1,"trial_type":"ticket-choose","trial_index":86,"time_elapsed":1146939,"internal_node_id":"0.0-86.0"},{"result":158,"points":1,"place":2,"phase":1,"sequence":2,"prices":[169,193,154,255,178,194,176,158,239,126],"times":[1037,644,398,354,452,500,444,803],"next_num":8,"trial_type":"ticket-choose","trial_index":87,"time_elapsed":1154682,"internal_node_id":"0.0-87.0"},{"result":152,"points":1,"place":2,"phase":1,"sequence":3,"prices":[172,190,136,270,179,192,174,152,237,129],"times":[633,451,404,355,381,422,500,812],"next_num":8,"trial_type":"ticket-choose","trial_index":88,"time_elapsed":1161850,"internal_node_id":"0.0-88.0"},{"result":146,"points":2,"place":1,"phase":1,"sequence":4,"prices":[169,193,146,237,180,196,172,150,129,236],"times":[844,524,757],"next_num":3,"trial_type":"ticket-choose","trial_index":89,"time_elapsed":1165971,"internal_node_id":"0.0-89.0"},{"result":138,"points":1,"place":2,"phase":1,"sequence":5,"prices":[181,138,118,170,190,101,146,169,175,233],"times":[716,693],"next_num":2,"trial_type":"ticket-choose","trial_index":90,"time_elapsed":1169290,"internal_node_id":"0.0-90.0"},{"result":236,"points":0,"place":6,"phase":1,"sequence":6,"prices":[240,188,273,207,250,136,217,170,171,236],"times":[736,316,467,453,450,421,340,444,813,1195],"next_num":10,"trial_type":"ticket-choose","trial_index":91,"time_elapsed":1178594,"internal_node_id":"0.0-91.0"},{"result":136,"points":2,"place":1,"phase":1,"sequence":7,"prices":[171,192,136,243,182,195,174,154,236,128],"times":[742,493,668],"next_num":3,"trial_type":"ticket-choose","trial_index":92,"time_elapsed":1182589,"internal_node_id":"0.0-92.0"},{"result":196,"points":1,"place":4,"phase":1,"sequence":8,"prices":[143,206,153,194,201,267,168,208,210,196],"times":[528,405,383,501,466,461,546,439,491,554],"next_num":10,"trial_type":"ticket-choose","trial_index":93,"time_elapsed":1190873,"internal_node_id":"0.0-93.0"},{"result":117,"points":3,"place":0,"phase":1,"sequence":9,"prices":[117,161,120,147,153,259,144,191,195,149],"times":[852],"next_num":1,"trial_type":"ticket-choose","trial_index":94,"time_elapsed":1193410,"internal_node_id":"0.0-94.0"},{"result":154,"points":2,"place":1,"phase":1,"sequence":10,"prices":[168,192,176,242,183,197,154,156,237,132],"times":[569,453,504,484,580,474,669],"next_num":7,"trial_type":"ticket-choose","trial_index":95,"time_elapsed":1200019,"internal_node_id":"0.0-95.0"},{"result":146,"points":1,"place":2,"phase":1,"sequence":11,"prices":[186,146,191,179,152,116,140,201,172,187],"times":[531,612],"next_num":2,"trial_type":"ticket-choose","trial_index":96,"time_elapsed":1202980,"internal_node_id":"0.0-96.0"},{"result":135,"points":3,"place":0,"phase":1,"sequence":12,"prices":[135,202,150,169,183,225,160,211,220,172],"times":[697],"next_num":1,"trial_type":"ticket-choose","trial_index":97,"time_elapsed":1205314,"internal_node_id":"0.0-97.0"},{"result":146,"points":2,"place":1,"phase":1,"sequence":13,"prices":[168,191,172,240,183,193,146,151,125,238],"times":[614,1069,485,509,589,612,803],"next_num":7,"trial_type":"ticket-choose","trial_index":98,"time_elapsed":1212899,"internal_node_id":"0.0-98.0"},{"result":169,"points":1,"place":3,"phase":1,"sequence":14,"prices":[169,194,154,271,178,201,176,158,236,127],"times":[1011],"next_num":1,"trial_type":"ticket-choose","trial_index":99,"time_elapsed":1215515,"internal_node_id":"0.0-99.0"},{"result":146,"points":2,"place":1,"phase":1,"sequence":15,"prices":[171,191,172,268,179,194,146,150,127,239],"times":[740,483,531,475,436,445,692],"next_num":7,"trial_type":"ticket-choose","trial_index":100,"time_elapsed":1222194,"internal_node_id":"0.0-100.0"},{"result":136,"points":2,"place":1,"phase":1,"sequence":16,"prices":[173,191,174,270,180,193,136,153,239,129],"times":[596,514,516,379,461,555,653],"next_num":7,"trial_type":"ticket-choose","trial_index":101,"time_elapsed":1228737,"internal_node_id":"0.0-101.0"},{"result":157,"points":3,"place":0,"phase":1,"sequence":17,"prices":[157,205,161,175,197,254,165,210,214,192],"times":[1037],"next_num":1,"trial_type":"ticket-choose","trial_index":102,"time_elapsed":1231378,"internal_node_id":"0.0-102.0"},{"result":154,"points":2,"place":1,"phase":1,"sequence":18,"prices":[170,190,176,251,183,192,154,157,236,131],"times":[836,455,454,493,525,491,725],"next_num":7,"trial_type":"ticket-choose","trial_index":103,"time_elapsed":1238230,"internal_node_id":"0.0-103.0"},{"result":128,"points":3,"place":0,"phase":1,"sequence":19,"prices":[170,192,174,242,181,196,136,153,236,128],"times":[688,444,386,459,238,454,410,347,533,742],"next_num":10,"trial_type":"ticket-choose","trial_index":104,"time_elapsed":1246554,"internal_node_id":"0.0-104.0"},{"result":168,"points":1,"place":3,"phase":1,"sequence":20,"prices":[168,192,154,237,182,196,176,156,235,133],"times":[3138],"next_num":1,"trial_type":"ticket-choose","trial_index":105,"time_elapsed":1251433,"internal_node_id":"0.0-105.0"},{"result":126,"points":3,"place":0,"phase":1,"sequence":21,"prices":[172,191,176,272,179,194,146,152,126,235],"times":[619,485,350,445,476,478,452,382,939],"next_num":9,"trial_type":"ticket-choose","trial_index":106,"time_elapsed":1259426,"internal_node_id":"0.0-106.0"},{"result":132,"points":3,"place":0,"phase":1,"sequence":22,"prices":[132,222,144,153,190,248,151,224,228,179],"times":[716],"next_num":1,"trial_type":"ticket-choose","trial_index":107,"time_elapsed":1261834,"internal_node_id":"0.0-107.0"},{"result":157,"points":3,"place":0,"phase":1,"sequence":23,"prices":[157,213,159,187,194,242,161,222,225,189],"times":[675],"next_num":1,"trial_type":"ticket-choose","trial_index":108,"time_elapsed":1264131,"internal_node_id":"0.0-108.0"},{"result":124,"points":3,"place":0,"phase":1,"sequence":24,"prices":[219,183,227,124,176,161,140,129,171,201],"times":[767,522,455,712],"next_num":4,"trial_type":"ticket-choose","trial_index":109,"time_elapsed":1268842,"internal_node_id":"0.0-109.0"},{"result":127,"points":3,"place":0,"phase":1,"sequence":25,"prices":[173,194,136,239,182,200,174,150,236,127],"times":[675,610,419,476,500,489,452,435,527,540],"next_num":10,"trial_type":"ticket-choose","trial_index":110,"time_elapsed":1277490,"internal_node_id":"0.0-110.0"},{"result":137,"points":3,"place":0,"phase":1,"sequence":26,"prices":[137,187,152,156,166,231,155,194,202,160],"times":[721],"next_num":1,"trial_type":"ticket-choose","trial_index":111,"time_elapsed":1279793,"internal_node_id":"0.0-111.0"},{"result":154,"points":2,"place":1,"phase":1,"sequence":27,"prices":[170,193,176,245,178,194,154,159,236,126],"times":[750,540,598,499,476,501,708],"next_num":7,"trial_type":"ticket-choose","trial_index":112,"time_elapsed":1286706,"internal_node_id":"0.0-112.0"},{"result":142,"points":1,"place":2,"phase":1,"sequence":28,"prices":[181,130,116,142,157,193,165,218,173,207],"times":[691,451,382,970],"next_num":4,"trial_type":"ticket-choose","trial_index":113,"time_elapsed":1291483,"internal_node_id":"0.0-113.0"},{"result":156,"points":1,"place":2,"phase":1,"sequence":29,"prices":[156,218,212,216,191,210,275,146,174,152],"times":[772],"next_num":1,"trial_type":"ticket-choose","trial_index":114,"time_elapsed":1293842,"internal_node_id":"0.0-114.0"},{"result":131,"points":2,"place":1,"phase":1,"sequence":30,"prices":[221,234,131,136,132,149,154,90,176,173],"times":[826,507,613],"next_num":3,"trial_type":"ticket-choose","trial_index":115,"time_elapsed":1297793,"internal_node_id":"0.0-115.0"},{"result":146,"points":2,"place":1,"phase":1,"sequence":31,"prices":[171,195,172,242,179,196,146,150,128,235],"times":[611,499,551,491,468,403,829],"next_num":7,"trial_type":"ticket-choose","trial_index":116,"time_elapsed":1304570,"internal_node_id":"0.0-116.0"},{"result":155,"points":1,"place":2,"phase":1,"sequence":32,"prices":[155,129,164,189,210,108,187,241,174,275],"times":[736],"next_num":1,"trial_type":"ticket-choose","trial_index":117,"time_elapsed":1306906,"internal_node_id":"0.0-117.0"},{"result":146,"points":2,"place":1,"phase":1,"sequence":33,"prices":[170,193,146,268,178,195,172,149,126,241],"times":[714,488,639],"next_num":3,"trial_type":"ticket-choose","trial_index":118,"time_elapsed":1310745,"internal_node_id":"0.0-118.0"},{"result":149,"points":2,"place":1,"phase":1,"sequence":34,"prices":[196,221,149,164,216,167,175,128,176,181],"times":[563,549,668],"next_num":3,"trial_type":"ticket-choose","trial_index":119,"time_elapsed":1314538,"internal_node_id":"0.0-119.0"},{"result":135,"points":3,"place":0,"phase":1,"sequence":35,"prices":[221,193,135,188,217,179,196,190,175,159],"times":[528,514,675],"next_num":3,"trial_type":"ticket-choose","trial_index":120,"time_elapsed":1318209,"internal_node_id":"0.0-120.0"},{"result":146,"points":2,"place":1,"phase":1,"sequence":36,"prices":[173,191,146,242,178,194,172,152,126,235],"times":[624,517,674],"next_num":3,"trial_type":"ticket-choose","trial_index":121,"time_elapsed":1322042,"internal_node_id":"0.0-121.0"},{"result":119,"points":3,"place":0,"phase":1,"sequence":37,"prices":[198,119,169,141,195,233,136,208,177,217],"times":[569,652],"next_num":2,"trial_type":"ticket-choose","trial_index":122,"time_elapsed":1325050,"internal_node_id":"0.0-122.0"},{"result":168,"points":1,"place":3,"phase":1,"sequence":38,"prices":[168,191,146,252,183,193,172,153,126,238],"times":[817],"next_num":1,"trial_type":"ticket-choose","trial_index":123,"time_elapsed":1327482,"internal_node_id":"0.0-123.0"},{"result":169,"points":1,"place":3,"phase":1,"sequence":39,"prices":[169,191,154,268,183,197,176,155,236,133],"times":[676],"next_num":1,"trial_type":"ticket-choose","trial_index":124,"time_elapsed":1329762,"internal_node_id":"0.0-124.0"},{"result":121,"points":3,"place":0,"phase":1,"sequence":40,"prices":[121,191,128,141,166,217,129,196,202,157],"times":[683],"next_num":1,"trial_type":"ticket-choose","trial_index":125,"time_elapsed":1332010,"internal_node_id":"0.0-125.0"},{"result":169,"points":1,"place":3,"phase":1,"sequence":41,"prices":[169,192,176,244,178,194,154,159,237,125],"times":[739],"next_num":1,"trial_type":"ticket-choose","trial_index":126,"time_elapsed":1334458,"internal_node_id":"0.0-126.0"},{"result":154,"points":2,"place":1,"phase":1,"sequence":42,"prices":[244,203,196,189,154,206,197,149,171,159],"times":[751,482,587,487,650],"next_num":5,"trial_type":"ticket-choose","trial_index":127,"time_elapsed":1339833,"internal_node_id":"0.0-127.0"},{"result":136,"points":2,"place":1,"phase":1,"sequence":43,"prices":[171,192,136,265,180,194,174,152,239,127],"times":[760,515,613],"next_num":3,"trial_type":"ticket-choose","trial_index":128,"time_elapsed":1343714,"internal_node_id":"0.0-128.0"},{"result":169,"points":1,"place":3,"phase":1,"sequence":44,"prices":[169,192,174,246,180,195,136,152,238,126],"times":[697],"next_num":1,"trial_type":"ticket-choose","trial_index":129,"time_elapsed":1346067,"internal_node_id":"0.0-129.0"},{"result":165,"points":2,"place":1,"phase":1,"sequence":45,"prices":[263,165,224,214,105,230,215,185,177,193],"times":[654,722],"next_num":2,"trial_type":"ticket-choose","trial_index":130,"time_elapsed":1349249,"internal_node_id":"0.0-130.0"},{"result":158,"points":1,"place":3,"phase":1,"sequence":46,"prices":[216,206,158,145,224,185,124,149,175,162],"times":[725,459,724],"next_num":3,"trial_type":"ticket-choose","trial_index":131,"time_elapsed":1353211,"internal_node_id":"0.0-131.0"},{"result":153,"points":2,"place":1,"phase":1,"sequence":47,"prices":[197,153,181,215,150,155,164,247,177,162],"times":[609,620],"next_num":2,"trial_type":"ticket-choose","trial_index":132,"time_elapsed":1356356,"internal_node_id":"0.0-132.0"},{"result":136,"points":2,"place":1,"phase":1,"sequence":48,"prices":[172,194,174,243,182,193,136,150,237,126],"times":[649,500,500,556,471,549,644],"next_num":7,"trial_type":"ticket-choose","trial_index":133,"time_elapsed":1363145,"internal_node_id":"0.0-133.0"},{"result":142,"points":3,"place":0,"phase":1,"sequence":49,"prices":[142,207,171,182,190,269,180,218,256,188],"times":[818],"next_num":1,"trial_type":"ticket-choose","trial_index":134,"time_elapsed":1365618,"internal_node_id":"0.0-134.0"},{"responses":[{"value":0,"offby":-1,"category":"$90 - $120","category_index":0},{"value":2,"offby":-1,"category":"$121 - $145","category_index":1},{"value":4,"offby":1,"category":"$146 - $170","category_index":2},{"value":8,"offby":2,"category":"$171 - $195","category_index":3},{"value":4,"offby":0,"category":"$196 - $220","category_index":4},{"value":2,"offby":0,"category":"$221 - $245","category_index":5},{"value":0,"offby":-1,"category":"$246 - $270","category_index":6}],"phase":1,"number":1,"trial_type":"bar-choose","trial_index":135,"time_elapsed":1380957,"internal_node_id":"0.0-135.0"},{"special_comment":"No","trial_type":"special_sequence","trial_index":136,"time_elapsed":1385299,"internal_node_id":"0.0-136.0"},{"during":"Nothing","bonus":280,"trial_type":"final","trial_index":137,"time_elapsed":1399527,"internal_node_id":"0.0-137.0"}],"bonus":280}