{"start_time":"2017-02-21 11:04:29","end_time":"2017-02-21 11:35:45","points_phase0":98,"points_phase1":105,"phase_order":0,"age":39,"gender":"f","tries":1,"during":"Nothing","worker_id":"AKCH7EGJBNV43","assignment_id":"39JEC7537VUTVB64HDU0EJ8JKDBCVX","data":[{"rt":33173,"url":"\/tickets\/utils\/consent.html","trial_type":"html","trial_index":0,"time_elapsed":33318,"internal_node_id":"0.0-0.0"},{"age":39,"gender":"f","trial_type":"age","trial_index":1,"time_elapsed":40541,"internal_node_id":"0.0-1.0"},{"worker_id":"AKCH7EGJBNV43","trial_type":"workerid","trial_index":2,"time_elapsed":45634,"internal_node_id":"0.0-2.0"},{"tries":1,"trial_type":"instructions_check","trial_index":3,"time_elapsed":80916,"internal_node_id":"0.0-3.0"},{"rt":20941,"url":"\/tickets\/utils\/start.html","trial_type":"html","trial_index":4,"time_elapsed":103001,"internal_node_id":"0.0-4.0"},{"trial_type":"number-animation","trial_index":5,"time_elapsed":129139,"internal_node_id":"0.0-5.0"},{"phase":0,"sequence":0,"avg":181,"response":175,"trial_type":"training_avg","trial_index":6,"time_elapsed":152104,"internal_node_id":"0.0-6.0"},{"trial_type":"number-animation","trial_index":7,"time_elapsed":179117,"internal_node_id":"0.0-7.0"},{"phase":0,"sequence":1,"avg":188,"response":185,"trial_type":"training_avg","trial_index":8,"time_elapsed":206146,"internal_node_id":"0.0-8.0"},{"trial_type":"number-animation","trial_index":9,"time_elapsed":225705,"internal_node_id":"0.0-9.0"},{"phase":0,"sequence":2,"avg":188,"response":190,"trial_type":"training_avg","trial_index":10,"time_elapsed":256569,"internal_node_id":"0.0-10.0"},{"trial_type":"number-animation","trial_index":11,"time_elapsed":294312,"internal_node_id":"0.0-11.0"},{"phase":0,"sequence":3,"avg":177,"response":166,"trial_type":"training_avg","trial_index":12,"time_elapsed":310967,"internal_node_id":"0.0-12.0"},{"trial_type":"number-animation","trial_index":13,"time_elapsed":341271,"internal_node_id":"0.0-13.0"},{"phase":0,"sequence":4,"avg":182,"response":180,"trial_type":"training_avg","trial_index":14,"time_elapsed":355440,"internal_node_id":"0.0-14.0"},{"responses":[{"value":0,"offby":0,"category":"$106 - $134","category_index":0},{"value":1,"offby":0,"category":"$135 - $150","category_index":1},{"value":4,"offby":1,"category":"$151 - $165","category_index":2},{"value":5,"offby":-1,"category":"$166 - $180","category_index":3},{"value":5,"offby":-1,"category":"$181 - $195","category_index":4},{"value":3,"offby":0,"category":"$196 - $210","category_index":5},{"value":2,"offby":1,"category":"$211 - $225","category_index":6}],"phase":0,"number":0,"trial_type":"bar-choose","trial_index":15,"time_elapsed":525003,"internal_node_id":"0.0-15.0"},{"rt":43980,"url":"\/tickets\/\/utils\/testing.html","trial_type":"html","trial_index":16,"time_elapsed":570098,"internal_node_id":"0.0-16.0"},{"phase":0,"order":[40,8,26,39,23,28,43,27,6,12,14,32,22,41,24,35,19,30,36,37,33,45,10,47,13,16,21,25,34,17,5,18,38,4,49,46,0,48,42,15,7,9,44,31,20,29,1,2,3,11],"trial_type":"store_order","trial_index":17,"time_elapsed":571099,"internal_node_id":"0.0-17.0"},{"result":126,"points":3,"place":0,"phase":0,"sequence":-1,"prices":[184,180,224,165,181,199,185,193,218,126],"times":[9884,3438,1160,2722,621,692,614,648,833,1242],"next_num":10,"trial_type":"ticket-choose","trial_index":18,"time_elapsed":598043,"internal_node_id":"0.0-18.0"},{"rt":29620,"url":"\/tickets\/utils\/testing_after.html","trial_type":"html","trial_index":19,"time_elapsed":628790,"internal_node_id":"0.0-19.0"},{"result":199,"points":0,"place":8,"phase":0,"sequence":0,"prices":[189,150,175,160,188,207,158,194,178,199],"times":[1853,1103,592,628,597,613,734,596,584,596],"next_num":11,"trial_type":"ticket-choose","trial_index":20,"time_elapsed":642892,"internal_node_id":"0.0-20.0"},{"result":167,"points":2,"place":1,"phase":0,"sequence":1,"prices":[174,186,167,211,181,188,178,168,208,156],"times":[1577,673,1258],"next_num":3,"trial_type":"ticket-choose","trial_index":21,"time_elapsed":650652,"internal_node_id":"0.0-21.0"},{"result":152,"points":3,"place":0,"phase":0,"sequence":2,"prices":[152,200,158,173,182,207,161,202,204,180],"times":[1440],"next_num":1,"trial_type":"ticket-choose","trial_index":22,"time_elapsed":655734,"internal_node_id":"0.0-22.0"},{"result":165,"points":3,"place":0,"phase":0,"sequence":3,"prices":[189,167,180,197,165,168,172,213,178,171],"times":[1187,642,615,643,1455],"next_num":5,"trial_type":"ticket-choose","trial_index":23,"time_elapsed":664182,"internal_node_id":"0.0-23.0"},{"result":158,"points":2,"place":1,"phase":0,"sequence":4,"prices":[176,185,177,218,180,186,158,166,209,154],"times":[1167,615,560,592,722,690,956],"next_num":7,"trial_type":"ticket-choose","trial_index":24,"time_elapsed":673150,"internal_node_id":"0.0-24.0"},{"result":185,"points":1,"place":4,"phase":0,"sequence":5,"prices":[169,196,170,184,187,211,171,201,202,185],"times":[1263,586,795,585,577,606,820,732,655,1125],"next_num":11,"trial_type":"ticket-choose","trial_index":25,"time_elapsed":685100,"internal_node_id":"0.0-25.0"},{"result":157,"points":3,"place":0,"phase":0,"sequence":6,"prices":[201,187,157,184,198,179,188,185,178,170],"times":[1453,647,880],"next_num":3,"trial_type":"ticket-choose","trial_index":26,"time_elapsed":690818,"internal_node_id":"0.0-26.0"},{"result":172,"points":1,"place":2,"phase":0,"sequence":7,"prices":[168,192,171,178,188,217,172,195,197,186],"times":[1190,551,566,628,638,605,1526],"next_num":7,"trial_type":"ticket-choose","trial_index":27,"time_elapsed":700072,"internal_node_id":"0.0-27.0"},{"result":163,"points":2,"place":1,"phase":0,"sequence":8,"prices":[174,186,176,217,181,187,163,166,153,209],"times":[2232,642,850,646,606,643,970],"next_num":7,"trial_type":"ticket-choose","trial_index":28,"time_elapsed":709964,"internal_node_id":"0.0-28.0"},{"result":167,"points":2,"place":1,"phase":0,"sequence":9,"prices":[174,186,178,217,181,188,167,168,208,156],"times":[1108,581,678,620,536,591,951],"next_num":7,"trial_type":"ticket-choose","trial_index":29,"time_elapsed":718254,"internal_node_id":"0.0-29.0"},{"result":167,"points":2,"place":1,"phase":0,"sequence":10,"prices":[175,186,178,212,179,187,167,169,209,153],"times":[1075,966,501,623,601,823,943],"next_num":7,"trial_type":"ticket-choose","trial_index":30,"time_elapsed":727142,"internal_node_id":"0.0-30.0"},{"result":188,"points":1,"place":4,"phase":0,"sequence":11,"prices":[161,193,167,187,190,224,174,194,195,188],"times":[1673,574,733,781,648,586,1388,916,787,1769],"next_num":11,"trial_type":"ticket-choose","trial_index":31,"time_elapsed":741168,"internal_node_id":"0.0-31.0"},{"result":158,"points":2,"place":1,"phase":0,"sequence":12,"prices":[176,187,177,225,181,187,158,165,208,153],"times":[1302,1015,1010,602,693,752,965],"next_num":7,"trial_type":"ticket-choose","trial_index":32,"time_elapsed":750918,"internal_node_id":"0.0-32.0"},{"result":155,"points":2,"place":1,"phase":0,"sequence":13,"prices":[201,207,155,158,156,165,167,135,178,177],"times":[1259,547,1026],"next_num":3,"trial_type":"ticket-choose","trial_index":33,"time_elapsed":756087,"internal_node_id":"0.0-33.0"},{"result":184,"points":1,"place":4,"phase":0,"sequence":14,"prices":[161,193,175,181,185,224,180,199,218,184],"times":[1269,551,657,570,601,562,778,1111,660,626],"next_num":11,"trial_type":"ticket-choose","trial_index":34,"time_elapsed":768558,"internal_node_id":"0.0-34.0"},{"result":154,"points":2,"place":1,"phase":0,"sequence":15,"prices":[168,154,172,185,195,144,184,211,177,227],"times":[1098,999],"next_num":2,"trial_type":"ticket-choose","trial_index":35,"time_elapsed":772731,"internal_node_id":"0.0-35.0"},{"result":158,"points":2,"place":1,"phase":0,"sequence":16,"prices":[176,185,158,217,180,186,177,166,209,154],"times":[849,1143,924],"next_num":3,"trial_type":"ticket-choose","trial_index":36,"time_elapsed":777972,"internal_node_id":"0.0-36.0"},{"result":176,"points":1,"place":4,"phase":0,"sequence":17,"prices":[157,191,165,175,182,203,170,195,200,176],"times":[1041,552,740,567,571,592,683,563,601,855],"next_num":10,"trial_type":"ticket-choose","trial_index":37,"time_elapsed":788689,"internal_node_id":"0.0-37.0"},{"result":165,"points":2,"place":1,"phase":0,"sequence":18,"prices":[188,200,165,172,198,174,177,154,177,180],"times":[1107,628,924],"next_num":3,"trial_type":"ticket-choose","trial_index":38,"time_elapsed":793667,"internal_node_id":"0.0-38.0"},{"result":163,"points":2,"place":1,"phase":0,"sequence":19,"prices":[198,193,169,163,202,182,152,164,177,171],"times":[1068,564,1050,958],"next_num":4,"trial_type":"ticket-choose","trial_index":39,"time_elapsed":799844,"internal_node_id":"0.0-39.0"},{"result":159,"points":3,"place":0,"phase":0,"sequence":20,"prices":[159,183,166,168,173,205,167,187,191,170],"times":[1954],"next_num":1,"trial_type":"ticket-choose","trial_index":40,"time_elapsed":805000,"internal_node_id":"0.0-40.0"},{"result":167,"points":2,"place":1,"phase":0,"sequence":21,"prices":[212,192,188,184,167,193,189,164,176,170],"times":[1003,576,617,613,950],"next_num":5,"trial_type":"ticket-choose","trial_index":41,"time_elapsed":811476,"internal_node_id":"0.0-41.0"},{"result":169,"points":1,"place":2,"phase":0,"sequence":22,"prices":[175,186,167,225,179,187,178,169,209,153],"times":[986,668,1254,618,702,632,1575,777],"next_num":8,"trial_type":"ticket-choose","trial_index":42,"time_elapsed":822008,"internal_node_id":"0.0-42.0"},{"result":152,"points":3,"place":0,"phase":0,"sequence":23,"prices":[200,181,203,152,175,171,160,154,176,191],"times":[1048,642,628,899],"next_num":4,"trial_type":"ticket-choose","trial_index":43,"time_elapsed":827769,"internal_node_id":"0.0-43.0"},{"result":178,"points":1,"place":4,"phase":0,"sequence":24,"prices":[175,185,178,215,181,186,167,168,208,156],"times":[1023,1172,1361],"next_num":3,"trial_type":"ticket-choose","trial_index":44,"time_elapsed":833685,"internal_node_id":"0.0-44.0"},{"result":158,"points":2,"place":1,"phase":0,"sequence":25,"prices":[175,186,158,211,180,187,177,166,209,153],"times":[1289,880,928],"next_num":3,"trial_type":"ticket-choose","trial_index":45,"time_elapsed":839107,"internal_node_id":"0.0-45.0"},{"result":158,"points":2,"place":1,"phase":0,"sequence":26,"prices":[175,186,177,209,181,188,158,167,208,154],"times":[708,558,708,673,668,604,800],"next_num":7,"trial_type":"ticket-choose","trial_index":46,"time_elapsed":846979,"internal_node_id":"0.0-46.0"},{"result":156,"points":3,"place":0,"phase":0,"sequence":27,"prices":[156,201,162,166,185,214,165,202,204,179],"times":[1340],"next_num":1,"trial_type":"ticket-choose","trial_index":47,"time_elapsed":850505,"internal_node_id":"0.0-47.0"},{"result":155,"points":2,"place":1,"phase":0,"sequence":28,"prices":[181,155,148,161,168,187,172,199,176,194],"times":[958,797],"next_num":2,"trial_type":"ticket-choose","trial_index":48,"time_elapsed":854332,"internal_node_id":"0.0-48.0"},{"result":158,"points":2,"place":1,"phase":0,"sequence":29,"prices":[175,186,158,209,181,188,177,167,208,154],"times":[1439,585,911],"next_num":3,"trial_type":"ticket-choose","trial_index":49,"time_elapsed":859548,"internal_node_id":"0.0-49.0"},{"result":163,"points":2,"place":1,"phase":0,"sequence":30,"prices":[175,187,176,209,180,188,163,165,154,208],"times":[812,556,935,698,625,774,853],"next_num":7,"trial_type":"ticket-choose","trial_index":50,"time_elapsed":867891,"internal_node_id":"0.0-50.0"},{"result":158,"points":2,"place":1,"phase":0,"sequence":31,"prices":[176,187,158,210,181,187,177,165,208,153],"times":[806,672,913],"next_num":3,"trial_type":"ticket-choose","trial_index":51,"time_elapsed":872491,"internal_node_id":"0.0-51.0"},{"result":163,"points":3,"place":0,"phase":0,"sequence":32,"prices":[168,199,196,198,185,195,227,163,177,166],"times":[1250,754,595,574,651,580,551,807],"next_num":8,"trial_type":"ticket-choose","trial_index":52,"time_elapsed":881559,"internal_node_id":"0.0-52.0"},{"result":163,"points":2,"place":1,"phase":0,"sequence":33,"prices":[176,186,176,210,179,187,163,166,153,208],"times":[1075,593,687,582,551,782,876],"next_num":7,"trial_type":"ticket-choose","trial_index":53,"time_elapsed":889781,"internal_node_id":"0.0-53.0"},{"result":148,"points":3,"place":0,"phase":0,"sequence":34,"prices":[183,163,185,180,166,148,160,186,176,184],"times":[976,863,520,486,1058,1011],"next_num":6,"trial_type":"ticket-choose","trial_index":54,"time_elapsed":897696,"internal_node_id":"0.0-54.0"},{"result":158,"points":3,"place":0,"phase":0,"sequence":35,"prices":[210,184,226,193,215,158,199,175,176,208],"times":[1000,736,559,566,616,858],"next_num":6,"trial_type":"ticket-choose","trial_index":55,"time_elapsed":905060,"internal_node_id":"0.0-55.0"},{"result":166,"points":1,"place":2,"phase":0,"sequence":36,"prices":[176,186,163,214,179,187,176,166,153,208],"times":[831,3375,617,466,566,521,631,884],"next_num":8,"trial_type":"ticket-choose","trial_index":56,"time_elapsed":916398,"internal_node_id":"0.0-56.0"},{"result":169,"points":2,"place":1,"phase":0,"sequence":37,"prices":[181,215,169,147,182,193,177,184,176,179],"times":[3882,950,1438],"next_num":3,"trial_type":"ticket-choose","trial_index":57,"time_elapsed":925624,"internal_node_id":"0.0-57.0"},{"result":143,"points":3,"place":0,"phase":0,"sequence":38,"prices":[222,173,202,197,143,205,198,183,178,186],"times":[766,536,520,556,931],"next_num":5,"trial_type":"ticket-choose","trial_index":58,"time_elapsed":931686,"internal_node_id":"0.0-58.0"},{"result":167,"points":2,"place":1,"phase":0,"sequence":39,"prices":[175,187,178,209,179,187,167,169,208,153],"times":[1080,837,545,552,632,579,804],"next_num":7,"trial_type":"ticket-choose","trial_index":59,"time_elapsed":939842,"internal_node_id":"0.0-59.0"},{"result":163,"points":2,"place":1,"phase":0,"sequence":40,"prices":[175,186,176,224,179,187,163,165,153,210],"times":[576,430,698,598,586,618,853],"next_num":7,"trial_type":"ticket-choose","trial_index":60,"time_elapsed":947536,"internal_node_id":"0.0-60.0"},{"result":168,"points":1,"place":2,"phase":0,"sequence":41,"prices":[175,185,167,224,181,186,178,168,208,156],"times":[2214,665,1060,573,661,556,642,915],"next_num":8,"trial_type":"ticket-choose","trial_index":61,"time_elapsed":958210,"internal_node_id":"0.0-61.0"},{"result":159,"points":1,"place":2,"phase":0,"sequence":42,"prices":[180,159,149,175,185,141,163,174,178,207],"times":[803,1009],"next_num":2,"trial_type":"ticket-choose","trial_index":62,"time_elapsed":962084,"internal_node_id":"0.0-62.0"},{"result":165,"points":1,"place":4,"phase":0,"sequence":43,"prices":[148,171,150,163,167,220,162,186,187,165],"times":[1568,575,851,661,632,658,718,692,601,960],"next_num":10,"trial_type":"ticket-choose","trial_index":63,"time_elapsed":973747,"internal_node_id":"0.0-63.0"},{"result":158,"points":2,"place":1,"phase":0,"sequence":44,"prices":[175,186,177,221,180,187,158,166,209,153],"times":[1348,1142,581,611,605,624,1237],"next_num":7,"trial_type":"ticket-choose","trial_index":64,"time_elapsed":983084,"internal_node_id":"0.0-64.0"},{"result":150,"points":3,"place":0,"phase":0,"sequence":45,"prices":[150,185,154,161,173,199,155,188,191,168],"times":[4340],"next_num":1,"trial_type":"ticket-choose","trial_index":65,"time_elapsed":989497,"internal_node_id":"0.0-65.0"},{"result":165,"points":1,"place":2,"phase":0,"sequence":46,"prices":[175,187,163,209,180,188,176,165,154,208],"times":[891,665,780,616,530,567,679,819],"next_num":8,"trial_type":"ticket-choose","trial_index":66,"time_elapsed":998358,"internal_node_id":"0.0-66.0"},{"result":153,"points":3,"place":0,"phase":0,"sequence":47,"prices":[174,186,163,212,181,187,176,166,153,209],"times":[922,595,854,602,601,592,609,1500,855],"next_num":9,"trial_type":"ticket-choose","trial_index":67,"time_elapsed":1009045,"internal_node_id":"0.0-67.0"},{"result":165,"points":1,"place":2,"phase":0,"sequence":48,"prices":[175,186,163,211,179,187,176,165,153,210],"times":[1296,477,808,637,587,580,617,1193],"next_num":8,"trial_type":"ticket-choose","trial_index":68,"time_elapsed":1018582,"internal_node_id":"0.0-68.0"},{"result":153,"points":3,"place":0,"phase":0,"sequence":49,"prices":[175,187,167,212,179,187,178,169,208,153],"times":[1137,552,1051,517,688,768,899,1641,649,882],"next_num":10,"trial_type":"ticket-choose","trial_index":69,"time_elapsed":1031336,"internal_node_id":"0.0-69.0"},{"responses":[{"value":0,"offby":0,"category":"$106 - $134","category_index":0},{"value":3,"offby":2,"category":"$135 - $150","category_index":1},{"value":5,"offby":2,"category":"$151 - $165","category_index":2},{"value":4,"offby":-2,"category":"$166 - $180","category_index":3},{"value":3,"offby":-3,"category":"$181 - $195","category_index":4},{"value":3,"offby":0,"category":"$196 - $210","category_index":5},{"value":1,"offby":0,"category":"$211 - $225","category_index":6}],"phase":0,"number":1,"trial_type":"bar-choose","trial_index":70,"time_elapsed":1095275,"internal_node_id":"0.0-70.0"},{"rt":21794,"url":"\/tickets\/utils\/start2.html","trial_type":"html","trial_index":71,"time_elapsed":1118182,"internal_node_id":"0.0-71.0"},{"trial_type":"number-animation","trial_index":72,"time_elapsed":1145940,"internal_node_id":"0.0-72.0"},{"phase":1,"sequence":0,"avg":182,"response":180,"trial_type":"training_avg","trial_index":73,"time_elapsed":1161947,"internal_node_id":"0.0-73.0"},{"trial_type":"number-animation","trial_index":74,"time_elapsed":1188679,"internal_node_id":"0.0-74.0"},{"phase":1,"sequence":1,"avg":188,"response":188,"trial_type":"training_avg","trial_index":75,"time_elapsed":1199618,"internal_node_id":"0.0-75.0"},{"trial_type":"number-animation","trial_index":76,"time_elapsed":1225102,"internal_node_id":"0.0-76.0"},{"phase":1,"sequence":2,"avg":176,"response":174,"trial_type":"training_avg","trial_index":77,"time_elapsed":1234358,"internal_node_id":"0.0-77.0"},{"trial_type":"number-animation","trial_index":78,"time_elapsed":1259674,"internal_node_id":"0.0-78.0"},{"phase":1,"sequence":3,"avg":180,"response":179,"trial_type":"training_avg","trial_index":79,"time_elapsed":1269079,"internal_node_id":"0.0-79.0"},{"trial_type":"number-animation","trial_index":80,"time_elapsed":1298088,"internal_node_id":"0.0-80.0"},{"phase":1,"sequence":4,"avg":174,"response":175,"trial_type":"training_avg","trial_index":81,"time_elapsed":1309120,"internal_node_id":"0.0-81.0"},{"responses":[{"value":0,"offby":-1,"category":"$90 - $120","category_index":0},{"value":4,"offby":1,"category":"$121 - $145","category_index":1},{"value":4,"offby":1,"category":"$146 - $170","category_index":2},{"value":5,"offby":-1,"category":"$171 - $195","category_index":3},{"value":3,"offby":-1,"category":"$196 - $220","category_index":4},{"value":2,"offby":0,"category":"$221 - $245","category_index":5},{"value":1,"offby":0,"category":"$246 - $270","category_index":6}],"phase":1,"number":0,"trial_type":"bar-choose","trial_index":82,"time_elapsed":1355514,"internal_node_id":"0.0-82.0"},{"rt":29048,"url":"\/tickets\/utils\/testing2.html","trial_type":"html","trial_index":83,"time_elapsed":1385666,"internal_node_id":"0.0-83.0"},{"phase":1,"order":[30,35,4,12,9,2,19,13,46,26,28,7,18,37,0,41,36,43,11,24,33,32,5,21,34,44,3,48,38,10,8,14,49,40,27,45,39,22,29,16,17,23,25,42,20,1,15,31,6,47],"trial_type":"store_order","trial_index":84,"time_elapsed":1386668,"internal_node_id":"0.0-84.0"},{"result":135,"points":3,"place":0,"phase":1,"sequence":0,"prices":[135,202,150,169,183,225,160,211,220,172],"times":[1435],"next_num":1,"trial_type":"ticket-choose","trial_index":85,"time_elapsed":1390408,"internal_node_id":"0.0-85.0"},{"result":155,"points":1,"place":2,"phase":1,"sequence":1,"prices":[155,129,164,189,210,108,187,241,174,275],"times":[2758],"next_num":1,"trial_type":"ticket-choose","trial_index":86,"time_elapsed":1395339,"internal_node_id":"0.0-86.0"},{"result":146,"points":2,"place":1,"phase":1,"sequence":2,"prices":[172,191,176,272,179,194,146,152,126,235],"times":[1008,682,568,570,632,598,930],"next_num":7,"trial_type":"ticket-choose","trial_index":87,"time_elapsed":1403598,"internal_node_id":"0.0-87.0"},{"result":132,"points":3,"place":0,"phase":1,"sequence":3,"prices":[168,192,176,242,183,197,154,156,237,132],"times":[961,500,572,552,572,778,572,900,649,950],"next_num":10,"trial_type":"ticket-choose","trial_index":88,"time_elapsed":1414379,"internal_node_id":"0.0-88.0"},{"result":155,"points":1,"place":2,"phase":1,"sequence":4,"prices":[169,191,154,268,183,197,176,155,236,133],"times":[1097,658,519,511,510,522,488,1019],"next_num":8,"trial_type":"ticket-choose","trial_index":89,"time_elapsed":1423120,"internal_node_id":"0.0-89.0"},{"result":238,"points":0,"place":8,"phase":1,"sequence":5,"prices":[168,191,146,252,183,193,172,153,126,238],"times":[799,476,425,486,526,556,562,1155,537,1660],"next_num":11,"trial_type":"ticket-choose","trial_index":90,"time_elapsed":1434267,"internal_node_id":"0.0-90.0"},{"result":136,"points":2,"place":1,"phase":1,"sequence":6,"prices":[172,190,136,270,179,192,174,152,237,129],"times":[898,590,1287],"next_num":3,"trial_type":"ticket-choose","trial_index":91,"time_elapsed":1439562,"internal_node_id":"0.0-91.0"},{"result":154,"points":2,"place":1,"phase":1,"sequence":7,"prices":[170,190,176,251,183,192,154,157,236,131],"times":[1139,711,581,571,637,606,773],"next_num":7,"trial_type":"ticket-choose","trial_index":92,"time_elapsed":1447696,"internal_node_id":"0.0-92.0"},{"result":136,"points":3,"place":0,"phase":1,"sequence":8,"prices":[240,188,273,207,250,136,217,170,171,236],"times":[768,496,645,899,546,905],"next_num":6,"trial_type":"ticket-choose","trial_index":93,"time_elapsed":1454818,"internal_node_id":"0.0-93.0"},{"result":124,"points":3,"place":0,"phase":1,"sequence":9,"prices":[124,220,136,165,185,234,143,225,228,179],"times":[1041],"next_num":1,"trial_type":"ticket-choose","trial_index":94,"time_elapsed":1457874,"internal_node_id":"0.0-94.0"},{"result":189,"points":1,"place":4,"phase":1,"sequence":10,"prices":[157,213,159,187,194,242,161,222,225,189],"times":[1145,529,692,490,520,556,807,500,562,557],"next_num":11,"trial_type":"ticket-choose","trial_index":95,"time_elapsed":1468356,"internal_node_id":"0.0-95.0"},{"result":146,"points":2,"place":1,"phase":1,"sequence":11,"prices":[171,191,172,268,179,194,146,150,127,239],"times":[1322,551,496,464,511,521,1077],"next_num":7,"trial_type":"ticket-choose","trial_index":96,"time_elapsed":1476618,"internal_node_id":"0.0-96.0"},{"result":136,"points":2,"place":1,"phase":1,"sequence":12,"prices":[173,194,136,239,182,200,174,150,236,127],"times":[1076,512,893],"next_num":3,"trial_type":"ticket-choose","trial_index":97,"time_elapsed":1481412,"internal_node_id":"0.0-97.0"},{"result":124,"points":3,"place":0,"phase":1,"sequence":13,"prices":[216,206,158,145,224,185,124,149,175,162],"times":[818,587,1019,682,577,616,1031],"next_num":7,"trial_type":"ticket-choose","trial_index":98,"time_elapsed":1489826,"internal_node_id":"0.0-98.0"},{"result":152,"points":1,"place":2,"phase":1,"sequence":14,"prices":[173,191,146,242,178,194,172,152,126,235],"times":[850,558,537,536,596,578,594,1875],"next_num":8,"trial_type":"ticket-choose","trial_index":99,"time_elapsed":1499308,"internal_node_id":"0.0-99.0"},{"result":131,"points":2,"place":1,"phase":1,"sequence":15,"prices":[221,234,131,136,132,149,154,90,176,173],"times":[955,450,1246],"next_num":3,"trial_type":"ticket-choose","trial_index":100,"time_elapsed":1504256,"internal_node_id":"0.0-100.0"},{"result":128,"points":3,"place":0,"phase":1,"sequence":16,"prices":[196,221,149,164,216,167,175,128,176,181],"times":[814,571,696,614,549,647,771,933],"next_num":8,"trial_type":"ticket-choose","trial_index":101,"time_elapsed":1513164,"internal_node_id":"0.0-101.0"},{"result":159,"points":2,"place":1,"phase":1,"sequence":17,"prices":[221,193,135,188,217,179,196,190,175,159],"times":[749,461,550,528,685,517,556,647,607,1241],"next_num":11,"trial_type":"ticket-choose","trial_index":102,"time_elapsed":1524506,"internal_node_id":"0.0-102.0"},{"result":127,"points":3,"place":0,"phase":1,"sequence":18,"prices":[169,194,154,271,178,201,176,158,236,127],"times":[1740,615,803,621,570,631,625,2427,1075,916],"next_num":10,"trial_type":"ticket-choose","trial_index":103,"time_elapsed":1538869,"internal_node_id":"0.0-103.0"},{"result":188,"points":1,"place":4,"phase":1,"sequence":19,"prices":[142,207,171,182,190,269,180,218,256,188],"times":[998,607,963,561,584,557,882,618,738,1273],"next_num":10,"trial_type":"ticket-choose","trial_index":104,"time_elapsed":1550678,"internal_node_id":"0.0-104.0"},{"result":137,"points":3,"place":0,"phase":1,"sequence":20,"prices":[137,187,152,156,166,231,155,194,202,160],"times":[1156],"next_num":1,"trial_type":"ticket-choose","trial_index":105,"time_elapsed":1553765,"internal_node_id":"0.0-105.0"},{"result":143,"points":3,"place":0,"phase":1,"sequence":21,"prices":[143,206,153,194,201,267,168,208,210,196],"times":[1223],"next_num":1,"trial_type":"ticket-choose","trial_index":106,"time_elapsed":1556902,"internal_node_id":"0.0-106.0"},{"result":146,"points":2,"place":1,"phase":1,"sequence":22,"prices":[171,195,172,242,179,196,146,150,128,235],"times":[981,587,627,748,592,518,851],"next_num":7,"trial_type":"ticket-choose","trial_index":107,"time_elapsed":1564873,"internal_node_id":"0.0-107.0"},{"result":136,"points":2,"place":1,"phase":1,"sequence":23,"prices":[170,192,174,242,181,196,136,153,236,128],"times":[763,483,492,596,661,713,943],"next_num":7,"trial_type":"ticket-choose","trial_index":108,"time_elapsed":1572861,"internal_node_id":"0.0-108.0"},{"result":173,"points":0,"place":5,"phase":1,"sequence":24,"prices":[181,130,116,142,157,193,165,218,173,207],"times":[578,436,707,2308,744,1165,991,642,1059],"next_num":9,"trial_type":"ticket-choose","trial_index":109,"time_elapsed":1585311,"internal_node_id":"0.0-109.0"},{"result":138,"points":1,"place":2,"phase":1,"sequence":25,"prices":[181,138,118,170,190,101,146,169,175,233],"times":[1616,925],"next_num":2,"trial_type":"ticket-choose","trial_index":110,"time_elapsed":1589816,"internal_node_id":"0.0-110.0"},{"result":149,"points":1,"place":2,"phase":1,"sequence":26,"prices":[170,193,146,268,178,195,172,149,126,241],"times":[891,1112,1075,584,566,562,611,1016],"next_num":8,"trial_type":"ticket-choose","trial_index":111,"time_elapsed":1599582,"internal_node_id":"0.0-111.0"},{"result":114,"points":3,"place":0,"phase":1,"sequence":27,"prices":[182,249,159,114,184,205,175,189,172,178],"times":[1048,1047,748,884],"next_num":4,"trial_type":"ticket-choose","trial_index":112,"time_elapsed":1605872,"internal_node_id":"0.0-112.0"},{"result":146,"points":3,"place":0,"phase":1,"sequence":28,"prices":[156,218,212,216,191,210,275,146,174,152],"times":[812,638,596,597,625,597,579,1152],"next_num":8,"trial_type":"ticket-choose","trial_index":113,"time_elapsed":1614873,"internal_node_id":"0.0-113.0"},{"result":126,"points":3,"place":0,"phase":1,"sequence":29,"prices":[169,193,154,255,178,194,176,158,239,126],"times":[1361,598,1399,581,781,537,545,904,648,1066],"next_num":10,"trial_type":"ticket-choose","trial_index":114,"time_elapsed":1627193,"internal_node_id":"0.0-114.0"},{"result":133,"points":3,"place":0,"phase":1,"sequence":30,"prices":[168,192,154,237,182,196,176,156,235,133],"times":[7253,662,904,561,537,648,608,1338,1807,972],"next_num":10,"trial_type":"ticket-choose","trial_index":115,"time_elapsed":1647377,"internal_node_id":"0.0-115.0"},{"result":125,"points":3,"place":0,"phase":1,"sequence":31,"prices":[169,192,176,244,178,194,154,159,237,125],"times":[1639,717,592,517,723,577,1222,850,886,870],"next_num":10,"trial_type":"ticket-choose","trial_index":116,"time_elapsed":1659865,"internal_node_id":"0.0-116.0"},{"result":187,"points":0,"place":7,"phase":1,"sequence":32,"prices":[186,146,191,179,152,116,140,201,172,187],"times":[1072,430,533,505,522,536,1753,612,587,1418],"next_num":10,"trial_type":"ticket-choose","trial_index":117,"time_elapsed":1671719,"internal_node_id":"0.0-117.0"},{"result":119,"points":3,"place":0,"phase":1,"sequence":33,"prices":[198,119,169,141,195,233,136,208,177,217],"times":[1042,977],"next_num":2,"trial_type":"ticket-choose","trial_index":118,"time_elapsed":1675803,"internal_node_id":"0.0-118.0"},{"result":192,"points":1,"place":4,"phase":1,"sequence":34,"prices":[157,205,161,175,197,254,165,210,214,192],"times":[968,727,766,618,662,597,782,638,694,1733],"next_num":10,"trial_type":"ticket-choose","trial_index":119,"time_elapsed":1687825,"internal_node_id":"0.0-119.0"},{"result":149,"points":3,"place":0,"phase":1,"sequence":35,"prices":[244,203,196,189,154,206,197,149,171,159],"times":[1115,585,587,593,1539,603,561,939],"next_num":8,"trial_type":"ticket-choose","trial_index":120,"time_elapsed":1697675,"internal_node_id":"0.0-120.0"},{"result":150,"points":3,"place":0,"phase":1,"sequence":36,"prices":[197,153,181,215,150,155,164,247,177,162],"times":[1079,824,839,556,1012],"next_num":5,"trial_type":"ticket-choose","trial_index":121,"time_elapsed":1704651,"internal_node_id":"0.0-121.0"},{"result":136,"points":2,"place":1,"phase":1,"sequence":37,"prices":[172,194,174,243,182,193,136,150,237,126],"times":[879,841,641,592,722,598,903],"next_num":7,"trial_type":"ticket-choose","trial_index":122,"time_elapsed":1712881,"internal_node_id":"0.0-122.0"},{"result":121,"points":3,"place":0,"phase":1,"sequence":38,"prices":[121,191,128,141,166,217,129,196,202,157],"times":[977],"next_num":1,"trial_type":"ticket-choose","trial_index":123,"time_elapsed":1715817,"internal_node_id":"0.0-123.0"},{"result":136,"points":2,"place":1,"phase":1,"sequence":39,"prices":[171,192,136,265,180,194,174,152,239,127],"times":[1058,562,2588],"next_num":3,"trial_type":"ticket-choose","trial_index":124,"time_elapsed":1722208,"internal_node_id":"0.0-124.0"},{"result":128,"points":3,"place":0,"phase":1,"sequence":40,"prices":[171,192,136,243,182,195,174,154,236,128],"times":[891,889,991,496,532,545,548,615,841,824],"next_num":10,"trial_type":"ticket-choose","trial_index":125,"time_elapsed":1733181,"internal_node_id":"0.0-125.0"},{"result":136,"points":2,"place":1,"phase":1,"sequence":41,"prices":[173,191,174,270,180,193,136,153,239,129],"times":[2751,572,479,526,522,631,1590],"next_num":7,"trial_type":"ticket-choose","trial_index":126,"time_elapsed":1743475,"internal_node_id":"0.0-126.0"},{"result":179,"points":1,"place":4,"phase":1,"sequence":42,"prices":[132,222,144,153,190,248,151,224,228,179],"times":[1192,564,548,828,552,678,596,657,798,1298],"next_num":11,"trial_type":"ticket-choose","trial_index":127,"time_elapsed":1755617,"internal_node_id":"0.0-127.0"},{"result":105,"points":3,"place":0,"phase":1,"sequence":43,"prices":[263,165,224,214,105,230,215,185,177,193],"times":[1080,980,482,530,1007],"next_num":5,"trial_type":"ticket-choose","trial_index":128,"time_elapsed":1762360,"internal_node_id":"0.0-128.0"},{"result":136,"points":2,"place":1,"phase":1,"sequence":44,"prices":[169,192,174,246,180,195,136,152,238,126],"times":[748,501,733,651,703,817,939],"next_num":7,"trial_type":"ticket-choose","trial_index":129,"time_elapsed":1770563,"internal_node_id":"0.0-129.0"},{"result":150,"points":1,"place":2,"phase":1,"sequence":45,"prices":[169,193,146,237,180,196,172,150,129,236],"times":[817,590,662,591,663,728,723,1247],"next_num":8,"trial_type":"ticket-choose","trial_index":130,"time_elapsed":1780041,"internal_node_id":"0.0-130.0"},{"result":159,"points":1,"place":2,"phase":1,"sequence":46,"prices":[170,193,176,245,178,194,154,159,236,126],"times":[1001,723,581,582,642,622,644,1427],"next_num":8,"trial_type":"ticket-choose","trial_index":131,"time_elapsed":1789652,"internal_node_id":"0.0-131.0"},{"result":117,"points":3,"place":0,"phase":1,"sequence":47,"prices":[117,161,120,147,153,259,144,191,195,149],"times":[1086],"next_num":1,"trial_type":"ticket-choose","trial_index":132,"time_elapsed":1792826,"internal_node_id":"0.0-132.0"},{"result":146,"points":2,"place":1,"phase":1,"sequence":48,"prices":[168,191,172,240,183,193,146,151,125,238],"times":[1858,767,578,683,641,596,978],"next_num":7,"trial_type":"ticket-choose","trial_index":133,"time_elapsed":1802102,"internal_node_id":"0.0-133.0"},{"result":124,"points":3,"place":0,"phase":1,"sequence":49,"prices":[219,183,227,124,176,161,140,129,171,201],"times":[898,976,1585,1109],"next_num":4,"trial_type":"ticket-choose","trial_index":134,"time_elapsed":1809188,"internal_node_id":"0.0-134.0"},{"responses":[{"value":0,"offby":-1,"category":"$90 - $120","category_index":0},{"value":5,"offby":2,"category":"$121 - $145","category_index":1},{"value":3,"offby":0,"category":"$146 - $170","category_index":2},{"value":4,"offby":-2,"category":"$171 - $195","category_index":3},{"value":4,"offby":0,"category":"$196 - $220","category_index":4},{"value":2,"offby":0,"category":"$221 - $245","category_index":5},{"value":2,"offby":1,"category":"$246 - $270","category_index":6}],"phase":1,"number":1,"trial_type":"bar-choose","trial_index":135,"time_elapsed":1851117,"internal_node_id":"0.0-135.0"},{"special_comment":"no","trial_type":"special_sequence","trial_index":136,"time_elapsed":1856433,"internal_node_id":"0.0-136.0"},{"during":"Nothing","bonus":272,"trial_type":"final","trial_index":137,"time_elapsed":1874165,"internal_node_id":"0.0-137.0"}],"bonus":272}