{"start_time":"2017-02-15 09:53:20","end_time":"2017-02-15 10:10:10","points_phase0":106,"points_phase1":83,"phase_order":0,"age":41,"gender":"f","tries":1,"during":"Nothing","worker_id":"AKLV0WIZZ356X","assignment_id":"3CCZ6YKWR8CAZJKMZ22W8VDC0GZ59I","data":[{"rt":7425,"url":"\/tickets\/utils\/consent.html","trial_type":"html","trial_index":0,"time_elapsed":7546,"internal_node_id":"0.0-0.0"},{"age":41,"gender":"f","trial_type":"age","trial_index":1,"time_elapsed":13253,"internal_node_id":"0.0-1.0"},{"worker_id":"AKLV0WIZZ356X","trial_type":"workerid","trial_index":2,"time_elapsed":22196,"internal_node_id":"0.0-2.0"},{"tries":1,"trial_type":"instructions_check","trial_index":3,"time_elapsed":64766,"internal_node_id":"0.0-3.0"},{"rt":8725,"url":"\/tickets\/utils\/start.html","trial_type":"html","trial_index":4,"time_elapsed":74601,"internal_node_id":"0.0-4.0"},{"trial_type":"number-animation","trial_index":5,"time_elapsed":82884,"internal_node_id":"0.0-5.0"},{"phase":0,"sequence":0,"avg":181,"response":180,"trial_type":"training_avg","trial_index":6,"time_elapsed":91589,"internal_node_id":"0.0-6.0"},{"trial_type":"number-animation","trial_index":7,"time_elapsed":99034,"internal_node_id":"0.0-7.0"},{"phase":0,"sequence":1,"avg":188,"response":191,"trial_type":"training_avg","trial_index":8,"time_elapsed":107025,"internal_node_id":"0.0-8.0"},{"trial_type":"number-animation","trial_index":9,"time_elapsed":113353,"internal_node_id":"0.0-9.0"},{"phase":0,"sequence":2,"avg":188,"response":193,"trial_type":"training_avg","trial_index":10,"time_elapsed":121828,"internal_node_id":"0.0-10.0"},{"trial_type":"number-animation","trial_index":11,"time_elapsed":128842,"internal_node_id":"0.0-11.0"},{"phase":0,"sequence":3,"avg":177,"response":181,"trial_type":"training_avg","trial_index":12,"time_elapsed":134736,"internal_node_id":"0.0-12.0"},{"trial_type":"number-animation","trial_index":13,"time_elapsed":141641,"internal_node_id":"0.0-13.0"},{"phase":0,"sequence":4,"avg":182,"response":171,"trial_type":"training_avg","trial_index":14,"time_elapsed":149273,"internal_node_id":"0.0-14.0"},{"responses":[{"value":2,"offby":2,"category":"$106 - $134","category_index":0},{"value":2,"offby":1,"category":"$135 - $150","category_index":1},{"value":3,"offby":0,"category":"$151 - $165","category_index":2},{"value":3,"offby":-3,"category":"$166 - $180","category_index":3},{"value":6,"offby":0,"category":"$181 - $195","category_index":4},{"value":2,"offby":-1,"category":"$196 - $210","category_index":5},{"value":2,"offby":1,"category":"$211 - $225","category_index":6}],"phase":0,"number":0,"trial_type":"bar-choose","trial_index":15,"time_elapsed":227107,"internal_node_id":"0.0-15.0"},{"rt":11423,"url":"\/tickets\/\/utils\/testing.html","trial_type":"html","trial_index":16,"time_elapsed":239636,"internal_node_id":"0.0-16.0"},{"phase":0,"order":[28,0,33,45,1,19,5,29,10,22,49,41,39,20,44,40,3,43,15,9,21,46,4,32,17,13,47,8,2,48,27,26,35,38,18,31,36,42,30,11,23,6,12,37,16,24,7,34,14,25],"trial_type":"store_order","trial_index":17,"time_elapsed":240637,"internal_node_id":"0.0-17.0"},{"result":165,"points":2,"place":1,"phase":0,"sequence":-1,"times":[2652,878,607,1436],"next_num":4,"trial_type":"ticket-choose","trial_index":18,"time_elapsed":249594,"internal_node_id":"0.0-18.0"},{"rt":3963,"url":"\/tickets\/utils\/testing_after.html","trial_type":"html","trial_index":19,"time_elapsed":254674,"internal_node_id":"0.0-19.0"},{"result":169,"points":3,"place":0,"phase":0,"sequence":0,"times":[5693],"next_num":1,"trial_type":"ticket-choose","trial_index":20,"time_elapsed":265901,"internal_node_id":"0.0-20.0"},{"result":163,"points":2,"place":1,"phase":0,"sequence":1,"times":[1371,582,1312],"next_num":3,"trial_type":"ticket-choose","trial_index":21,"time_elapsed":272552,"internal_node_id":"0.0-21.0"},{"result":159,"points":3,"place":0,"phase":0,"sequence":2,"times":[1459],"next_num":1,"trial_type":"ticket-choose","trial_index":22,"time_elapsed":276444,"internal_node_id":"0.0-22.0"},{"result":167,"points":2,"place":1,"phase":0,"sequence":3,"times":[973,726,615,951,1131],"next_num":5,"trial_type":"ticket-choose","trial_index":23,"time_elapsed":283989,"internal_node_id":"0.0-23.0"},{"result":163,"points":2,"place":1,"phase":0,"sequence":4,"times":[884,551,1148],"next_num":3,"trial_type":"ticket-choose","trial_index":24,"time_elapsed":289126,"internal_node_id":"0.0-24.0"},{"result":158,"points":2,"place":1,"phase":0,"sequence":5,"times":[564,519,1272],"next_num":3,"trial_type":"ticket-choose","trial_index":25,"time_elapsed":293953,"internal_node_id":"0.0-25.0"},{"result":163,"points":2,"place":1,"phase":0,"sequence":6,"times":[560,519,631,565,646,863,1086],"next_num":7,"trial_type":"ticket-choose","trial_index":26,"time_elapsed":302059,"internal_node_id":"0.0-26.0"},{"result":150,"points":3,"place":0,"phase":0,"sequence":7,"times":[1176],"next_num":1,"trial_type":"ticket-choose","trial_index":27,"time_elapsed":305754,"internal_node_id":"0.0-27.0"},{"result":167,"points":2,"place":1,"phase":0,"sequence":8,"times":[1016,550,1128],"next_num":3,"trial_type":"ticket-choose","trial_index":28,"time_elapsed":310938,"internal_node_id":"0.0-28.0"},{"result":158,"points":2,"place":1,"phase":0,"sequence":9,"times":[566,494,391,510,598,519,1188],"next_num":7,"trial_type":"ticket-choose","trial_index":29,"time_elapsed":318367,"internal_node_id":"0.0-29.0"},{"result":163,"points":1,"place":2,"phase":0,"sequence":10,"times":[578,1718],"next_num":2,"trial_type":"ticket-choose","trial_index":30,"time_elapsed":323177,"internal_node_id":"0.0-30.0"},{"result":155,"points":2,"place":1,"phase":0,"sequence":11,"times":[537,471,1428],"next_num":3,"trial_type":"ticket-choose","trial_index":31,"time_elapsed":328037,"internal_node_id":"0.0-31.0"},{"result":171,"points":1,"place":3,"phase":0,"sequence":12,"times":[508,541,486,422,486,551,542,534,566,1367],"next_num":10,"trial_type":"ticket-choose","trial_index":32,"time_elapsed":338706,"internal_node_id":"0.0-32.0"},{"result":158,"points":2,"place":1,"phase":0,"sequence":13,"times":[502,421,511,495,559,527,1268],"next_num":7,"trial_type":"ticket-choose","trial_index":33,"time_elapsed":346261,"internal_node_id":"0.0-33.0"},{"result":159,"points":1,"place":2,"phase":0,"sequence":14,"times":[468,1200],"next_num":2,"trial_type":"ticket-choose","trial_index":34,"time_elapsed":350057,"internal_node_id":"0.0-34.0"},{"result":150,"points":3,"place":0,"phase":0,"sequence":15,"times":[457,1119],"next_num":2,"trial_type":"ticket-choose","trial_index":35,"time_elapsed":354039,"internal_node_id":"0.0-35.0"},{"result":153,"points":3,"place":0,"phase":0,"sequence":16,"times":[378,479,447,551,479,471,503,510,1127],"next_num":9,"trial_type":"ticket-choose","trial_index":36,"time_elapsed":362695,"internal_node_id":"0.0-36.0"},{"result":170,"points":2,"place":1,"phase":0,"sequence":17,"times":[514,463,462,1214,551,487,567,503,519,801],"next_num":10,"trial_type":"ticket-choose","trial_index":37,"time_elapsed":372659,"internal_node_id":"0.0-37.0"},{"result":167,"points":2,"place":1,"phase":0,"sequence":18,"times":[454,447,430,558,478,758,1260],"next_num":7,"trial_type":"ticket-choose","trial_index":38,"time_elapsed":380228,"internal_node_id":"0.0-38.0"},{"result":168,"points":1,"place":2,"phase":0,"sequence":19,"times":[364,503,943,526,591,479,543,1092],"next_num":8,"trial_type":"ticket-choose","trial_index":39,"time_elapsed":388798,"internal_node_id":"0.0-39.0"},{"result":158,"points":2,"place":1,"phase":0,"sequence":20,"times":[354,486,454,495,510,534,1324],"next_num":7,"trial_type":"ticket-choose","trial_index":40,"time_elapsed":396087,"internal_node_id":"0.0-40.0"},{"result":158,"points":3,"place":0,"phase":0,"sequence":21,"times":[538,447,504,550,502,1431],"next_num":6,"trial_type":"ticket-choose","trial_index":41,"time_elapsed":403020,"internal_node_id":"0.0-41.0"},{"result":153,"points":3,"place":0,"phase":0,"sequence":22,"times":[436,510,232,325,312,423,413,470,1264],"next_num":9,"trial_type":"ticket-choose","trial_index":42,"time_elapsed":411027,"internal_node_id":"0.0-42.0"},{"result":161,"points":3,"place":0,"phase":0,"sequence":23,"times":[1248],"next_num":1,"trial_type":"ticket-choose","trial_index":43,"time_elapsed":414259,"internal_node_id":"0.0-43.0"},{"result":158,"points":2,"place":1,"phase":0,"sequence":24,"times":[1205,502,1321],"next_num":3,"trial_type":"ticket-choose","trial_index":44,"time_elapsed":419640,"internal_node_id":"0.0-44.0"},{"result":167,"points":2,"place":1,"phase":0,"sequence":25,"times":[425,470,479,479,526,454,1304],"next_num":7,"trial_type":"ticket-choose","trial_index":45,"time_elapsed":426991,"internal_node_id":"0.0-45.0"},{"result":152,"points":3,"place":0,"phase":0,"sequence":26,"times":[442,543,398,1282],"next_num":4,"trial_type":"ticket-choose","trial_index":46,"time_elapsed":432244,"internal_node_id":"0.0-46.0"},{"result":156,"points":3,"place":0,"phase":0,"sequence":27,"times":[428,351,1135,471,479,462,462,958,542,654],"next_num":10,"trial_type":"ticket-choose","trial_index":47,"time_elapsed":442129,"internal_node_id":"0.0-47.0"},{"result":153,"points":3,"place":0,"phase":0,"sequence":28,"times":[496,407,407,510,543,510,606,1207,1064],"next_num":9,"trial_type":"ticket-choose","trial_index":48,"time_elapsed":451352,"internal_node_id":"0.0-48.0"},{"result":179,"points":1,"place":4,"phase":0,"sequence":29,"times":[383,774,359,479,710,534,590,574,999,732],"next_num":10,"trial_type":"ticket-choose","trial_index":49,"time_elapsed":461310,"internal_node_id":"0.0-49.0"},{"result":186,"points":1,"place":4,"phase":0,"sequence":30,"times":[498,463,623,431,479,519,487,487,574,822],"next_num":10,"trial_type":"ticket-choose","trial_index":50,"time_elapsed":470486,"internal_node_id":"0.0-50.0"},{"result":180,"points":1,"place":4,"phase":0,"sequence":31,"times":[410,430,1550,551,599,527,599,552,582,626],"next_num":10,"trial_type":"ticket-choose","trial_index":51,"time_elapsed":480682,"internal_node_id":"0.0-51.0"},{"result":154,"points":2,"place":1,"phase":0,"sequence":32,"times":[390,1214],"next_num":2,"trial_type":"ticket-choose","trial_index":52,"time_elapsed":484320,"internal_node_id":"0.0-52.0"},{"result":166,"points":2,"place":1,"phase":0,"sequence":33,"times":[424,509,646,511,583,494,575,502,1183,573],"next_num":10,"trial_type":"ticket-choose","trial_index":53,"time_elapsed":494008,"internal_node_id":"0.0-53.0"},{"result":158,"points":2,"place":1,"phase":0,"sequence":34,"times":[448,559,1314],"next_num":3,"trial_type":"ticket-choose","trial_index":54,"time_elapsed":498538,"internal_node_id":"0.0-54.0"},{"result":150,"points":2,"place":1,"phase":0,"sequence":35,"times":[348,685,984],"next_num":3,"trial_type":"ticket-choose","trial_index":55,"time_elapsed":502808,"internal_node_id":"0.0-55.0"},{"result":154,"points":3,"place":0,"phase":0,"sequence":36,"times":[408,518,766,471,423,463,399,1480],"next_num":8,"trial_type":"ticket-choose","trial_index":56,"time_elapsed":515050,"internal_node_id":"0.0-56.0"},{"result":143,"points":3,"place":0,"phase":0,"sequence":37,"times":[509,654,567,526,1418],"next_num":5,"trial_type":"ticket-choose","trial_index":57,"time_elapsed":521615,"internal_node_id":"0.0-57.0"},{"result":157,"points":3,"place":0,"phase":0,"sequence":38,"times":[1533],"next_num":1,"trial_type":"ticket-choose","trial_index":58,"time_elapsed":525044,"internal_node_id":"0.0-58.0"},{"result":167,"points":2,"place":1,"phase":0,"sequence":39,"times":[732,479,1217],"next_num":3,"trial_type":"ticket-choose","trial_index":59,"time_elapsed":529848,"internal_node_id":"0.0-59.0"},{"result":158,"points":2,"place":1,"phase":0,"sequence":40,"times":[504,518,478,534,846,543,1163],"next_num":7,"trial_type":"ticket-choose","trial_index":60,"time_elapsed":537482,"internal_node_id":"0.0-60.0"},{"result":153,"points":3,"place":0,"phase":0,"sequence":41,"times":[454,470,463,535,519,519,511,1023,888],"next_num":9,"trial_type":"ticket-choose","trial_index":61,"time_elapsed":546294,"internal_node_id":"0.0-61.0"},{"result":167,"points":2,"place":1,"phase":0,"sequence":42,"times":[353,477,447,582,566,486,1208],"next_num":7,"trial_type":"ticket-choose","trial_index":62,"time_elapsed":553429,"internal_node_id":"0.0-62.0"},{"result":163,"points":2,"place":1,"phase":0,"sequence":43,"times":[354,487,423,1468],"next_num":4,"trial_type":"ticket-choose","trial_index":63,"time_elapsed":558588,"internal_node_id":"0.0-63.0"},{"result":158,"points":2,"place":1,"phase":0,"sequence":44,"times":[411,534,1236],"next_num":3,"trial_type":"ticket-choose","trial_index":64,"time_elapsed":562939,"internal_node_id":"0.0-64.0"},{"result":184,"points":1,"place":4,"phase":0,"sequence":45,"times":[387,510,519,510,479,670,575,567,560,787],"next_num":10,"trial_type":"ticket-choose","trial_index":65,"time_elapsed":572339,"internal_node_id":"0.0-65.0"},{"result":163,"points":2,"place":1,"phase":0,"sequence":46,"times":[572,479,503,447,462,551,1144],"next_num":7,"trial_type":"ticket-choose","trial_index":66,"time_elapsed":579559,"internal_node_id":"0.0-66.0"},{"result":155,"points":2,"place":1,"phase":0,"sequence":47,"times":[430,1263],"next_num":2,"trial_type":"ticket-choose","trial_index":67,"time_elapsed":583255,"internal_node_id":"0.0-67.0"},{"result":167,"points":2,"place":1,"phase":0,"sequence":48,"times":[345,461,494,439,463,503,1040],"next_num":7,"trial_type":"ticket-choose","trial_index":68,"time_elapsed":590012,"internal_node_id":"0.0-68.0"},{"result":179,"points":1,"place":4,"phase":0,"sequence":49,"times":[1540,533,478,502,582,470,702,486,574,837],"next_num":10,"trial_type":"ticket-choose","trial_index":69,"time_elapsed":600790,"internal_node_id":"0.0-69.0"},{"responses":[{"value":1,"offby":1,"category":"$106 - $134","category_index":0},{"value":2,"offby":1,"category":"$135 - $150","category_index":1},{"value":4,"offby":1,"category":"$151 - $165","category_index":2},{"value":4,"offby":-2,"category":"$166 - $180","category_index":3},{"value":4,"offby":-2,"category":"$181 - $195","category_index":4},{"value":3,"offby":0,"category":"$196 - $210","category_index":5},{"value":2,"offby":1,"category":"$211 - $225","category_index":6}],"phase":0,"number":1,"trial_type":"bar-choose","trial_index":70,"time_elapsed":625742,"internal_node_id":"0.0-70.0"},{"rt":4383,"url":"\/tickets\/utils\/start2.html","trial_type":"html","trial_index":71,"time_elapsed":631230,"internal_node_id":"0.0-71.0"},{"trial_type":"number-animation","trial_index":72,"time_elapsed":639351,"internal_node_id":"0.0-72.0"},{"phase":1,"sequence":0,"avg":182,"response":166,"trial_type":"training_avg","trial_index":73,"time_elapsed":647579,"internal_node_id":"0.0-73.0"},{"trial_type":"number-animation","trial_index":74,"time_elapsed":653590,"internal_node_id":"0.0-74.0"},{"phase":1,"sequence":1,"avg":188,"response":175,"trial_type":"training_avg","trial_index":75,"time_elapsed":662821,"internal_node_id":"0.0-75.0"},{"trial_type":"number-animation","trial_index":76,"time_elapsed":669022,"internal_node_id":"0.0-76.0"},{"phase":1,"sequence":2,"avg":176,"response":172,"trial_type":"training_avg","trial_index":77,"time_elapsed":675231,"internal_node_id":"0.0-77.0"},{"trial_type":"number-animation","trial_index":78,"time_elapsed":681918,"internal_node_id":"0.0-78.0"},{"phase":1,"sequence":3,"avg":180,"response":165,"trial_type":"training_avg","trial_index":79,"time_elapsed":687623,"internal_node_id":"0.0-79.0"},{"trial_type":"number-animation","trial_index":80,"time_elapsed":694037,"internal_node_id":"0.0-80.0"},{"phase":1,"sequence":4,"avg":174,"response":184,"trial_type":"training_avg","trial_index":81,"time_elapsed":701382,"internal_node_id":"0.0-81.0"},{"responses":[{"value":1,"offby":0,"category":"$90 - $120","category_index":0},{"value":2,"offby":-1,"category":"$121 - $145","category_index":1},{"value":2,"offby":-1,"category":"$146 - $170","category_index":2},{"value":4,"offby":-2,"category":"$171 - $195","category_index":3},{"value":6,"offby":2,"category":"$196 - $220","category_index":4},{"value":3,"offby":1,"category":"$221 - $245","category_index":5},{"value":2,"offby":1,"category":"$246 - $270","category_index":6}],"phase":1,"number":0,"trial_type":"bar-choose","trial_index":82,"time_elapsed":718997,"internal_node_id":"0.0-82.0"},{"rt":2543,"url":"\/tickets\/utils\/testing2.html","trial_type":"html","trial_index":83,"time_elapsed":722645,"internal_node_id":"0.0-83.0"},{"phase":1,"order":[4,12,32,40,43,48,33,9,29,46,6,16,21,3,10,20,37,28,31,42,49,45,15,14,19,7,44,0,23,1,34,2,17,47,18,41,27,13,25,36,35,11,24,30,22,39,8,38,26,5],"trial_type":"store_order","trial_index":84,"time_elapsed":723647,"internal_node_id":"0.0-84.0"},{"result":146,"points":2,"place":1,"phase":1,"sequence":0,"times":[2085,247,400,294,711,527,1725],"next_num":7,"trial_type":"ticket-choose","trial_index":85,"time_elapsed":733080,"internal_node_id":"0.0-85.0"},{"result":154,"points":2,"place":1,"phase":1,"sequence":1,"times":[300,302,487,262,726,574,1183],"next_num":7,"trial_type":"ticket-choose","trial_index":86,"time_elapsed":740180,"internal_node_id":"0.0-86.0"},{"result":168,"points":1,"place":2,"phase":1,"sequence":2,"times":[394,711,215,575,527,479,682],"next_num":7,"trial_type":"ticket-choose","trial_index":87,"time_elapsed":747048,"internal_node_id":"0.0-87.0"},{"result":169,"points":1,"place":3,"phase":1,"sequence":3,"times":[445,510,804],"next_num":3,"trial_type":"ticket-choose","trial_index":88,"time_elapsed":751098,"internal_node_id":"0.0-88.0"},{"result":135,"points":3,"place":0,"phase":1,"sequence":4,"times":[347,694,1006],"next_num":3,"trial_type":"ticket-choose","trial_index":89,"time_elapsed":755356,"internal_node_id":"0.0-89.0"},{"result":159,"points":2,"place":1,"phase":1,"sequence":5,"times":[362,615,586],"next_num":3,"trial_type":"ticket-choose","trial_index":90,"time_elapsed":759048,"internal_node_id":"0.0-90.0"},{"result":137,"points":3,"place":0,"phase":1,"sequence":6,"times":[845],"next_num":1,"trial_type":"ticket-choose","trial_index":91,"time_elapsed":761676,"internal_node_id":"0.0-91.0"},{"result":154,"points":2,"place":1,"phase":1,"sequence":7,"times":[841,503,636],"next_num":3,"trial_type":"ticket-choose","trial_index":92,"time_elapsed":765842,"internal_node_id":"0.0-92.0"},{"result":128,"points":2,"place":1,"phase":1,"sequence":8,"times":[395,750,657],"next_num":3,"trial_type":"ticket-choose","trial_index":93,"time_elapsed":769766,"internal_node_id":"0.0-93.0"},{"result":136,"points":3,"place":0,"phase":1,"sequence":9,"times":[535,726,519,487,511,958],"next_num":6,"trial_type":"ticket-choose","trial_index":94,"time_elapsed":776356,"internal_node_id":"0.0-94.0"},{"result":168,"points":1,"place":3,"phase":1,"sequence":10,"times":[2656],"next_num":1,"trial_type":"ticket-choose","trial_index":95,"time_elapsed":781484,"internal_node_id":"0.0-95.0"},{"result":136,"points":2,"place":1,"phase":1,"sequence":11,"times":[865,462,564],"next_num":3,"trial_type":"ticket-choose","trial_index":96,"time_elapsed":785609,"internal_node_id":"0.0-96.0"},{"result":136,"points":2,"place":1,"phase":1,"sequence":12,"times":[412,534,567,552,654,519,812],"next_num":7,"trial_type":"ticket-choose","trial_index":97,"time_elapsed":792738,"internal_node_id":"0.0-97.0"},{"result":146,"points":2,"place":1,"phase":1,"sequence":13,"times":[461,549,645],"next_num":3,"trial_type":"ticket-choose","trial_index":98,"time_elapsed":796532,"internal_node_id":"0.0-98.0"},{"result":169,"points":1,"place":3,"phase":1,"sequence":14,"times":[1417],"next_num":1,"trial_type":"ticket-choose","trial_index":99,"time_elapsed":799740,"internal_node_id":"0.0-99.0"},{"result":169,"points":1,"place":3,"phase":1,"sequence":15,"times":[849],"next_num":1,"trial_type":"ticket-choose","trial_index":100,"time_elapsed":802291,"internal_node_id":"0.0-100.0"},{"result":216,"points":0,"place":8,"phase":1,"sequence":16,"times":[634],"next_num":1,"trial_type":"ticket-choose","trial_index":101,"time_elapsed":804749,"internal_node_id":"0.0-101.0"},{"result":159,"points":2,"place":1,"phase":1,"sequence":17,"times":[431,533,621],"next_num":3,"trial_type":"ticket-choose","trial_index":102,"time_elapsed":808772,"internal_node_id":"0.0-102.0"},{"result":117,"points":3,"place":0,"phase":1,"sequence":18,"times":[647],"next_num":1,"trial_type":"ticket-choose","trial_index":103,"time_elapsed":811148,"internal_node_id":"0.0-103.0"},{"result":165,"points":2,"place":1,"phase":1,"sequence":19,"times":[498,574],"next_num":2,"trial_type":"ticket-choose","trial_index":104,"time_elapsed":814156,"internal_node_id":"0.0-104.0"},{"result":146,"points":1,"place":2,"phase":1,"sequence":20,"times":[489,614],"next_num":2,"trial_type":"ticket-choose","trial_index":105,"time_elapsed":817172,"internal_node_id":"0.0-105.0"},{"result":203,"points":0,"place":7,"phase":1,"sequence":21,"times":[393,526],"next_num":2,"trial_type":"ticket-choose","trial_index":106,"time_elapsed":820075,"internal_node_id":"0.0-106.0"},{"result":154,"points":2,"place":1,"phase":1,"sequence":22,"times":[392,535,503,559,583,534,574],"next_num":7,"trial_type":"ticket-choose","trial_index":107,"time_elapsed":826804,"internal_node_id":"0.0-107.0"},{"result":154,"points":2,"place":1,"phase":1,"sequence":23,"times":[345,558,550,558,630,583,805],"next_num":7,"trial_type":"ticket-choose","trial_index":108,"time_elapsed":833916,"internal_node_id":"0.0-108.0"},{"result":136,"points":2,"place":1,"phase":1,"sequence":24,"times":[560,495,766],"next_num":3,"trial_type":"ticket-choose","trial_index":109,"time_elapsed":837859,"internal_node_id":"0.0-109.0"},{"result":172,"points":1,"place":4,"phase":1,"sequence":25,"times":[2282,550,490],"next_num":3,"trial_type":"ticket-choose","trial_index":110,"time_elapsed":843439,"internal_node_id":"0.0-110.0"},{"result":138,"points":1,"place":2,"phase":1,"sequence":26,"times":[677,619],"next_num":2,"trial_type":"ticket-choose","trial_index":111,"time_elapsed":846736,"internal_node_id":"0.0-111.0"},{"result":191,"points":0,"place":6,"phase":1,"sequence":27,"times":[381,489],"next_num":2,"trial_type":"ticket-choose","trial_index":112,"time_elapsed":849555,"internal_node_id":"0.0-112.0"},{"result":174,"points":1,"place":4,"phase":1,"sequence":28,"times":[481,607,533],"next_num":3,"trial_type":"ticket-choose","trial_index":113,"time_elapsed":853313,"internal_node_id":"0.0-113.0"},{"result":146,"points":2,"place":1,"phase":1,"sequence":29,"times":[388,607,576],"next_num":3,"trial_type":"ticket-choose","trial_index":114,"time_elapsed":857021,"internal_node_id":"0.0-114.0"},{"result":130,"points":2,"place":1,"phase":1,"sequence":30,"times":[359,660],"next_num":2,"trial_type":"ticket-choose","trial_index":115,"time_elapsed":860113,"internal_node_id":"0.0-115.0"},{"result":146,"points":2,"place":1,"phase":1,"sequence":31,"times":[619,527,586],"next_num":3,"trial_type":"ticket-choose","trial_index":116,"time_elapsed":863974,"internal_node_id":"0.0-116.0"},{"result":136,"points":2,"place":1,"phase":1,"sequence":32,"times":[407,527,564],"next_num":3,"trial_type":"ticket-choose","trial_index":117,"time_elapsed":867785,"internal_node_id":"0.0-117.0"},{"result":183,"points":0,"place":6,"phase":1,"sequence":33,"times":[2292,645],"next_num":2,"trial_type":"ticket-choose","trial_index":118,"time_elapsed":872635,"internal_node_id":"0.0-118.0"},{"result":136,"points":2,"place":1,"phase":1,"sequence":34,"times":[504,566,564],"next_num":3,"trial_type":"ticket-choose","trial_index":119,"time_elapsed":876433,"internal_node_id":"0.0-119.0"},{"result":234,"points":0,"place":9,"phase":1,"sequence":35,"times":[411,568],"next_num":2,"trial_type":"ticket-choose","trial_index":120,"time_elapsed":879358,"internal_node_id":"0.0-120.0"},{"result":161,"points":2,"place":1,"phase":1,"sequence":36,"times":[399,543,533],"next_num":3,"trial_type":"ticket-choose","trial_index":121,"time_elapsed":883185,"internal_node_id":"0.0-121.0"},{"result":183,"points":0,"place":5,"phase":1,"sequence":37,"times":[339,607,583,558,584],"next_num":5,"trial_type":"ticket-choose","trial_index":122,"time_elapsed":888388,"internal_node_id":"0.0-122.0"},{"result":144,"points":2,"place":1,"phase":1,"sequence":38,"times":[361,574,658],"next_num":3,"trial_type":"ticket-choose","trial_index":123,"time_elapsed":892159,"internal_node_id":"0.0-123.0"},{"result":149,"points":2,"place":1,"phase":1,"sequence":39,"times":[389,566,550],"next_num":3,"trial_type":"ticket-choose","trial_index":124,"time_elapsed":895835,"internal_node_id":"0.0-124.0"},{"result":155,"points":1,"place":2,"phase":1,"sequence":40,"times":[23296],"next_num":1,"trial_type":"ticket-choose","trial_index":125,"time_elapsed":921239,"internal_node_id":"0.0-125.0"},{"result":154,"points":2,"place":1,"phase":1,"sequence":41,"times":[621,558,632],"next_num":3,"trial_type":"ticket-choose","trial_index":126,"time_elapsed":925353,"internal_node_id":"0.0-126.0"},{"result":142,"points":3,"place":0,"phase":1,"sequence":42,"times":[919],"next_num":1,"trial_type":"ticket-choose","trial_index":127,"time_elapsed":928021,"internal_node_id":"0.0-127.0"},{"result":135,"points":3,"place":0,"phase":1,"sequence":43,"times":[1022],"next_num":1,"trial_type":"ticket-choose","trial_index":128,"time_elapsed":930961,"internal_node_id":"0.0-128.0"},{"result":136,"points":2,"place":1,"phase":1,"sequence":44,"times":[619,487,455,502,438,447,924],"next_num":7,"trial_type":"ticket-choose","trial_index":129,"time_elapsed":937989,"internal_node_id":"0.0-129.0"},{"result":153,"points":2,"place":1,"phase":1,"sequence":45,"times":[566,850],"next_num":2,"trial_type":"ticket-choose","trial_index":130,"time_elapsed":941343,"internal_node_id":"0.0-130.0"},{"result":154,"points":2,"place":1,"phase":1,"sequence":46,"times":[1077,567,648],"next_num":3,"trial_type":"ticket-choose","trial_index":131,"time_elapsed":945956,"internal_node_id":"0.0-131.0"},{"result":156,"points":1,"place":2,"phase":1,"sequence":47,"times":[989],"next_num":1,"trial_type":"ticket-choose","trial_index":132,"time_elapsed":948823,"internal_node_id":"0.0-132.0"},{"result":124,"points":3,"place":0,"phase":1,"sequence":48,"times":[975],"next_num":1,"trial_type":"ticket-choose","trial_index":133,"time_elapsed":951667,"internal_node_id":"0.0-133.0"},{"result":150,"points":1,"place":2,"phase":1,"sequence":49,"times":[633,462,486,488,453,630,430,711],"next_num":8,"trial_type":"ticket-choose","trial_index":134,"time_elapsed":959226,"internal_node_id":"0.0-134.0"},{"responses":[{"value":3,"offby":2,"category":"$90 - $120","category_index":0},{"value":2,"offby":-1,"category":"$121 - $145","category_index":1},{"value":3,"offby":0,"category":"$146 - $170","category_index":2},{"value":3,"offby":-3,"category":"$171 - $195","category_index":3},{"value":3,"offby":-1,"category":"$196 - $220","category_index":4},{"value":3,"offby":1,"category":"$221 - $245","category_index":5},{"value":3,"offby":2,"category":"$246 - $270","category_index":6}],"phase":1,"number":1,"trial_type":"bar-choose","trial_index":135,"time_elapsed":980841,"internal_node_id":"0.0-135.0"},{"special_comment":"no","trial_type":"special_sequence","trial_index":136,"time_elapsed":985548,"internal_node_id":"0.0-136.0"},{"during":"Nothing","bonus":252,"trial_type":"final","trial_index":137,"time_elapsed":1007481,"internal_node_id":"0.0-137.0"}],"bonus":252}