{"start_time":"2017-01-26 11:44:00","end_time":"2017-01-26 12:15:42","points_phase0":118,"points_phase1":117,"phase_order":0,"age":32,"gender":"f","tries":1,"during":"Nothing","worker_id":"AKNYT1NTK2UFK","assignment_id":"3TVSS0C0E2TNWH8KT9UMPVR1C9JTWC","data":[{"rt":12107,"url":"\/tickets\/utils\/consent.html","trial_type":"html","trial_index":0,"time_elapsed":12830,"internal_node_id":"0.0-0.0"},{"age":32,"gender":"f","trial_type":"age","trial_index":1,"time_elapsed":20173,"internal_node_id":"0.0-1.0"},{"worker_id":"AKNYT1NTK2UFK","trial_type":"workerid","trial_index":2,"time_elapsed":43165,"internal_node_id":"0.0-2.0"},{"tries":1,"trial_type":"instructions_check","trial_index":3,"time_elapsed":317111,"internal_node_id":"0.0-3.0"},{"rt":13212,"url":"\/tickets\/utils\/start.html","trial_type":"html","trial_index":4,"time_elapsed":331617,"internal_node_id":"0.0-4.0"},{"trial_type":"number-animation","trial_index":5,"time_elapsed":346393,"internal_node_id":"0.0-5.0"},{"phase":0,"sequence":0,"avg":181,"response":180,"trial_type":"training_avg","trial_index":6,"time_elapsed":358775,"internal_node_id":"0.0-6.0"},{"trial_type":"number-animation","trial_index":7,"time_elapsed":370232,"internal_node_id":"0.0-7.0"},{"phase":0,"sequence":1,"avg":188,"response":197,"trial_type":"training_avg","trial_index":8,"time_elapsed":382773,"internal_node_id":"0.0-8.0"},{"trial_type":"number-animation","trial_index":9,"time_elapsed":402443,"internal_node_id":"0.0-9.0"},{"phase":0,"sequence":2,"avg":188,"response":194,"trial_type":"training_avg","trial_index":10,"time_elapsed":412244,"internal_node_id":"0.0-10.0"},{"trial_type":"number-animation","trial_index":11,"time_elapsed":420310,"internal_node_id":"0.0-11.0"},{"phase":0,"sequence":3,"avg":177,"response":170,"trial_type":"training_avg","trial_index":12,"time_elapsed":427136,"internal_node_id":"0.0-12.0"},{"trial_type":"number-animation","trial_index":13,"time_elapsed":434497,"internal_node_id":"0.0-13.0"},{"phase":0,"sequence":4,"avg":182,"response":180,"trial_type":"training_avg","trial_index":14,"time_elapsed":443359,"internal_node_id":"0.0-14.0"},{"responses":[{"value":0,"offby":0,"category":"$106 - $134","category_index":0},{"value":2,"offby":1,"category":"$135 - $150","category_index":1},{"value":3,"offby":0,"category":"$151 - $165","category_index":2},{"value":5,"offby":-1,"category":"$166 - $180","category_index":3},{"value":7,"offby":1,"category":"$181 - $195","category_index":4},{"value":1,"offby":-2,"category":"$196 - $210","category_index":5},{"value":1,"offby":0,"category":"$211 - $225","category_index":6}],"phase":0,"number":0,"trial_type":"bar-choose","trial_index":15,"time_elapsed":582170,"internal_node_id":"0.0-15.0"},{"rt":25503,"url":"\/tickets\/\/utils\/testing.html","trial_type":"html","trial_index":16,"time_elapsed":608940,"internal_node_id":"0.0-16.0"},{"phase":0,"order":[7,43,20,42,37,35,14,31,5,32,44,45,48,27,23,49,34,41,12,30,38,13,46,36,40,16,39,11,18,19,0,8,24,17,2,22,1,6,28,15,10,9,47,21,29,25,26,4,33,3],"trial_type":"store_order","trial_index":17,"time_elapsed":609953,"internal_node_id":"0.0-17.0"},{"result":165,"points":2,"place":1,"phase":0,"sequence":-1,"times":[1475,2645,621,1961],"next_num":4,"trial_type":"ticket-choose","trial_index":18,"time_elapsed":620583,"internal_node_id":"0.0-18.0"},{"rt":9698,"url":"\/tickets\/utils\/testing_after.html","trial_type":"html","trial_index":19,"time_elapsed":631556,"internal_node_id":"0.0-19.0"},{"result":155,"points":3,"place":0,"phase":0,"sequence":0,"times":[1214,412,411,605,492,648,586,656,972,2528],"next_num":10,"trial_type":"ticket-choose","trial_index":20,"time_elapsed":644841,"internal_node_id":"0.0-20.0"},{"result":164,"points":2,"place":1,"phase":0,"sequence":1,"times":[2013,1568,426,529,482,539,469,470,2109],"next_num":9,"trial_type":"ticket-choose","trial_index":21,"time_elapsed":657594,"internal_node_id":"0.0-21.0"},{"result":161,"points":3,"place":0,"phase":0,"sequence":2,"times":[2913],"next_num":1,"trial_type":"ticket-choose","trial_index":22,"time_elapsed":663217,"internal_node_id":"0.0-22.0"},{"result":143,"points":3,"place":0,"phase":0,"sequence":3,"times":[804,622,534,552,1850],"next_num":5,"trial_type":"ticket-choose","trial_index":23,"time_elapsed":671106,"internal_node_id":"0.0-23.0"},{"result":169,"points":1,"place":3,"phase":0,"sequence":4,"times":[1199,523,2376],"next_num":3,"trial_type":"ticket-choose","trial_index":24,"time_elapsed":678471,"internal_node_id":"0.0-24.0"},{"result":154,"points":2,"place":1,"phase":0,"sequence":5,"times":[7192,1615],"next_num":2,"trial_type":"ticket-choose","trial_index":25,"time_elapsed":690067,"internal_node_id":"0.0-25.0"},{"result":163,"points":3,"place":0,"phase":0,"sequence":6,"times":[909,488,464,564,579,584,618,508,2680],"next_num":9,"trial_type":"ticket-choose","trial_index":26,"time_elapsed":702570,"internal_node_id":"0.0-26.0"},{"result":162,"points":1,"place":2,"phase":0,"sequence":7,"times":[3832],"next_num":1,"trial_type":"ticket-choose","trial_index":27,"time_elapsed":708927,"internal_node_id":"0.0-27.0"},{"result":150,"points":2,"place":1,"phase":0,"sequence":8,"times":[634,445,1517],"next_num":3,"trial_type":"ticket-choose","trial_index":28,"time_elapsed":714538,"internal_node_id":"0.0-28.0"},{"result":146,"points":3,"place":0,"phase":0,"sequence":9,"times":[1232,529,1767],"next_num":3,"trial_type":"ticket-choose","trial_index":29,"time_elapsed":753769,"internal_node_id":"0.0-29.0"},{"result":149,"points":2,"place":1,"phase":0,"sequence":10,"times":[919,1728,1716],"next_num":3,"trial_type":"ticket-choose","trial_index":30,"time_elapsed":760934,"internal_node_id":"0.0-30.0"},{"result":170,"points":1,"place":2,"phase":0,"sequence":11,"times":[640,523,493,524,687,551,665,2255,583,1202],"next_num":11,"trial_type":"ticket-choose","trial_index":31,"time_elapsed":773387,"internal_node_id":"0.0-31.0"},{"result":147,"points":3,"place":0,"phase":0,"sequence":12,"times":[646,635,1209,1784],"next_num":4,"trial_type":"ticket-choose","trial_index":32,"time_elapsed":781026,"internal_node_id":"0.0-32.0"},{"result":148,"points":3,"place":0,"phase":0,"sequence":13,"times":[5060],"next_num":1,"trial_type":"ticket-choose","trial_index":33,"time_elapsed":788590,"internal_node_id":"0.0-33.0"},{"result":186,"points":1,"place":4,"phase":0,"sequence":14,"times":[2414,487,600,443,464,513,510,531,972,842],"next_num":11,"trial_type":"ticket-choose","trial_index":34,"time_elapsed":800808,"internal_node_id":"0.0-34.0"},{"result":163,"points":1,"place":2,"phase":0,"sequence":15,"times":[834,2903],"next_num":2,"trial_type":"ticket-choose","trial_index":35,"time_elapsed":807266,"internal_node_id":"0.0-35.0"},{"result":155,"points":2,"place":1,"phase":0,"sequence":16,"times":[620,2008],"next_num":2,"trial_type":"ticket-choose","trial_index":36,"time_elapsed":812640,"internal_node_id":"0.0-36.0"},{"result":155,"points":2,"place":1,"phase":0,"sequence":17,"times":[919,440,2185],"next_num":3,"trial_type":"ticket-choose","trial_index":37,"time_elapsed":819235,"internal_node_id":"0.0-37.0"},{"result":148,"points":3,"place":0,"phase":0,"sequence":18,"times":[529,465,493,572,504,528,676,931,1492],"next_num":9,"trial_type":"ticket-choose","trial_index":38,"time_elapsed":829761,"internal_node_id":"0.0-38.0"},{"result":138,"points":3,"place":0,"phase":0,"sequence":19,"times":[833,578,958,471,484,1888],"next_num":6,"trial_type":"ticket-choose","trial_index":39,"time_elapsed":838783,"internal_node_id":"0.0-39.0"},{"result":163,"points":3,"place":0,"phase":0,"sequence":20,"times":[542,573,538,499,667,499,690,2124],"next_num":8,"trial_type":"ticket-choose","trial_index":40,"time_elapsed":848774,"internal_node_id":"0.0-40.0"},{"result":154,"points":2,"place":1,"phase":0,"sequence":21,"times":[20476,507,416,413,475,534,1795],"next_num":7,"trial_type":"ticket-choose","trial_index":41,"time_elapsed":877292,"internal_node_id":"0.0-41.0"},{"result":158,"points":3,"place":0,"phase":0,"sequence":22,"times":[650,503,544,486,510,2322],"next_num":6,"trial_type":"ticket-choose","trial_index":42,"time_elapsed":885777,"internal_node_id":"0.0-42.0"},{"result":154,"points":3,"place":0,"phase":0,"sequence":23,"times":[1238,477,1074,489,578,654,788,1628],"next_num":8,"trial_type":"ticket-choose","trial_index":43,"time_elapsed":896601,"internal_node_id":"0.0-43.0"},{"result":150,"points":3,"place":0,"phase":0,"sequence":24,"times":[2123,2450],"next_num":2,"trial_type":"ticket-choose","trial_index":44,"time_elapsed":904403,"internal_node_id":"0.0-44.0"},{"result":167,"points":1,"place":3,"phase":0,"sequence":25,"times":[898,466,1793],"next_num":3,"trial_type":"ticket-choose","trial_index":45,"time_elapsed":910448,"internal_node_id":"0.0-45.0"},{"result":165,"points":3,"place":0,"phase":0,"sequence":26,"times":[660,741,544,490,2475],"next_num":5,"trial_type":"ticket-choose","trial_index":46,"time_elapsed":918721,"internal_node_id":"0.0-46.0"},{"result":167,"points":2,"place":1,"phase":0,"sequence":27,"times":[875,453,474,510,493,516,2814],"next_num":7,"trial_type":"ticket-choose","trial_index":47,"time_elapsed":928540,"internal_node_id":"0.0-47.0"},{"result":165,"points":2,"place":1,"phase":0,"sequence":28,"times":[2802,601,687,485,533,506,2093],"next_num":7,"trial_type":"ticket-choose","trial_index":48,"time_elapsed":939925,"internal_node_id":"0.0-48.0"},{"result":158,"points":3,"place":0,"phase":0,"sequence":29,"times":[511,499,531,518,543,496,763,654,1867],"next_num":9,"trial_type":"ticket-choose","trial_index":49,"time_elapsed":950601,"internal_node_id":"0.0-49.0"},{"result":158,"points":2,"place":1,"phase":0,"sequence":30,"times":[4932,1716,2042],"next_num":3,"trial_type":"ticket-choose","trial_index":50,"time_elapsed":961668,"internal_node_id":"0.0-50.0"},{"result":147,"points":3,"place":0,"phase":0,"sequence":31,"times":[965,607,836,474,549,512,661,1375,846,1153],"next_num":10,"trial_type":"ticket-choose","trial_index":51,"time_elapsed":974443,"internal_node_id":"0.0-51.0"},{"result":185,"points":1,"place":4,"phase":0,"sequence":32,"times":[1014,501,547,530,561,572,802,745,851,1276],"next_num":11,"trial_type":"ticket-choose","trial_index":52,"time_elapsed":985928,"internal_node_id":"0.0-52.0"},{"result":168,"points":1,"place":3,"phase":0,"sequence":33,"times":[1008,518,1840],"next_num":3,"trial_type":"ticket-choose","trial_index":53,"time_elapsed":992187,"internal_node_id":"0.0-53.0"},{"result":153,"points":3,"place":0,"phase":0,"sequence":34,"times":[583,474,807,506,598,504,559,816,708,693],"next_num":11,"trial_type":"ticket-choose","trial_index":54,"time_elapsed":1002878,"internal_node_id":"0.0-54.0"},{"result":152,"points":3,"place":0,"phase":0,"sequence":35,"times":[1840],"next_num":1,"trial_type":"ticket-choose","trial_index":55,"time_elapsed":1007245,"internal_node_id":"0.0-55.0"},{"result":162,"points":2,"place":1,"phase":0,"sequence":36,"times":[8874,493,1708],"next_num":3,"trial_type":"ticket-choose","trial_index":56,"time_elapsed":1021170,"internal_node_id":"0.0-56.0"},{"result":155,"points":3,"place":0,"phase":0,"sequence":37,"times":[4765,432,969,459,500,546,990,743,662,876],"next_num":11,"trial_type":"ticket-choose","trial_index":57,"time_elapsed":1036351,"internal_node_id":"0.0-57.0"},{"result":161,"points":3,"place":0,"phase":0,"sequence":38,"times":[1980],"next_num":1,"trial_type":"ticket-choose","trial_index":58,"time_elapsed":1041489,"internal_node_id":"0.0-58.0"},{"result":166,"points":2,"place":1,"phase":0,"sequence":39,"times":[1125,457,1208,543,885,667,1708],"next_num":7,"trial_type":"ticket-choose","trial_index":59,"time_elapsed":1051793,"internal_node_id":"0.0-59.0"},{"result":161,"points":1,"place":3,"phase":0,"sequence":40,"times":[8384,419,1786],"next_num":3,"trial_type":"ticket-choose","trial_index":60,"time_elapsed":1065070,"internal_node_id":"0.0-60.0"},{"result":138,"points":3,"place":0,"phase":0,"sequence":41,"times":[4661,714,1110,435,461,482,1505,842,548,1966],"next_num":10,"trial_type":"ticket-choose","trial_index":61,"time_elapsed":1085973,"internal_node_id":"0.0-61.0"},{"result":152,"points":3,"place":0,"phase":0,"sequence":42,"times":[1719,535,552,1940],"next_num":4,"trial_type":"ticket-choose","trial_index":62,"time_elapsed":1093712,"internal_node_id":"0.0-62.0"},{"result":156,"points":3,"place":0,"phase":0,"sequence":43,"times":[2095],"next_num":1,"trial_type":"ticket-choose","trial_index":63,"time_elapsed":1098205,"internal_node_id":"0.0-63.0"},{"result":159,"points":3,"place":0,"phase":0,"sequence":44,"times":[2159],"next_num":1,"trial_type":"ticket-choose","trial_index":64,"time_elapsed":1102996,"internal_node_id":"0.0-64.0"},{"result":150,"points":3,"place":0,"phase":0,"sequence":45,"times":[1739],"next_num":1,"trial_type":"ticket-choose","trial_index":65,"time_elapsed":1106953,"internal_node_id":"0.0-65.0"},{"result":157,"points":3,"place":0,"phase":0,"sequence":46,"times":[3126],"next_num":1,"trial_type":"ticket-choose","trial_index":66,"time_elapsed":1112714,"internal_node_id":"0.0-66.0"},{"result":140,"points":3,"place":0,"phase":0,"sequence":47,"times":[709,463,457,521,868,550,684,1227,624,1369],"next_num":10,"trial_type":"ticket-choose","trial_index":67,"time_elapsed":1125072,"internal_node_id":"0.0-67.0"},{"result":162,"points":2,"place":1,"phase":0,"sequence":48,"times":[2507,448,422,509,524,1780],"next_num":6,"trial_type":"ticket-choose","trial_index":68,"time_elapsed":1134766,"internal_node_id":"0.0-68.0"},{"result":154,"points":2,"place":1,"phase":0,"sequence":49,"times":[689,515,1633],"next_num":3,"trial_type":"ticket-choose","trial_index":69,"time_elapsed":1140540,"internal_node_id":"0.0-69.0"},{"responses":[{"value":0,"offby":0,"category":"$106 - $134","category_index":0},{"value":2,"offby":1,"category":"$135 - $150","category_index":1},{"value":3,"offby":0,"category":"$151 - $165","category_index":2},{"value":6,"offby":0,"category":"$166 - $180","category_index":3},{"value":7,"offby":1,"category":"$181 - $195","category_index":4},{"value":1,"offby":-2,"category":"$196 - $210","category_index":5},{"value":1,"offby":0,"category":"$211 - $225","category_index":6}],"phase":0,"number":1,"trial_type":"bar-choose","trial_index":70,"time_elapsed":1217693,"internal_node_id":"0.0-70.0"},{"rt":32636,"url":"\/tickets\/utils\/start2.html","trial_type":"html","trial_index":71,"time_elapsed":1251578,"internal_node_id":"0.0-71.0"},{"trial_type":"number-animation","trial_index":72,"time_elapsed":1260650,"internal_node_id":"0.0-72.0"},{"phase":1,"sequence":0,"avg":184,"response":174,"trial_type":"training_avg","trial_index":73,"time_elapsed":1270554,"internal_node_id":"0.0-73.0"},{"trial_type":"number-animation","trial_index":74,"time_elapsed":1278071,"internal_node_id":"0.0-74.0"},{"phase":1,"sequence":1,"avg":199,"response":175,"trial_type":"training_avg","trial_index":75,"time_elapsed":1284390,"internal_node_id":"0.0-75.0"},{"trial_type":"number-animation","trial_index":76,"time_elapsed":1290975,"internal_node_id":"0.0-76.0"},{"phase":1,"sequence":2,"avg":199,"response":204,"trial_type":"training_avg","trial_index":77,"time_elapsed":1300056,"internal_node_id":"0.0-77.0"},{"trial_type":"number-animation","trial_index":78,"time_elapsed":1312579,"internal_node_id":"0.0-78.0"},{"phase":1,"sequence":3,"avg":210,"response":205,"trial_type":"training_avg","trial_index":79,"time_elapsed":1320761,"internal_node_id":"0.0-79.0"},{"trial_type":"number-animation","trial_index":80,"time_elapsed":1328219,"internal_node_id":"0.0-80.0"},{"phase":1,"sequence":4,"avg":202,"response":197,"trial_type":"training_avg","trial_index":81,"time_elapsed":1337586,"internal_node_id":"0.0-81.0"},{"responses":[{"value":0,"offby":-1,"category":"$105 - $130","category_index":0},{"value":1,"offby":-1,"category":"$131 - $155","category_index":1},{"value":2,"offby":0,"category":"$156 - $180","category_index":2},{"value":6,"offby":1,"category":"$181 - $205","category_index":3},{"value":5,"offby":0,"category":"$206 - $230","category_index":4},{"value":1,"offby":-2,"category":"$231 - $255","category_index":5},{"value":1,"offby":-1,"category":"$256 - $280","category_index":6}],"phase":1,"number":0,"trial_type":"bar-choose","trial_index":82,"time_elapsed":1410610,"internal_node_id":"0.0-82.0"},{"rt":13431,"url":"\/tickets\/utils\/testing2.html","trial_type":"html","trial_index":83,"time_elapsed":1425302,"internal_node_id":"0.0-83.0"},{"phase":1,"order":[23,42,10,45,33,6,1,41,21,15,2,14,3,36,29,46,27,47,25,43,39,44,28,35,12,5,20,48,32,4,9,13,31,18,22,30,38,40,11,24,19,17,0,34,16,49,7,37,8,26],"trial_type":"store_order","trial_index":84,"time_elapsed":1426306,"internal_node_id":"0.0-84.0"},{"result":212,"points":1,"place":4,"phase":1,"sequence":0,"times":[1300,703,651,609,583,611,655,658,624,910],"next_num":11,"trial_type":"ticket-choose","trial_index":85,"time_elapsed":1438443,"internal_node_id":"0.0-85.0"},{"result":126,"points":3,"place":0,"phase":1,"sequence":1,"times":[666,695,547,600,2238],"next_num":5,"trial_type":"ticket-choose","trial_index":86,"time_elapsed":1446792,"internal_node_id":"0.0-86.0"},{"result":169,"points":1,"place":4,"phase":1,"sequence":2,"times":[2363],"next_num":1,"trial_type":"ticket-choose","trial_index":87,"time_elapsed":1451519,"internal_node_id":"0.0-87.0"},{"result":169,"points":3,"place":0,"phase":1,"sequence":3,"times":[506,436,434,441,661,483,580,1836],"next_num":8,"trial_type":"ticket-choose","trial_index":88,"time_elapsed":1460928,"internal_node_id":"0.0-88.0"},{"result":151,"points":3,"place":0,"phase":1,"sequence":4,"times":[577,1706],"next_num":2,"trial_type":"ticket-choose","trial_index":89,"time_elapsed":1466115,"internal_node_id":"0.0-89.0"},{"result":170,"points":2,"place":1,"phase":1,"sequence":5,"times":[833,443,1545],"next_num":3,"trial_type":"ticket-choose","trial_index":90,"time_elapsed":1471590,"internal_node_id":"0.0-90.0"},{"result":165,"points":2,"place":1,"phase":1,"sequence":6,"times":[558,429,1691],"next_num":3,"trial_type":"ticket-choose","trial_index":91,"time_elapsed":1477029,"internal_node_id":"0.0-91.0"},{"result":151,"points":2,"place":1,"phase":1,"sequence":7,"times":[821,747,1631],"next_num":3,"trial_type":"ticket-choose","trial_index":92,"time_elapsed":1482951,"internal_node_id":"0.0-92.0"},{"result":198,"points":1,"place":4,"phase":1,"sequence":8,"times":[981,432,674,720,477,455,1236,562,641,941],"next_num":11,"trial_type":"ticket-choose","trial_index":93,"time_elapsed":1494040,"internal_node_id":"0.0-93.0"},{"result":173,"points":2,"place":1,"phase":1,"sequence":9,"times":[1154,478,1030,493,515,573,2064],"next_num":7,"trial_type":"ticket-choose","trial_index":94,"time_elapsed":1503895,"internal_node_id":"0.0-94.0"},{"result":147,"points":3,"place":0,"phase":1,"sequence":10,"times":[449,470,702,460,462,748,521,444,828,1873],"next_num":10,"trial_type":"ticket-choose","trial_index":95,"time_elapsed":1515046,"internal_node_id":"0.0-95.0"},{"result":166,"points":3,"place":0,"phase":1,"sequence":11,"times":[4500,525,482,675,531,544,985,768,2490],"next_num":9,"trial_type":"ticket-choose","trial_index":96,"time_elapsed":1530602,"internal_node_id":"0.0-96.0"},{"result":148,"points":2,"place":1,"phase":1,"sequence":12,"times":[503,427,2597],"next_num":3,"trial_type":"ticket-choose","trial_index":97,"time_elapsed":1537545,"internal_node_id":"0.0-97.0"},{"result":148,"points":3,"place":0,"phase":1,"sequence":13,"times":[558,396,690,538,469,475,495,1839],"next_num":8,"trial_type":"ticket-choose","trial_index":98,"time_elapsed":1547031,"internal_node_id":"0.0-98.0"},{"result":158,"points":3,"place":0,"phase":1,"sequence":14,"times":[2175],"next_num":1,"trial_type":"ticket-choose","trial_index":99,"time_elapsed":1551770,"internal_node_id":"0.0-99.0"},{"result":156,"points":3,"place":0,"phase":1,"sequence":15,"times":[526,423,465,472,513,1710],"next_num":6,"trial_type":"ticket-choose","trial_index":100,"time_elapsed":1559959,"internal_node_id":"0.0-100.0"},{"result":137,"points":3,"place":0,"phase":1,"sequence":16,"times":[2045],"next_num":1,"trial_type":"ticket-choose","trial_index":101,"time_elapsed":1564365,"internal_node_id":"0.0-101.0"},{"result":144,"points":3,"place":0,"phase":1,"sequence":17,"times":[1116,467,420,1676],"next_num":4,"trial_type":"ticket-choose","trial_index":102,"time_elapsed":1571168,"internal_node_id":"0.0-102.0"},{"result":141,"points":3,"place":0,"phase":1,"sequence":18,"times":[1238],"next_num":1,"trial_type":"ticket-choose","trial_index":103,"time_elapsed":1574557,"internal_node_id":"0.0-103.0"},{"result":155,"points":3,"place":0,"phase":1,"sequence":19,"times":[571,445,984],"next_num":3,"trial_type":"ticket-choose","trial_index":104,"time_elapsed":1578892,"internal_node_id":"0.0-104.0"},{"result":171,"points":3,"place":0,"phase":1,"sequence":20,"times":[492,768,447,466,1122],"next_num":5,"trial_type":"ticket-choose","trial_index":105,"time_elapsed":1585152,"internal_node_id":"0.0-105.0"},{"result":158,"points":1,"place":2,"phase":1,"sequence":21,"times":[5295,2788],"next_num":2,"trial_type":"ticket-choose","trial_index":106,"time_elapsed":1595515,"internal_node_id":"0.0-106.0"},{"result":217,"points":1,"place":4,"phase":1,"sequence":22,"times":[1053,459,811,558,428,476,1324,717,538,656],"next_num":11,"trial_type":"ticket-choose","trial_index":107,"time_elapsed":1606389,"internal_node_id":"0.0-107.0"},{"result":184,"points":1,"place":3,"phase":1,"sequence":23,"times":[1139,432,1843],"next_num":3,"trial_type":"ticket-choose","trial_index":108,"time_elapsed":1612540,"internal_node_id":"0.0-108.0"},{"result":136,"points":3,"place":0,"phase":1,"sequence":24,"times":[456,416,870,459,477,488,1983,925,1953],"next_num":9,"trial_type":"ticket-choose","trial_index":109,"time_elapsed":1624211,"internal_node_id":"0.0-109.0"},{"result":140,"points":2,"place":1,"phase":1,"sequence":25,"times":[768,509,1086],"next_num":3,"trial_type":"ticket-choose","trial_index":110,"time_elapsed":1629007,"internal_node_id":"0.0-110.0"},{"result":162,"points":3,"place":0,"phase":1,"sequence":26,"times":[1296],"next_num":1,"trial_type":"ticket-choose","trial_index":111,"time_elapsed":1632347,"internal_node_id":"0.0-111.0"},{"result":135,"points":3,"place":0,"phase":1,"sequence":27,"times":[736,456,852,975],"next_num":4,"trial_type":"ticket-choose","trial_index":112,"time_elapsed":1637889,"internal_node_id":"0.0-112.0"},{"result":133,"points":3,"place":0,"phase":1,"sequence":28,"times":[1347,467,911],"next_num":3,"trial_type":"ticket-choose","trial_index":113,"time_elapsed":1643407,"internal_node_id":"0.0-113.0"},{"result":142,"points":3,"place":0,"phase":1,"sequence":29,"times":[1088,517,705,475,501,575,1008,640,519,592],"next_num":11,"trial_type":"ticket-choose","trial_index":114,"time_elapsed":1653902,"internal_node_id":"0.0-114.0"},{"result":170,"points":3,"place":0,"phase":1,"sequence":30,"times":[557,489,900,557,1242,572,1223,564,580,541],"next_num":11,"trial_type":"ticket-choose","trial_index":115,"time_elapsed":1665050,"internal_node_id":"0.0-115.0"},{"result":167,"points":1,"place":3,"phase":1,"sequence":31,"times":[951,439,1003],"next_num":3,"trial_type":"ticket-choose","trial_index":116,"time_elapsed":1669842,"internal_node_id":"0.0-116.0"},{"result":161,"points":2,"place":1,"phase":1,"sequence":32,"times":[1157,510,488,2726,499,924],"next_num":6,"trial_type":"ticket-choose","trial_index":117,"time_elapsed":1678981,"internal_node_id":"0.0-117.0"},{"result":117,"points":3,"place":0,"phase":1,"sequence":33,"times":[520,394,441,402,455,466,923,552,1151],"next_num":9,"trial_type":"ticket-choose","trial_index":118,"time_elapsed":1687852,"internal_node_id":"0.0-118.0"},{"result":145,"points":3,"place":0,"phase":1,"sequence":34,"times":[2279],"next_num":1,"trial_type":"ticket-choose","trial_index":119,"time_elapsed":1692016,"internal_node_id":"0.0-119.0"},{"result":116,"points":3,"place":0,"phase":1,"sequence":35,"times":[764,408,1928,443,460,1005],"next_num":6,"trial_type":"ticket-choose","trial_index":120,"time_elapsed":1700149,"internal_node_id":"0.0-120.0"},{"result":167,"points":3,"place":0,"phase":1,"sequence":36,"times":[706,423,407,445,444,478,490,1543],"next_num":8,"trial_type":"ticket-choose","trial_index":121,"time_elapsed":1708315,"internal_node_id":"0.0-121.0"},{"result":140,"points":3,"place":0,"phase":1,"sequence":37,"times":[573,1050],"next_num":2,"trial_type":"ticket-choose","trial_index":122,"time_elapsed":1711878,"internal_node_id":"0.0-122.0"},{"result":139,"points":3,"place":0,"phase":1,"sequence":38,"times":[586,439,539,476,601,481,646,508,959],"next_num":9,"trial_type":"ticket-choose","trial_index":123,"time_elapsed":1724645,"internal_node_id":"0.0-123.0"},{"result":210,"points":1,"place":4,"phase":1,"sequence":39,"times":[660,482,678,1820,454,431,848,526,517,797],"next_num":11,"trial_type":"ticket-choose","trial_index":124,"time_elapsed":1735598,"internal_node_id":"0.0-124.0"},{"result":156,"points":3,"place":0,"phase":1,"sequence":40,"times":[1389,428,502,449,512,500,908,707,929],"next_num":9,"trial_type":"ticket-choose","trial_index":125,"time_elapsed":1745667,"internal_node_id":"0.0-125.0"},{"result":140,"points":2,"place":1,"phase":1,"sequence":41,"times":[1123,492,619,1147,12682,660,1667],"next_num":7,"trial_type":"ticket-choose","trial_index":126,"time_elapsed":1767445,"internal_node_id":"0.0-126.0"},{"result":157,"points":2,"place":1,"phase":1,"sequence":42,"times":[603,455,1025],"next_num":3,"trial_type":"ticket-choose","trial_index":127,"time_elapsed":1771707,"internal_node_id":"0.0-127.0"},{"result":150,"points":2,"place":1,"phase":1,"sequence":43,"times":[636,999],"next_num":2,"trial_type":"ticket-choose","trial_index":128,"time_elapsed":1775339,"internal_node_id":"0.0-128.0"},{"result":174,"points":1,"place":3,"phase":1,"sequence":44,"times":[975,458,886],"next_num":3,"trial_type":"ticket-choose","trial_index":129,"time_elapsed":1779843,"internal_node_id":"0.0-129.0"},{"result":166,"points":1,"place":2,"phase":1,"sequence":45,"times":[490,1211],"next_num":2,"trial_type":"ticket-choose","trial_index":130,"time_elapsed":1783571,"internal_node_id":"0.0-130.0"},{"result":150,"points":3,"place":0,"phase":1,"sequence":46,"times":[573,448,588,419,451,580,583,664,510,593],"next_num":11,"trial_type":"ticket-choose","trial_index":131,"time_elapsed":1795659,"internal_node_id":"0.0-131.0"},{"result":167,"points":2,"place":1,"phase":1,"sequence":47,"times":[1078,465,760,1992],"next_num":4,"trial_type":"ticket-choose","trial_index":132,"time_elapsed":1802352,"internal_node_id":"0.0-132.0"},{"result":134,"points":3,"place":0,"phase":1,"sequence":48,"times":[1015,438,841,453,566,520,726,821,572,650],"next_num":11,"trial_type":"ticket-choose","trial_index":133,"time_elapsed":1814426,"internal_node_id":"0.0-133.0"},{"result":193,"points":1,"place":4,"phase":1,"sequence":49,"times":[984,522,648,688,618,461,754,464,495,624],"next_num":11,"trial_type":"ticket-choose","trial_index":134,"time_elapsed":1825144,"internal_node_id":"0.0-134.0"},{"responses":[{"value":1,"offby":0,"category":"$105 - $130","category_index":0},{"value":2,"offby":0,"category":"$131 - $155","category_index":1},{"value":4,"offby":2,"category":"$156 - $180","category_index":2},{"value":7,"offby":2,"category":"$181 - $205","category_index":3},{"value":6,"offby":1,"category":"$206 - $230","category_index":4},{"value":0,"offby":-3,"category":"$231 - $255","category_index":5},{"value":0,"offby":-2,"category":"$256 - $280","category_index":6}],"phase":1,"number":1,"trial_type":"bar-choose","trial_index":135,"time_elapsed":1870666,"internal_node_id":"0.0-135.0"},{"during":"Nothing","bonus":312,"trial_type":"final","trial_index":136,"time_elapsed":1898427,"internal_node_id":"0.0-136.0"}],"bonus":312}