{"start_time":"2017-02-24 15:29:33","end_time":"2017-02-24 15:54:07","points_phase0":130,"points_phase1":107,"phase_order":1,"age":46,"gender":"m","tries":1,"during":"Nothing","worker_id":"AN8DH4EWUI93G","assignment_id":"3OF2M9AATHHSNTN2AN01N8YNDF0KZS","data":[{"rt":14899,"url":"\/tickets\/utils\/consent.html","trial_type":"html","trial_index":0,"time_elapsed":15026,"internal_node_id":"0.0-0.0"},{"age":46,"gender":"m","trial_type":"age","trial_index":1,"time_elapsed":23823,"internal_node_id":"0.0-1.0"},{"worker_id":"AN8DH4EWUI93G","trial_type":"workerid","trial_index":2,"time_elapsed":29493,"internal_node_id":"0.0-2.0"},{"tries":1,"trial_type":"instructions_check","trial_index":3,"time_elapsed":62077,"internal_node_id":"0.0-3.0"},{"rt":12849,"url":"\/tickets\/utils\/start.html","trial_type":"html","trial_index":4,"time_elapsed":76082,"internal_node_id":"0.0-4.0"},{"trial_type":"number-animation","trial_index":5,"time_elapsed":107272,"internal_node_id":"0.0-5.0"},{"phase":0,"sequence":0,"avg":166,"response":180,"trial_type":"training_avg","trial_index":6,"time_elapsed":117950,"internal_node_id":"0.0-6.0"},{"trial_type":"number-animation","trial_index":7,"time_elapsed":156099,"internal_node_id":"0.0-7.0"},{"phase":0,"sequence":1,"avg":198,"response":190,"trial_type":"training_avg","trial_index":8,"time_elapsed":169059,"internal_node_id":"0.0-8.0"},{"trial_type":"number-animation","trial_index":9,"time_elapsed":199951,"internal_node_id":"0.0-9.0"},{"phase":0,"sequence":2,"avg":177,"response":185,"trial_type":"training_avg","trial_index":10,"time_elapsed":208465,"internal_node_id":"0.0-10.0"},{"trial_type":"number-animation","trial_index":11,"time_elapsed":239359,"internal_node_id":"0.0-11.0"},{"phase":0,"sequence":3,"avg":190,"response":200,"trial_type":"training_avg","trial_index":12,"time_elapsed":247722,"internal_node_id":"0.0-12.0"},{"trial_type":"number-animation","trial_index":13,"time_elapsed":270084,"internal_node_id":"0.0-13.0"},{"phase":0,"sequence":4,"avg":201,"response":200,"trial_type":"training_avg","trial_index":14,"time_elapsed":279444,"internal_node_id":"0.0-14.0"},{"responses":[{"value":0,"offby":-1,"category":"$30 - $75","category_index":0},{"value":1,"offby":-1,"category":"$76 - $120","category_index":1},{"value":4,"offby":0,"category":"$121 - $165","category_index":2},{"value":10,"offby":4,"category":"$166 - $210","category_index":3},{"value":4,"offby":-2,"category":"$211 - $255","category_index":4},{"value":1,"offby":0,"category":"$256 - $300","category_index":5},{"value":0,"offby":0,"category":"$301 - $345","category_index":6}],"phase":0,"number":0,"trial_type":"bar-choose","trial_index":15,"time_elapsed":345309,"internal_node_id":"0.0-15.0"},{"rt":17807,"url":"\/tickets\/\/utils\/testing.html","trial_type":"html","trial_index":16,"time_elapsed":364271,"internal_node_id":"0.0-16.0"},{"phase":0,"order":[26,16,25,23,34,29,35,14,8,43,49,5,6,2,13,40,48,46,32,28,18,11,36,37,31,22,45,7,39,44,21,27,30,12,9,38,41,47,33,17,0,10,24,20,1,42,19,15,3,4],"trial_type":"store_order","trial_index":17,"time_elapsed":365274,"internal_node_id":"0.0-17.0"},{"result":126,"points":3,"place":0,"phase":0,"sequence":-1,"prices":[184,180,224,165,181,199,185,193,218,126],"times":[3739,2078,1687,2056,1710,1244,1031,1388,966,2328],"next_num":10,"trial_type":"ticket-choose","trial_index":18,"time_elapsed":388007,"internal_node_id":"0.0-18.0"},{"rt":18007,"url":"\/tickets\/utils\/testing_after.html","trial_type":"html","trial_index":19,"time_elapsed":407173,"internal_node_id":"0.0-19.0"},{"result":121,"points":2,"place":1,"phase":0,"sequence":0,"prices":[150,170,160,240,166,185,121,136,95,191],"times":[3958,1507,1148,968,965,1580,1538],"next_num":7,"trial_type":"ticket-choose","trial_index":20,"time_elapsed":423765,"internal_node_id":"0.0-20.0"},{"result":105,"points":3,"place":0,"phase":0,"sequence":1,"prices":[161,180,131,251,175,196,171,146,105,201],"times":[1167,731,5734,761,683,707,698,1432,1123],"next_num":9,"trial_type":"ticket-choose","trial_index":21,"time_elapsed":440922,"internal_node_id":"0.0-21.0"},{"result":75,"points":3,"place":0,"phase":0,"sequence":2,"prices":[75,171,131,151,161,250,145,190,206,156],"times":[1321],"next_num":1,"trial_type":"ticket-choose","trial_index":22,"time_elapsed":444909,"internal_node_id":"0.0-22.0"},{"result":126,"points":2,"place":1,"phase":0,"sequence":3,"prices":[151,175,166,251,170,195,126,146,105,201],"times":[2090,753,1002,714,682,754,1309],"next_num":7,"trial_type":"ticket-choose","trial_index":23,"time_elapsed":455777,"internal_node_id":"0.0-23.0"},{"result":116,"points":3,"place":0,"phase":0,"sequence":4,"prices":[176,150,276,171,261,116,130,201,166,231],"times":[1350,1101,654,653,661,1478],"next_num":6,"trial_type":"ticket-choose","trial_index":24,"time_elapsed":465071,"internal_node_id":"0.0-24.0"},{"result":106,"points":3,"place":0,"phase":0,"sequence":5,"prices":[155,225,245,130,176,106,180,211,165,200],"times":[1134,624,661,1833,650,1110],"next_num":6,"trial_type":"ticket-choose","trial_index":25,"time_elapsed":474495,"internal_node_id":"0.0-25.0"},{"result":136,"points":3,"place":0,"phase":0,"sequence":6,"prices":[246,145,155,191,176,270,185,136,160,215],"times":[1220,1085,674,631,613,592,661,5981],"next_num":8,"trial_type":"ticket-choose","trial_index":26,"time_elapsed":490136,"internal_node_id":"0.0-26.0"},{"result":175,"points":1,"place":4,"phase":0,"sequence":7,"prices":[130,195,141,155,181,226,150,216,221,175],"times":[3310,622,629,575,573,552,961,707,805,1208],"next_num":10,"trial_type":"ticket-choose","trial_index":27,"time_elapsed":505268,"internal_node_id":"0.0-27.0"},{"result":150,"points":2,"place":1,"phase":0,"sequence":8,"prices":[181,156,145,165,236,231,201,260,150,185],"times":[1673,1248,1279,1122,823,699,659,638,1277],"next_num":9,"trial_type":"ticket-choose","trial_index":28,"time_elapsed":518749,"internal_node_id":"0.0-28.0"},{"result":126,"points":2,"place":1,"phase":0,"sequence":9,"prices":[150,176,126,251,171,195,165,145,105,200],"times":[1434,644,1777],"next_num":3,"trial_type":"ticket-choose","trial_index":29,"time_elapsed":525148,"internal_node_id":"0.0-29.0"},{"result":100,"points":3,"place":0,"phase":0,"sequence":10,"prices":[146,171,120,245,165,191,160,140,100,196],"times":[1373,654,1215,590,623,681,1108,1964,1048],"next_num":9,"trial_type":"ticket-choose","trial_index":30,"time_elapsed":538289,"internal_node_id":"0.0-30.0"},{"result":105,"points":3,"place":0,"phase":0,"sequence":11,"prices":[105,216,146,165,210,260,161,235,241,185],"times":[1268],"next_num":1,"trial_type":"ticket-choose","trial_index":31,"time_elapsed":541890,"internal_node_id":"0.0-31.0"},{"result":106,"points":3,"place":0,"phase":0,"sequence":12,"prices":[180,106,166,245,211,261,215,125,135,190],"times":[1274,1085],"next_num":2,"trial_type":"ticket-choose","trial_index":32,"time_elapsed":546904,"internal_node_id":"0.0-32.0"},{"result":111,"points":3,"place":0,"phase":0,"sequence":13,"prices":[175,211,266,286,111,216,220,245,230,165],"times":[1535,636,1054,1616,996],"next_num":5,"trial_type":"ticket-choose","trial_index":33,"time_elapsed":555742,"internal_node_id":"0.0-33.0"},{"result":30,"points":3,"place":0,"phase":0,"sequence":14,"prices":[155,30,101,55,136,276,70,181,200,261],"times":[1158,1031],"next_num":2,"trial_type":"ticket-choose","trial_index":34,"time_elapsed":560176,"internal_node_id":"0.0-34.0"},{"result":130,"points":2,"place":1,"phase":0,"sequence":15,"prices":[155,181,170,255,176,200,130,150,110,205],"times":[805,737,617,591,614,608,1053],"next_num":7,"trial_type":"ticket-choose","trial_index":35,"time_elapsed":568413,"internal_node_id":"0.0-35.0"},{"result":105,"points":3,"place":0,"phase":0,"sequence":16,"prices":[160,180,130,251,176,195,170,146,105,200],"times":[1054,605,1201,569,551,685,606,1268,1024],"next_num":9,"trial_type":"ticket-choose","trial_index":36,"time_elapsed":579784,"internal_node_id":"0.0-36.0"},{"result":131,"points":2,"place":1,"phase":0,"sequence":17,"prices":[156,181,171,256,175,200,131,150,110,206],"times":[856,582,461,542,561,591,961],"next_num":7,"trial_type":"ticket-choose","trial_index":37,"time_elapsed":587659,"internal_node_id":"0.0-37.0"},{"result":120,"points":2,"place":1,"phase":0,"sequence":18,"prices":[150,170,160,241,166,186,120,136,96,191],"times":[1026,574,523,567,512,607,939],"next_num":7,"trial_type":"ticket-choose","trial_index":38,"time_elapsed":595641,"internal_node_id":"0.0-38.0"},{"result":45,"points":3,"place":0,"phase":0,"sequence":19,"prices":[186,156,191,120,195,145,45,130,246,176],"times":[704,668,605,585,543,569,986],"next_num":7,"trial_type":"ticket-choose","trial_index":39,"time_elapsed":603614,"internal_node_id":"0.0-39.0"},{"result":105,"points":3,"place":0,"phase":0,"sequence":20,"prices":[161,180,171,250,176,195,131,146,105,201],"times":[736,550,482,489,522,557,553,1083,1024],"next_num":9,"trial_type":"ticket-choose","trial_index":40,"time_elapsed":613271,"internal_node_id":"0.0-40.0"},{"result":115,"points":3,"place":0,"phase":0,"sequence":21,"prices":[226,205,125,120,115,135,180,145,150,220],"times":[1264,583,769,2100,1658],"next_num":5,"trial_type":"ticket-choose","trial_index":41,"time_elapsed":622440,"internal_node_id":"0.0-41.0"},{"result":125,"points":2,"place":1,"phase":0,"sequence":22,"prices":[155,175,166,245,171,190,125,140,101,196],"times":[1036,614,560,599,714,667,2182],"next_num":7,"trial_type":"ticket-choose","trial_index":42,"time_elapsed":631959,"internal_node_id":"0.0-42.0"},{"result":120,"points":3,"place":0,"phase":0,"sequence":23,"prices":[120,221,135,185,200,261,181,251,255,196],"times":[1299],"next_num":1,"trial_type":"ticket-choose","trial_index":43,"time_elapsed":635341,"internal_node_id":"0.0-43.0"},{"result":86,"points":3,"place":0,"phase":0,"sequence":24,"prices":[86,180,130,151,170,271,145,191,220,160],"times":[979],"next_num":1,"trial_type":"ticket-choose","trial_index":44,"time_elapsed":638274,"internal_node_id":"0.0-44.0"},{"result":130,"points":3,"place":0,"phase":0,"sequence":25,"prices":[185,175,276,221,130,141,171,216,235,165],"times":[947,558,559,583,2041],"next_num":5,"trial_type":"ticket-choose","trial_index":45,"time_elapsed":645755,"internal_node_id":"0.0-45.0"},{"result":91,"points":3,"place":0,"phase":0,"sequence":26,"prices":[176,150,141,91,290,201,106,266,206,126],"times":[1225,1045,1399,1040],"next_num":4,"trial_type":"ticket-choose","trial_index":46,"time_elapsed":653004,"internal_node_id":"0.0-46.0"},{"result":101,"points":3,"place":0,"phase":0,"sequence":27,"prices":[156,175,125,245,170,190,165,140,101,196],"times":[717,529,553,544,582,606,683,1076,962],"next_num":9,"trial_type":"ticket-choose","trial_index":47,"time_elapsed":662882,"internal_node_id":"0.0-47.0"},{"result":100,"points":3,"place":0,"phase":0,"sequence":28,"prices":[146,170,121,245,166,190,161,141,100,195],"times":[3062,560,491,521,545,511,583,730,1115],"next_num":9,"trial_type":"ticket-choose","trial_index":48,"time_elapsed":674614,"internal_node_id":"0.0-48.0"},{"result":111,"points":3,"place":0,"phase":0,"sequence":29,"prices":[111,231,131,146,171,295,141,241,271,150],"times":[1796],"next_num":1,"trial_type":"ticket-choose","trial_index":49,"time_elapsed":678368,"internal_node_id":"0.0-49.0"},{"result":121,"points":2,"place":1,"phase":0,"sequence":30,"prices":[150,171,121,241,165,185,160,136,95,191],"times":[986,615,1307],"next_num":3,"trial_type":"ticket-choose","trial_index":50,"time_elapsed":683626,"internal_node_id":"0.0-50.0"},{"result":105,"points":3,"place":0,"phase":0,"sequence":31,"prices":[150,175,166,251,170,196,126,145,105,201],"times":[762,574,569,597,514,623,1199,720,986],"next_num":9,"trial_type":"ticket-choose","trial_index":51,"time_elapsed":693805,"internal_node_id":"0.0-51.0"},{"result":135,"points":1,"place":2,"phase":0,"sequence":32,"prices":[150,171,120,241,165,185,160,135,96,190],"times":[980,536,507,682,621,552,589,3237],"next_num":8,"trial_type":"ticket-choose","trial_index":52,"time_elapsed":704963,"internal_node_id":"0.0-52.0"},{"result":130,"points":1,"place":2,"phase":0,"sequence":33,"prices":[155,245,155,81,180,130,156,306,166,115],"times":[793,598,559,545,1416,3330],"next_num":6,"trial_type":"ticket-choose","trial_index":53,"time_elapsed":715203,"internal_node_id":"0.0-53.0"},{"result":100,"points":3,"place":0,"phase":0,"sequence":34,"prices":[156,175,126,246,170,190,165,140,100,196],"times":[1074,606,561,637,675,656,629,1439,968],"next_num":9,"trial_type":"ticket-choose","trial_index":54,"time_elapsed":726108,"internal_node_id":"0.0-54.0"},{"result":65,"points":2,"place":1,"phase":0,"sequence":35,"prices":[220,236,176,65,185,101,110,61,156,191],"times":[1032,668,746,1054],"next_num":4,"trial_type":"ticket-choose","trial_index":55,"time_elapsed":732409,"internal_node_id":"0.0-55.0"},{"result":80,"points":2,"place":1,"phase":0,"sequence":36,"prices":[221,175,51,196,146,130,166,80,126,156],"times":[695,566,474,893,658,1055,853,954],"next_num":8,"trial_type":"ticket-choose","trial_index":56,"time_elapsed":741956,"internal_node_id":"0.0-56.0"},{"result":66,"points":3,"place":0,"phase":0,"sequence":37,"prices":[66,201,96,150,185,230,121,216,225,165],"times":[1165],"next_num":1,"trial_type":"ticket-choose","trial_index":57,"time_elapsed":745178,"internal_node_id":"0.0-57.0"},{"result":95,"points":3,"place":0,"phase":0,"sequence":38,"prices":[95,205,106,151,186,271,145,210,215,181],"times":[1040],"next_num":1,"trial_type":"ticket-choose","trial_index":58,"time_elapsed":748149,"internal_node_id":"0.0-58.0"},{"result":105,"points":3,"place":0,"phase":0,"sequence":39,"prices":[160,180,170,251,176,195,131,146,105,200],"times":[987,693,628,607,574,629,1001,737,1023],"next_num":9,"trial_type":"ticket-choose","trial_index":59,"time_elapsed":758876,"internal_node_id":"0.0-59.0"},{"result":61,"points":3,"place":0,"phase":0,"sequence":40,"prices":[255,166,266,175,136,145,155,61,96,301],"times":[842,561,591,635,1115,739,644,882],"next_num":8,"trial_type":"ticket-choose","trial_index":60,"time_elapsed":768272,"internal_node_id":"0.0-60.0"},{"result":155,"points":1,"place":4,"phase":0,"sequence":41,"prices":[135,180,141,151,175,220,145,196,211,155],"times":[979,667,939,615,561,583,607,621,828,891],"next_num":10,"trial_type":"ticket-choose","trial_index":61,"time_elapsed":779600,"internal_node_id":"0.0-61.0"},{"result":106,"points":2,"place":1,"phase":0,"sequence":42,"prices":[185,180,235,210,106,266,76,115,250,205],"times":[2325,837,3716,683,1023],"next_num":5,"trial_type":"ticket-choose","trial_index":62,"time_elapsed":790979,"internal_node_id":"0.0-62.0"},{"result":100,"points":3,"place":0,"phase":0,"sequence":43,"prices":[145,171,161,245,165,191,120,140,100,196],"times":[7097,733,637,599,706,653,2057,723,869],"next_num":9,"trial_type":"ticket-choose","trial_index":63,"time_elapsed":808819,"internal_node_id":"0.0-63.0"},{"result":101,"points":3,"place":0,"phase":0,"sequence":44,"prices":[156,176,165,246,171,190,126,141,101,196],"times":[1147,597,543,606,562,650,1402,586,1146],"next_num":9,"trial_type":"ticket-choose","trial_index":64,"time_elapsed":819686,"internal_node_id":"0.0-64.0"},{"result":100,"points":3,"place":0,"phase":0,"sequence":45,"prices":[145,170,160,245,165,190,120,141,100,195],"times":[842,561,553,536,620,669,1061,784,1031],"next_num":9,"trial_type":"ticket-choose","trial_index":65,"time_elapsed":830296,"internal_node_id":"0.0-65.0"},{"result":81,"points":3,"place":0,"phase":0,"sequence":46,"prices":[81,205,130,151,191,261,145,210,250,165],"times":[880],"next_num":1,"trial_type":"ticket-choose","trial_index":66,"time_elapsed":833234,"internal_node_id":"0.0-66.0"},{"result":111,"points":3,"place":0,"phase":0,"sequence":47,"prices":[156,181,131,256,176,200,171,151,111,206],"times":[1206,605,537,613,575,576,608,1015,1075],"next_num":9,"trial_type":"ticket-choose","trial_index":67,"time_elapsed":843682,"internal_node_id":"0.0-67.0"},{"result":111,"points":3,"place":0,"phase":0,"sequence":48,"prices":[156,181,130,255,175,200,170,150,111,205],"times":[1203,576,504,593,573,628,728,738,1035],"next_num":9,"trial_type":"ticket-choose","trial_index":68,"time_elapsed":854254,"internal_node_id":"0.0-68.0"},{"result":105,"points":3,"place":0,"phase":0,"sequence":49,"prices":[151,176,126,251,170,196,165,145,105,201],"times":[1497,535,537,499,520,590,561,612,877],"next_num":9,"trial_type":"ticket-choose","trial_index":69,"time_elapsed":864263,"internal_node_id":"0.0-69.0"},{"responses":[{"value":0,"offby":-1,"category":"$30 - $75","category_index":0},{"value":2,"offby":0,"category":"$76 - $120","category_index":1},{"value":5,"offby":1,"category":"$121 - $165","category_index":2},{"value":12,"offby":6,"category":"$166 - $210","category_index":3},{"value":1,"offby":-5,"category":"$211 - $255","category_index":4},{"value":0,"offby":-1,"category":"$256 - $300","category_index":5},{"value":0,"offby":0,"category":"$301 - $345","category_index":6}],"phase":0,"number":1,"trial_type":"bar-choose","trial_index":70,"time_elapsed":926931,"internal_node_id":"0.0-70.0"},{"rt":16262,"url":"\/tickets\/utils\/start2.html","trial_type":"html","trial_index":71,"time_elapsed":944348,"internal_node_id":"0.0-71.0"},{"trial_type":"number-animation","trial_index":72,"time_elapsed":962266,"internal_node_id":"0.0-72.0"},{"phase":1,"sequence":0,"avg":180,"response":180,"trial_type":"training_avg","trial_index":73,"time_elapsed":968666,"internal_node_id":"0.0-73.0"},{"trial_type":"number-animation","trial_index":74,"time_elapsed":978066,"internal_node_id":"0.0-74.0"},{"phase":1,"sequence":1,"avg":178,"response":180,"trial_type":"training_avg","trial_index":75,"time_elapsed":983910,"internal_node_id":"0.0-75.0"},{"trial_type":"number-animation","trial_index":76,"time_elapsed":994700,"internal_node_id":"0.0-76.0"},{"phase":1,"sequence":2,"avg":176,"response":180,"trial_type":"training_avg","trial_index":77,"time_elapsed":1000390,"internal_node_id":"0.0-77.0"},{"trial_type":"number-animation","trial_index":78,"time_elapsed":1012160,"internal_node_id":"0.0-78.0"},{"phase":1,"sequence":3,"avg":178,"response":175,"trial_type":"training_avg","trial_index":79,"time_elapsed":1017658,"internal_node_id":"0.0-79.0"},{"trial_type":"number-animation","trial_index":80,"time_elapsed":1027153,"internal_node_id":"0.0-80.0"},{"phase":1,"sequence":4,"avg":179,"response":180,"trial_type":"training_avg","trial_index":81,"time_elapsed":1032295,"internal_node_id":"0.0-81.0"},{"responses":[{"value":0,"offby":0,"category":"$140 - $250","category_index":0},{"value":0,"offby":0,"category":"$151 - $160","category_index":1},{"value":2,"offby":-2,"category":"$161 - $170","category_index":2},{"value":8,"offby":2,"category":"$171 - $180","category_index":3},{"value":8,"offby":1,"category":"$181 - $190","category_index":4},{"value":2,"offby":-1,"category":"$191 - $200","category_index":5},{"value":0,"offby":0,"category":"$201 - $210","category_index":6}],"phase":1,"number":0,"trial_type":"bar-choose","trial_index":82,"time_elapsed":1058351,"internal_node_id":"0.0-82.0"},{"rt":4185,"url":"\/tickets\/utils\/testing2.html","trial_type":"html","trial_index":83,"time_elapsed":1063741,"internal_node_id":"0.0-83.0"},{"phase":1,"order":[20,8,28,7,40,49,48,33,47,3,18,26,41,46,44,14,9,15,21,37,12,36,4,27,24,38,45,1,19,29,16,6,17,42,0,43,35,31,25,13,39,32,34,22,5,23,30,10,11,2],"trial_type":"store_order","trial_index":84,"time_elapsed":1064744,"internal_node_id":"0.0-84.0"},{"result":181,"points":1,"place":4,"phase":1,"sequence":0,"prices":[165,187,173,177,186,196,176,191,192,181],"times":[2227,1463,677,667,715,661,599,1101,760,961],"next_num":10,"trial_type":"ticket-choose","trial_index":85,"time_elapsed":1078623,"internal_node_id":"0.0-85.0"},{"result":176,"points":1,"place":4,"phase":1,"sequence":1,"prices":[174,178,168,192,177,181,176,171,163,182],"times":[1665,631,1685,599,591,753,1078],"next_num":7,"trial_type":"ticket-choose","trial_index":86,"time_elapsed":1088850,"internal_node_id":"0.0-86.0"},{"result":163,"points":3,"place":0,"phase":1,"sequence":2,"prices":[163,185,165,174,181,198,173,186,187,180],"times":[999],"next_num":1,"trial_type":"ticket-choose","trial_index":87,"time_elapsed":1091727,"internal_node_id":"0.0-87.0"},{"result":173,"points":1,"place":3,"phase":1,"sequence":3,"prices":[173,178,176,193,177,182,168,172,164,183],"times":[1249],"next_num":1,"trial_type":"ticket-choose","trial_index":88,"time_elapsed":1094802,"internal_node_id":"0.0-88.0"},{"result":165,"points":2,"place":1,"phase":1,"sequence":4,"prices":[181,180,191,186,165,197,159,167,194,185],"times":[1020,636,592,636,978],"next_num":5,"trial_type":"ticket-choose","trial_index":89,"time_elapsed":1101333,"internal_node_id":"0.0-89.0"},{"result":166,"points":3,"place":0,"phase":1,"sequence":5,"prices":[166,190,170,173,178,203,172,192,198,174],"times":[974],"next_num":1,"trial_type":"ticket-choose","trial_index":90,"time_elapsed":1104150,"internal_node_id":"0.0-90.0"},{"result":154,"points":3,"place":0,"phase":1,"sequence":6,"prices":[188,179,154,183,173,170,177,160,169,175],"times":[904,629,961],"next_num":3,"trial_type":"ticket-choose","trial_index":91,"time_elapsed":1108838,"internal_node_id":"0.0-91.0"},{"result":166,"points":3,"place":0,"phase":1,"sequence":7,"prices":[175,180,178,195,179,184,170,174,166,185],"times":[945,582,583,553,600,615,3328,659,1293],"next_num":9,"trial_type":"ticket-choose","trial_index":92,"time_elapsed":1121580,"internal_node_id":"0.0-92.0"},{"result":165,"points":3,"place":0,"phase":1,"sequence":8,"prices":[176,180,170,194,179,183,178,173,165,184],"times":[868,560,514,490,475,613,569,599,978],"next_num":9,"trial_type":"ticket-choose","trial_index":93,"time_elapsed":1130718,"internal_node_id":"0.0-93.0"},{"result":157,"points":2,"place":1,"phase":1,"sequence":9,"prices":[188,191,179,157,181,164,166,156,175,182],"times":[788,569,505,1031],"next_num":4,"trial_type":"ticket-choose","trial_index":94,"time_elapsed":1136017,"internal_node_id":"0.0-94.0"},{"result":165,"points":3,"place":0,"phase":1,"sequence":10,"prices":[175,189,193,170,179,165,180,186,177,184],"times":[709,592,613,606,592,953],"next_num":6,"trial_type":"ticket-choose","trial_index":95,"time_elapsed":1142910,"internal_node_id":"0.0-95.0"},{"result":169,"points":2,"place":1,"phase":1,"sequence":11,"prices":[175,179,177,193,178,182,169,172,164,183],"times":[1106,621,599,637,589,660,1086],"next_num":7,"trial_type":"ticket-choose","trial_index":96,"time_elapsed":1151294,"internal_node_id":"0.0-96.0"},{"result":169,"points":2,"place":1,"phase":1,"sequence":12,"prices":[174,179,177,194,178,183,169,173,165,184],"times":[764,590,469,666,537,597,1617],"next_num":7,"trial_type":"ticket-choose","trial_index":97,"time_elapsed":1159622,"internal_node_id":"0.0-97.0"},{"result":173,"points":1,"place":2,"phase":1,"sequence":13,"prices":[174,179,169,194,178,183,177,173,165,184],"times":[695,499,931,437,529,537,566,1403],"next_num":8,"trial_type":"ticket-choose","trial_index":98,"time_elapsed":1168507,"internal_node_id":"0.0-98.0"},{"result":165,"points":3,"place":0,"phase":1,"sequence":14,"prices":[176,180,178,194,179,183,170,173,165,184],"times":[610,505,537,490,562,560,521,853,846],"next_num":9,"trial_type":"ticket-choose","trial_index":99,"time_elapsed":1177477,"internal_node_id":"0.0-99.0"},{"result":170,"points":2,"place":1,"phase":1,"sequence":15,"prices":[179,174,199,178,196,167,170,184,177,190],"times":[993,458,363,375,391,490,1192],"next_num":7,"trial_type":"ticket-choose","trial_index":100,"time_elapsed":1184779,"internal_node_id":"0.0-100.0"},{"result":187,"points":0,"place":7,"phase":1,"sequence":16,"prices":[193,173,175,182,179,198,181,171,176,187],"times":[609,499,521,513,661,585,613,583,799,1209],"next_num":10,"trial_type":"ticket-choose","trial_index":101,"time_elapsed":1195160,"internal_node_id":"0.0-101.0"},{"result":166,"points":3,"place":0,"phase":1,"sequence":17,"prices":[179,186,197,201,166,187,188,193,190,177],"times":[770,605,584,690,986],"next_num":5,"trial_type":"ticket-choose","trial_index":102,"time_elapsed":1201391,"internal_node_id":"0.0-102.0"},{"result":171,"points":3,"place":0,"phase":1,"sequence":18,"prices":[171,180,172,174,179,188,173,183,186,175],"times":[1411],"next_num":1,"trial_type":"ticket-choose","trial_index":103,"time_elapsed":1204593,"internal_node_id":"0.0-103.0"},{"result":159,"points":3,"place":0,"phase":1,"sequence":19,"prices":[159,178,170,174,176,194,173,182,185,175],"times":[996],"next_num":1,"trial_type":"ticket-choose","trial_index":104,"time_elapsed":1207438,"internal_node_id":"0.0-104.0"},{"result":168,"points":2,"place":1,"phase":1,"sequence":20,"prices":[173,178,168,193,177,182,176,172,164,183],"times":[1818,561,915],"next_num":3,"trial_type":"ticket-choose","trial_index":105,"time_elapsed":1212903,"internal_node_id":"0.0-105.0"},{"result":166,"points":3,"place":0,"phase":1,"sequence":21,"prices":[175,180,170,195,179,184,178,174,166,185],"times":[1011,559,512,517,592,628,607,553,808],"next_num":9,"trial_type":"ticket-choose","trial_index":106,"time_elapsed":1222098,"internal_node_id":"0.0-106.0"},{"result":169,"points":1,"place":2,"phase":1,"sequence":22,"prices":[189,185,169,168,167,171,180,173,174,188],"times":[700,585,1245],"next_num":3,"trial_type":"ticket-choose","trial_index":107,"time_elapsed":1226770,"internal_node_id":"0.0-107.0"},{"result":168,"points":2,"place":1,"phase":1,"sequence":23,"prices":[181,175,182,168,183,173,153,170,193,179],"times":[576,569,651,886],"next_num":4,"trial_type":"ticket-choose","trial_index":108,"time_elapsed":1231852,"internal_node_id":"0.0-108.0"},{"result":157,"points":3,"place":0,"phase":1,"sequence":24,"prices":[157,184,163,174,181,190,168,187,189,177],"times":[1011],"next_num":1,"trial_type":"ticket-choose","trial_index":109,"time_elapsed":1234619,"internal_node_id":"0.0-109.0"},{"result":168,"points":2,"place":1,"phase":1,"sequence":25,"prices":[173,178,176,193,177,182,168,172,164,183],"times":[1019,605,693,591,552,575,999],"next_num":7,"trial_type":"ticket-choose","trial_index":110,"time_elapsed":1242677,"internal_node_id":"0.0-110.0"},{"result":165,"points":2,"place":1,"phase":1,"sequence":26,"prices":[179,174,172,162,202,184,165,197,185,169],"times":[673,504,443,468,645,590,1010],"next_num":7,"trial_type":"ticket-choose","trial_index":111,"time_elapsed":1249989,"internal_node_id":"0.0-111.0"},{"result":169,"points":2,"place":1,"phase":1,"sequence":27,"prices":[174,179,177,194,178,183,169,173,165,184],"times":[662,520,516,637,613,607,1285],"next_num":7,"trial_type":"ticket-choose","trial_index":112,"time_elapsed":1257885,"internal_node_id":"0.0-112.0"},{"result":156,"points":3,"place":0,"phase":1,"sequence":28,"prices":[195,177,197,179,171,173,175,156,163,204],"times":[794,529,578,576,552,690,586,1184],"next_num":8,"trial_type":"ticket-choose","trial_index":113,"time_elapsed":1266568,"internal_node_id":"0.0-113.0"},{"result":150,"points":3,"place":0,"phase":1,"sequence":29,"prices":[175,150,164,155,171,199,158,180,184,196],"times":[994,940],"next_num":2,"trial_type":"ticket-choose","trial_index":114,"time_elapsed":1270494,"internal_node_id":"0.0-114.0"},{"result":168,"points":2,"place":1,"phase":1,"sequence":30,"prices":[174,178,176,192,177,181,168,171,163,182],"times":[1127,545,514,638,544,753,1361],"next_num":7,"trial_type":"ticket-choose","trial_index":115,"time_elapsed":1279063,"internal_node_id":"0.0-115.0"},{"result":168,"points":3,"place":0,"phase":1,"sequence":31,"prices":[168,188,171,181,184,196,180,194,195,183],"times":[2089],"next_num":1,"trial_type":"ticket-choose","trial_index":116,"time_elapsed":1282934,"internal_node_id":"0.0-116.0"},{"result":160,"points":3,"place":0,"phase":1,"sequence":32,"prices":[160,185,170,174,182,196,173,186,194,177],"times":[1039],"next_num":1,"trial_type":"ticket-choose","trial_index":117,"time_elapsed":1285861,"internal_node_id":"0.0-117.0"},{"result":170,"points":2,"place":1,"phase":1,"sequence":33,"prices":[176,180,178,194,179,183,170,173,165,184],"times":[1020,583,538,637,600,606,1949],"next_num":7,"trial_type":"ticket-choose","trial_index":118,"time_elapsed":1294832,"internal_node_id":"0.0-118.0"},{"result":165,"points":3,"place":0,"phase":1,"sequence":34,"prices":[176,180,170,194,179,183,178,173,165,184],"times":[841,522,521,442,731,521,545,654,786],"next_num":9,"trial_type":"ticket-choose","trial_index":119,"time_elapsed":1303911,"internal_node_id":"0.0-119.0"},{"result":177,"points":1,"place":2,"phase":1,"sequence":35,"prices":[181,179,199,188,170,172,178,187,191,177],"times":[709,553,584,537,482,507,538,598,1039,984],"next_num":10,"trial_type":"ticket-choose","trial_index":120,"time_elapsed":1314159,"internal_node_id":"0.0-120.0"},{"result":169,"points":2,"place":1,"phase":1,"sequence":36,"prices":[180,165,177,193,186,196,187,169,171,182],"times":[785,537,583,461,513,590,631,992],"next_num":8,"trial_type":"ticket-choose","trial_index":121,"time_elapsed":1322481,"internal_node_id":"0.0-121.0"},{"result":181,"points":0,"place":5,"phase":1,"sequence":37,"prices":[180,175,173,177,191,190,184,196,174,181],"times":[639,567,553,645,636,582,560,776,668,830],"next_num":10,"trial_type":"ticket-choose","trial_index":122,"time_elapsed":1332735,"internal_node_id":"0.0-122.0"},{"result":179,"points":1,"place":4,"phase":1,"sequence":38,"prices":[170,183,172,175,180,189,174,187,188,179],"times":[1125,553,535,491,499,536,553,806,645,929],"next_num":10,"trial_type":"ticket-choose","trial_index":123,"time_elapsed":1343154,"internal_node_id":"0.0-123.0"},{"result":171,"points":1,"place":2,"phase":1,"sequence":39,"prices":[174,178,168,192,177,181,176,171,163,182],"times":[909,580,515,653,551,591,923,985],"next_num":8,"trial_type":"ticket-choose","trial_index":124,"time_elapsed":1352113,"internal_node_id":"0.0-124.0"},{"result":172,"points":1,"place":2,"phase":1,"sequence":40,"prices":[175,179,169,193,178,182,177,172,164,183],"times":[1085,721,515,621,597,945,778,1024],"next_num":8,"trial_type":"ticket-choose","trial_index":125,"time_elapsed":1361697,"internal_node_id":"0.0-125.0"},{"result":166,"points":3,"place":0,"phase":1,"sequence":41,"prices":[175,180,170,195,179,184,178,174,166,185],"times":[1129,607,590,612,657,576,583,997,979],"next_num":9,"trial_type":"ticket-choose","trial_index":126,"time_elapsed":1371982,"internal_node_id":"0.0-126.0"},{"result":161,"points":3,"place":0,"phase":1,"sequence":42,"prices":[161,180,170,174,178,198,173,182,188,176],"times":[981],"next_num":1,"trial_type":"ticket-choose","trial_index":127,"time_elapsed":1374828,"internal_node_id":"0.0-127.0"},{"result":168,"points":2,"place":1,"phase":1,"sequence":43,"prices":[174,178,176,192,177,181,168,171,163,182],"times":[1062,583,621,707,627,667,1171],"next_num":7,"trial_type":"ticket-choose","trial_index":128,"time_elapsed":1383349,"internal_node_id":"0.0-128.0"},{"result":169,"points":2,"place":1,"phase":1,"sequence":44,"prices":[175,179,169,193,178,182,177,172,164,183],"times":[1291,567,1089],"next_num":3,"trial_type":"ticket-choose","trial_index":129,"time_elapsed":1388566,"internal_node_id":"0.0-129.0"},{"result":160,"points":3,"place":0,"phase":1,"sequence":45,"prices":[175,193,175,160,180,170,175,205,177,167],"times":[783,553,553,967],"next_num":4,"trial_type":"ticket-choose","trial_index":130,"time_elapsed":1393863,"internal_node_id":"0.0-130.0"},{"result":173,"points":1,"place":3,"phase":1,"sequence":46,"prices":[173,178,168,193,177,182,176,172,164,183],"times":[1378],"next_num":1,"trial_type":"ticket-choose","trial_index":131,"time_elapsed":1397033,"internal_node_id":"0.0-131.0"},{"result":166,"points":3,"place":0,"phase":1,"sequence":47,"prices":[175,180,178,195,179,184,170,174,166,185],"times":[992,582,516,513,537,761,1114,700,1185],"next_num":9,"trial_type":"ticket-choose","trial_index":132,"time_elapsed":1407450,"internal_node_id":"0.0-132.0"},{"result":169,"points":2,"place":1,"phase":1,"sequence":48,"prices":[174,179,169,194,178,183,177,173,165,184],"times":[1064,527,1272],"next_num":3,"trial_type":"ticket-choose","trial_index":133,"time_elapsed":1412554,"internal_node_id":"0.0-133.0"},{"result":169,"points":2,"place":1,"phase":1,"sequence":49,"prices":[175,179,177,193,178,182,169,172,164,183],"times":[730,620,576,605,576,592,1189],"next_num":7,"trial_type":"ticket-choose","trial_index":134,"time_elapsed":1420511,"internal_node_id":"0.0-134.0"},{"responses":[{"value":0,"offby":0,"category":"$140 - $250","category_index":0},{"value":0,"offby":0,"category":"$151 - $160","category_index":1},{"value":5,"offby":1,"category":"$161 - $170","category_index":2},{"value":10,"offby":4,"category":"$171 - $180","category_index":3},{"value":5,"offby":-2,"category":"$181 - $190","category_index":4},{"value":0,"offby":-3,"category":"$191 - $200","category_index":5},{"value":0,"offby":0,"category":"$201 - $210","category_index":6}],"phase":1,"number":1,"trial_type":"bar-choose","trial_index":135,"time_elapsed":1443394,"internal_node_id":"0.0-135.0"},{"special_comment":"Notreally","trial_type":"special_sequence","trial_index":136,"time_elapsed":1450986,"internal_node_id":"0.0-136.0"},{"during":"Nothing","bonus":316,"trial_type":"final","trial_index":137,"time_elapsed":1471920,"internal_node_id":"0.0-137.0"}],"bonus":316}