{"start_time":"2017-02-21 11:26:03","end_time":"2017-02-21 11:49:17","points_phase0":109,"points_phase1":107,"phase_order":1,"age":36,"gender":"m","tries":1,"during":"Nothing","worker_id":"AOAZMLP27GD81","assignment_id":"3RJSC4XJ11NS3PW9Z6J3FKCJY0C50Q","data":[{"rt":17414,"url":"\/tickets\/utils\/consent.html","trial_type":"html","trial_index":0,"time_elapsed":17529,"internal_node_id":"0.0-0.0"},{"age":36,"gender":"m","trial_type":"age","trial_index":1,"time_elapsed":21969,"internal_node_id":"0.0-1.0"},{"worker_id":"AOAZMLP27GD81","trial_type":"workerid","trial_index":2,"time_elapsed":26680,"internal_node_id":"0.0-2.0"},{"tries":1,"trial_type":"instructions_check","trial_index":3,"time_elapsed":69322,"internal_node_id":"0.0-3.0"},{"rt":16272,"url":"\/tickets\/utils\/start.html","trial_type":"html","trial_index":4,"time_elapsed":86719,"internal_node_id":"0.0-4.0"},{"trial_type":"number-animation","trial_index":5,"time_elapsed":109434,"internal_node_id":"0.0-5.0"},{"phase":0,"sequence":0,"avg":182,"response":170,"trial_type":"training_avg","trial_index":6,"time_elapsed":125328,"internal_node_id":"0.0-6.0"},{"trial_type":"number-animation","trial_index":7,"time_elapsed":145633,"internal_node_id":"0.0-7.0"},{"phase":0,"sequence":1,"avg":188,"response":180,"trial_type":"training_avg","trial_index":8,"time_elapsed":156272,"internal_node_id":"0.0-8.0"},{"trial_type":"number-animation","trial_index":9,"time_elapsed":174784,"internal_node_id":"0.0-9.0"},{"phase":0,"sequence":2,"avg":176,"response":170,"trial_type":"training_avg","trial_index":10,"time_elapsed":183232,"internal_node_id":"0.0-10.0"},{"trial_type":"number-animation","trial_index":11,"time_elapsed":203399,"internal_node_id":"0.0-11.0"},{"phase":0,"sequence":3,"avg":180,"response":185,"trial_type":"training_avg","trial_index":12,"time_elapsed":217991,"internal_node_id":"0.0-12.0"},{"trial_type":"number-animation","trial_index":13,"time_elapsed":239719,"internal_node_id":"0.0-13.0"},{"phase":0,"sequence":4,"avg":174,"response":170,"trial_type":"training_avg","trial_index":14,"time_elapsed":248232,"internal_node_id":"0.0-14.0"},{"responses":[{"value":0,"offby":-1,"category":"$90 - $120","category_index":0},{"value":3,"offby":0,"category":"$121 - $145","category_index":1},{"value":6,"offby":3,"category":"$146 - $170","category_index":2},{"value":7,"offby":1,"category":"$171 - $195","category_index":3},{"value":3,"offby":-1,"category":"$196 - $220","category_index":4},{"value":1,"offby":-1,"category":"$221 - $245","category_index":5},{"value":0,"offby":-1,"category":"$246 - $270","category_index":6}],"phase":0,"number":0,"trial_type":"bar-choose","trial_index":15,"time_elapsed":341192,"internal_node_id":"0.0-15.0"},{"rt":18076,"url":"\/tickets\/\/utils\/testing.html","trial_type":"html","trial_index":16,"time_elapsed":360391,"internal_node_id":"0.0-16.0"},{"phase":0,"order":[43,41,38,12,20,24,19,17,18,7,31,26,45,1,23,2,6,11,39,35,37,4,44,3,47,46,10,36,15,28,14,22,49,16,27,21,0,34,5,32,42,9,29,40,48,25,13,8,30,33],"trial_type":"store_order","trial_index":17,"time_elapsed":361393,"internal_node_id":"0.0-17.0"},{"result":165,"points":2,"place":1,"phase":0,"sequence":-1,"prices":[184,180,224,165,181,199,185,193,218,126],"times":[3109,1623,887,6214],"next_num":4,"trial_type":"ticket-choose","trial_index":18,"time_elapsed":376704,"internal_node_id":"0.0-18.0"},{"rt":14304,"url":"\/tickets\/utils\/testing_after.html","trial_type":"html","trial_index":19,"time_elapsed":392137,"internal_node_id":"0.0-19.0"},{"result":157,"points":3,"place":0,"phase":0,"sequence":0,"prices":[157,213,159,187,194,242,161,222,225,189],"times":[6185],"next_num":1,"trial_type":"ticket-choose","trial_index":20,"time_elapsed":402689,"internal_node_id":"0.0-20.0"},{"result":119,"points":3,"place":0,"phase":0,"sequence":1,"prices":[198,119,169,141,195,233,136,208,177,217],"times":[1591,1199],"next_num":2,"trial_type":"ticket-choose","trial_index":21,"time_elapsed":408776,"internal_node_id":"0.0-21.0"},{"result":154,"points":2,"place":1,"phase":0,"sequence":2,"prices":[168,192,176,242,183,197,154,156,237,132],"times":[3585,966,1509,958,982,855,1126],"next_num":7,"trial_type":"ticket-choose","trial_index":22,"time_elapsed":423184,"internal_node_id":"0.0-22.0"},{"result":136,"points":2,"place":1,"phase":0,"sequence":3,"prices":[172,194,174,243,182,193,136,150,237,126],"times":[1751,934,662,726,734,798,1007],"next_num":7,"trial_type":"ticket-choose","trial_index":23,"time_elapsed":433552,"internal_node_id":"0.0-23.0"},{"result":136,"points":2,"place":1,"phase":0,"sequence":4,"prices":[170,192,174,242,181,196,136,153,236,128],"times":[5328,622,648,654,822,646,1078],"next_num":7,"trial_type":"ticket-choose","trial_index":24,"time_elapsed":447128,"internal_node_id":"0.0-24.0"},{"result":105,"points":3,"place":0,"phase":0,"sequence":5,"prices":[263,165,224,214,105,230,215,185,177,193],"times":[1371,2438,750,718,1127],"next_num":5,"trial_type":"ticket-choose","trial_index":25,"time_elapsed":457072,"internal_node_id":"0.0-25.0"},{"result":154,"points":2,"place":1,"phase":0,"sequence":6,"prices":[169,192,176,244,178,194,154,159,237,125],"times":[2176,630,606,670,670,630,1390],"next_num":7,"trial_type":"ticket-choose","trial_index":26,"time_elapsed":467816,"internal_node_id":"0.0-26.0"},{"result":154,"points":2,"place":1,"phase":0,"sequence":7,"prices":[169,193,154,255,178,194,176,158,239,126],"times":[4185,655,3072],"next_num":3,"trial_type":"ticket-choose","trial_index":27,"time_elapsed":478312,"internal_node_id":"0.0-27.0"},{"result":136,"points":2,"place":1,"phase":0,"sequence":8,"prices":[173,194,136,239,182,200,174,150,236,127],"times":[1690,646,1076],"next_num":3,"trial_type":"ticket-choose","trial_index":28,"time_elapsed":484432,"internal_node_id":"0.0-28.0"},{"result":154,"points":2,"place":1,"phase":0,"sequence":9,"prices":[170,193,176,245,178,194,154,159,236,126],"times":[1153,655,583,599,2094,1014,2525],"next_num":7,"trial_type":"ticket-choose","trial_index":29,"time_elapsed":496704,"internal_node_id":"0.0-29.0"},{"result":129,"points":2,"place":1,"phase":0,"sequence":10,"prices":[155,129,164,189,210,108,187,241,174,275],"times":[2377,1325],"next_num":2,"trial_type":"ticket-choose","trial_index":30,"time_elapsed":502944,"internal_node_id":"0.0-30.0"},{"result":114,"points":3,"place":0,"phase":0,"sequence":11,"prices":[182,249,159,114,184,205,175,189,172,178],"times":[2472,639,5509,1150],"next_num":4,"trial_type":"ticket-choose","trial_index":31,"time_elapsed":515911,"internal_node_id":"0.0-31.0"},{"result":146,"points":2,"place":1,"phase":0,"sequence":12,"prices":[172,191,176,272,179,194,146,152,126,235],"times":[2169,590,598,702,1383,736,1220],"next_num":7,"trial_type":"ticket-choose","trial_index":32,"time_elapsed":526791,"internal_node_id":"0.0-32.0"},{"result":146,"points":3,"place":0,"phase":0,"sequence":13,"prices":[156,218,212,216,191,210,275,146,174,152],"times":[1264,606,566,551,679,695,950,1358],"next_num":8,"trial_type":"ticket-choose","trial_index":33,"time_elapsed":537103,"internal_node_id":"0.0-33.0"},{"result":154,"points":2,"place":1,"phase":0,"sequence":14,"prices":[169,194,154,271,178,201,176,158,236,127],"times":[1418,670,1526],"next_num":3,"trial_type":"ticket-choose","trial_index":34,"time_elapsed":543295,"internal_node_id":"0.0-34.0"},{"result":192,"points":1,"place":4,"phase":0,"sequence":15,"prices":[157,205,161,175,197,254,165,210,214,192],"times":[1376,630,607,548,710,663,989,926,838,959],"next_num":10,"trial_type":"ticket-choose","trial_index":35,"time_elapsed":555951,"internal_node_id":"0.0-35.0"},{"result":146,"points":2,"place":1,"phase":0,"sequence":16,"prices":[168,191,172,240,183,193,146,151,125,238],"times":[2065,677,662,709,728,902,1239],"next_num":7,"trial_type":"ticket-choose","trial_index":36,"time_elapsed":566383,"internal_node_id":"0.0-36.0"},{"result":131,"points":2,"place":1,"phase":0,"sequence":17,"prices":[221,234,131,136,132,149,154,90,176,173],"times":[1002,597,1039],"next_num":3,"trial_type":"ticket-choose","trial_index":37,"time_elapsed":571815,"internal_node_id":"0.0-37.0"},{"result":136,"points":2,"place":1,"phase":0,"sequence":18,"prices":[169,192,174,246,180,195,136,152,238,126],"times":[915,926,663,654,1103,622,1086],"next_num":7,"trial_type":"ticket-choose","trial_index":38,"time_elapsed":580968,"internal_node_id":"0.0-38.0"},{"result":117,"points":3,"place":0,"phase":0,"sequence":19,"prices":[117,161,120,147,153,259,144,191,195,149],"times":[2441],"next_num":1,"trial_type":"ticket-choose","trial_index":39,"time_elapsed":586376,"internal_node_id":"0.0-39.0"},{"result":152,"points":1,"place":3,"phase":0,"sequence":20,"prices":[186,146,191,179,152,116,140,201,172,187],"times":[1041,718,958,726,1598],"next_num":5,"trial_type":"ticket-choose","trial_index":40,"time_elapsed":594736,"internal_node_id":"0.0-40.0"},{"result":124,"points":3,"place":0,"phase":0,"sequence":21,"prices":[219,183,227,124,176,161,140,129,171,201],"times":[1006,983,727,1048],"next_num":4,"trial_type":"ticket-choose","trial_index":41,"time_elapsed":601192,"internal_node_id":"0.0-41.0"},{"result":132,"points":3,"place":0,"phase":0,"sequence":22,"prices":[132,222,144,153,190,248,151,224,228,179],"times":[1800],"next_num":1,"trial_type":"ticket-choose","trial_index":42,"time_elapsed":605664,"internal_node_id":"0.0-42.0"},{"result":146,"points":2,"place":1,"phase":0,"sequence":23,"prices":[171,195,172,242,179,196,146,150,128,235],"times":[1034,606,606,655,742,646,1078],"next_num":7,"trial_type":"ticket-choose","trial_index":43,"time_elapsed":614280,"internal_node_id":"0.0-43.0"},{"result":136,"points":2,"place":1,"phase":0,"sequence":24,"prices":[172,190,136,270,179,192,174,152,237,129],"times":[744,983,1182],"next_num":3,"trial_type":"ticket-choose","trial_index":44,"time_elapsed":619584,"internal_node_id":"0.0-44.0"},{"result":136,"points":3,"place":0,"phase":0,"sequence":25,"prices":[240,188,273,207,250,136,217,170,171,236],"times":[722,663,646,614,582,1006],"next_num":6,"trial_type":"ticket-choose","trial_index":45,"time_elapsed":626960,"internal_node_id":"0.0-45.0"},{"result":154,"points":2,"place":1,"phase":0,"sequence":26,"prices":[170,190,176,251,183,192,154,157,236,131],"times":[2664,604,615,662,670,629,1166],"next_num":7,"trial_type":"ticket-choose","trial_index":46,"time_elapsed":637120,"internal_node_id":"0.0-46.0"},{"result":149,"points":2,"place":1,"phase":0,"sequence":27,"prices":[196,221,149,164,216,167,175,128,176,181],"times":[681,629,1198],"next_num":3,"trial_type":"ticket-choose","trial_index":47,"time_elapsed":642248,"internal_node_id":"0.0-47.0"},{"result":121,"points":3,"place":0,"phase":0,"sequence":28,"prices":[121,191,128,141,166,217,129,196,202,157],"times":[1112],"next_num":1,"trial_type":"ticket-choose","trial_index":48,"time_elapsed":645489,"internal_node_id":"0.0-48.0"},{"result":142,"points":3,"place":0,"phase":0,"sequence":29,"prices":[142,207,171,182,190,269,180,218,256,188],"times":[1689],"next_num":1,"trial_type":"ticket-choose","trial_index":49,"time_elapsed":649584,"internal_node_id":"0.0-49.0"},{"result":135,"points":3,"place":0,"phase":0,"sequence":30,"prices":[221,193,135,188,217,179,196,190,175,159],"times":[767,613,998],"next_num":3,"trial_type":"ticket-choose","trial_index":50,"time_elapsed":654584,"internal_node_id":"0.0-50.0"},{"result":136,"points":2,"place":1,"phase":0,"sequence":31,"prices":[171,192,136,243,182,195,174,154,236,128],"times":[717,677,950],"next_num":3,"trial_type":"ticket-choose","trial_index":51,"time_elapsed":659304,"internal_node_id":"0.0-51.0"},{"result":154,"points":2,"place":1,"phase":0,"sequence":32,"prices":[244,203,196,189,154,206,197,149,171,159],"times":[840,630,694,638,1575],"next_num":5,"trial_type":"ticket-choose","trial_index":52,"time_elapsed":666561,"internal_node_id":"0.0-52.0"},{"result":138,"points":1,"place":2,"phase":0,"sequence":33,"prices":[181,138,118,170,190,101,146,169,175,233],"times":[505,886],"next_num":2,"trial_type":"ticket-choose","trial_index":53,"time_elapsed":671480,"internal_node_id":"0.0-53.0"},{"result":136,"points":2,"place":1,"phase":0,"sequence":34,"prices":[171,192,136,265,180,194,174,152,239,127],"times":[948,662,854],"next_num":3,"trial_type":"ticket-choose","trial_index":54,"time_elapsed":676528,"internal_node_id":"0.0-54.0"},{"result":124,"points":3,"place":0,"phase":0,"sequence":35,"prices":[124,220,136,165,185,234,143,225,228,179],"times":[1016],"next_num":1,"trial_type":"ticket-choose","trial_index":55,"time_elapsed":679672,"internal_node_id":"0.0-55.0"},{"result":145,"points":2,"place":1,"phase":0,"sequence":36,"prices":[216,206,158,145,224,185,124,149,175,162],"times":[1008,566,1694,1247],"next_num":4,"trial_type":"ticket-choose","trial_index":56,"time_elapsed":686784,"internal_node_id":"0.0-56.0"},{"result":146,"points":2,"place":1,"phase":0,"sequence":37,"prices":[168,191,146,252,183,193,172,153,126,238],"times":[819,590,1798],"next_num":3,"trial_type":"ticket-choose","trial_index":57,"time_elapsed":692456,"internal_node_id":"0.0-57.0"},{"result":146,"points":2,"place":1,"phase":0,"sequence":38,"prices":[170,193,146,268,178,195,172,149,126,241],"times":[801,686,2495],"next_num":3,"trial_type":"ticket-choose","trial_index":58,"time_elapsed":698776,"internal_node_id":"0.0-58.0"},{"result":146,"points":2,"place":1,"phase":0,"sequence":39,"prices":[171,191,172,268,179,194,146,150,127,239],"times":[882,582,582,662,606,638,1037],"next_num":7,"trial_type":"ticket-choose","trial_index":59,"time_elapsed":706864,"internal_node_id":"0.0-59.0"},{"result":130,"points":2,"place":1,"phase":0,"sequence":40,"prices":[181,130,116,142,157,193,165,218,173,207],"times":[1560,942],"next_num":2,"trial_type":"ticket-choose","trial_index":60,"time_elapsed":711504,"internal_node_id":"0.0-60.0"},{"result":150,"points":1,"place":2,"phase":0,"sequence":41,"prices":[169,193,146,237,180,196,172,150,129,236],"times":[1027,676,550,670,670,966,703,1702],"next_num":8,"trial_type":"ticket-choose","trial_index":61,"time_elapsed":721904,"internal_node_id":"0.0-61.0"},{"result":152,"points":1,"place":2,"phase":0,"sequence":42,"prices":[173,191,146,242,178,194,172,152,126,235],"times":[2473,622,1438,590,567,590,621,1382],"next_num":8,"trial_type":"ticket-choose","trial_index":62,"time_elapsed":733568,"internal_node_id":"0.0-62.0"},{"result":155,"points":1,"place":2,"phase":0,"sequence":43,"prices":[169,191,154,268,183,197,176,155,236,133],"times":[1266,599,1382,613,879,614,670,1366],"next_num":8,"trial_type":"ticket-choose","trial_index":63,"time_elapsed":744360,"internal_node_id":"0.0-63.0"},{"result":153,"points":2,"place":1,"phase":0,"sequence":44,"prices":[197,153,181,215,150,155,164,247,177,162],"times":[873,1031],"next_num":2,"trial_type":"ticket-choose","trial_index":64,"time_elapsed":748432,"internal_node_id":"0.0-64.0"},{"result":135,"points":3,"place":0,"phase":0,"sequence":45,"prices":[135,202,150,169,183,225,160,211,220,172],"times":[1032],"next_num":1,"trial_type":"ticket-choose","trial_index":65,"time_elapsed":751824,"internal_node_id":"0.0-65.0"},{"result":137,"points":3,"place":0,"phase":0,"sequence":46,"prices":[137,187,152,156,166,231,155,194,202,160],"times":[1609],"next_num":1,"trial_type":"ticket-choose","trial_index":66,"time_elapsed":756528,"internal_node_id":"0.0-66.0"},{"result":136,"points":2,"place":1,"phase":0,"sequence":47,"prices":[173,191,174,270,180,193,136,153,239,129],"times":[1265,2005,766,631,574,654,1029],"next_num":7,"trial_type":"ticket-choose","trial_index":67,"time_elapsed":766840,"internal_node_id":"0.0-67.0"},{"result":143,"points":3,"place":0,"phase":0,"sequence":48,"prices":[143,206,153,194,201,267,168,208,210,196],"times":[3194],"next_num":1,"trial_type":"ticket-choose","trial_index":68,"time_elapsed":772144,"internal_node_id":"0.0-68.0"},{"result":156,"points":1,"place":2,"phase":0,"sequence":49,"prices":[168,192,154,237,182,196,176,156,235,133],"times":[1145,639,622,567,598,639,695,1047],"next_num":8,"trial_type":"ticket-choose","trial_index":69,"time_elapsed":781504,"internal_node_id":"0.0-69.0"},{"responses":[{"value":0,"offby":-1,"category":"$90 - $120","category_index":0},{"value":3,"offby":0,"category":"$121 - $145","category_index":1},{"value":5,"offby":2,"category":"$146 - $170","category_index":2},{"value":6,"offby":0,"category":"$171 - $195","category_index":3},{"value":4,"offby":0,"category":"$196 - $220","category_index":4},{"value":2,"offby":0,"category":"$221 - $245","category_index":5},{"value":0,"offby":-1,"category":"$246 - $270","category_index":6}],"phase":0,"number":1,"trial_type":"bar-choose","trial_index":70,"time_elapsed":857705,"internal_node_id":"0.0-70.0"},{"rt":12150,"url":"\/tickets\/utils\/start2.html","trial_type":"html","trial_index":71,"time_elapsed":870976,"internal_node_id":"0.0-71.0"},{"trial_type":"number-animation","trial_index":72,"time_elapsed":887872,"internal_node_id":"0.0-72.0"},{"phase":1,"sequence":0,"avg":181,"response":180,"trial_type":"training_avg","trial_index":73,"time_elapsed":894584,"internal_node_id":"0.0-73.0"},{"trial_type":"number-animation","trial_index":74,"time_elapsed":911575,"internal_node_id":"0.0-74.0"},{"phase":1,"sequence":1,"avg":188,"response":185,"trial_type":"training_avg","trial_index":75,"time_elapsed":918288,"internal_node_id":"0.0-75.0"},{"trial_type":"number-animation","trial_index":76,"time_elapsed":934759,"internal_node_id":"0.0-76.0"},{"phase":1,"sequence":2,"avg":188,"response":190,"trial_type":"training_avg","trial_index":77,"time_elapsed":942679,"internal_node_id":"0.0-77.0"},{"trial_type":"number-animation","trial_index":78,"time_elapsed":956040,"internal_node_id":"0.0-78.0"},{"phase":1,"sequence":3,"avg":177,"response":175,"trial_type":"training_avg","trial_index":79,"time_elapsed":963919,"internal_node_id":"0.0-79.0"},{"trial_type":"number-animation","trial_index":80,"time_elapsed":979257,"internal_node_id":"0.0-80.0"},{"phase":1,"sequence":4,"avg":182,"response":180,"trial_type":"training_avg","trial_index":81,"time_elapsed":987784,"internal_node_id":"0.0-81.0"},{"responses":[{"value":1,"offby":1,"category":"$106 - $134","category_index":0},{"value":3,"offby":2,"category":"$135 - $150","category_index":1},{"value":3,"offby":0,"category":"$151 - $165","category_index":2},{"value":5,"offby":-1,"category":"$166 - $180","category_index":3},{"value":4,"offby":-2,"category":"$181 - $195","category_index":4},{"value":3,"offby":0,"category":"$196 - $210","category_index":5},{"value":1,"offby":0,"category":"$211 - $225","category_index":6}],"phase":1,"number":0,"trial_type":"bar-choose","trial_index":82,"time_elapsed":1035809,"internal_node_id":"0.0-82.0"},{"rt":6756,"url":"\/tickets\/utils\/testing2.html","trial_type":"html","trial_index":83,"time_elapsed":1043689,"internal_node_id":"0.0-83.0"},{"phase":1,"order":[28,40,12,22,21,42,14,10,18,15,35,48,4,38,11,27,6,41,20,31,49,47,25,5,19,46,13,36,29,24,43,17,45,44,16,26,37,2,3,7,34,1,0,9,39,30,33,23,32,8],"trial_type":"store_order","trial_index":84,"time_elapsed":1044691,"internal_node_id":"0.0-84.0"},{"result":157,"points":3,"place":0,"phase":1,"sequence":0,"prices":[201,187,157,184,198,179,188,185,178,170],"times":[2625,894,1167],"next_num":3,"trial_type":"ticket-choose","trial_index":85,"time_elapsed":1051961,"internal_node_id":"0.0-85.0"},{"result":155,"points":2,"place":1,"phase":1,"sequence":1,"prices":[201,207,155,158,156,165,167,135,178,177],"times":[966,510,998],"next_num":3,"trial_type":"ticket-choose","trial_index":86,"time_elapsed":1056712,"internal_node_id":"0.0-86.0"},{"result":168,"points":1,"place":2,"phase":1,"sequence":2,"prices":[168,199,196,198,185,195,227,163,177,166],"times":[1946],"next_num":1,"trial_type":"ticket-choose","trial_index":87,"time_elapsed":1060929,"internal_node_id":"0.0-87.0"},{"result":167,"points":2,"place":1,"phase":1,"sequence":3,"prices":[174,186,178,217,181,188,167,168,208,156],"times":[913,559,501,597,726,671,870],"next_num":7,"trial_type":"ticket-choose","trial_index":88,"time_elapsed":1068872,"internal_node_id":"0.0-88.0"},{"result":158,"points":2,"place":1,"phase":1,"sequence":4,"prices":[175,186,177,221,180,187,158,166,209,153],"times":[864,654,510,638,654,566,1061],"next_num":7,"trial_type":"ticket-choose","trial_index":89,"time_elapsed":1076921,"internal_node_id":"0.0-89.0"},{"result":161,"points":3,"place":0,"phase":1,"sequence":5,"prices":[161,193,175,181,185,224,180,199,218,184],"times":[1480],"next_num":1,"trial_type":"ticket-choose","trial_index":90,"time_elapsed":1080824,"internal_node_id":"0.0-90.0"},{"result":158,"points":2,"place":1,"phase":1,"sequence":6,"prices":[176,185,158,217,180,186,177,166,209,154],"times":[895,597,902],"next_num":3,"trial_type":"ticket-choose","trial_index":91,"time_elapsed":1085489,"internal_node_id":"0.0-91.0"},{"result":158,"points":2,"place":1,"phase":1,"sequence":7,"prices":[175,186,158,209,181,188,177,167,208,154],"times":[651,637,974],"next_num":3,"trial_type":"ticket-choose","trial_index":92,"time_elapsed":1090056,"internal_node_id":"0.0-92.0"},{"result":158,"points":2,"place":1,"phase":1,"sequence":8,"prices":[176,187,158,210,181,187,177,165,208,153],"times":[440,518,862],"next_num":3,"trial_type":"ticket-choose","trial_index":93,"time_elapsed":1094008,"internal_node_id":"0.0-93.0"},{"result":163,"points":2,"place":1,"phase":1,"sequence":9,"prices":[175,186,176,224,179,187,163,165,153,210],"times":[704,533,510,696,629,550,1064],"next_num":7,"trial_type":"ticket-choose","trial_index":94,"time_elapsed":1101744,"internal_node_id":"0.0-94.0"},{"result":148,"points":3,"place":0,"phase":1,"sequence":10,"prices":[148,171,150,163,167,220,162,186,187,165],"times":[1067],"next_num":1,"trial_type":"ticket-choose","trial_index":95,"time_elapsed":1104689,"internal_node_id":"0.0-95.0"},{"result":152,"points":3,"place":0,"phase":1,"sequence":11,"prices":[152,200,158,173,182,207,161,202,204,180],"times":[827],"next_num":1,"trial_type":"ticket-choose","trial_index":96,"time_elapsed":1107457,"internal_node_id":"0.0-96.0"},{"result":167,"points":2,"place":1,"phase":1,"sequence":12,"prices":[212,192,188,184,167,193,189,164,176,170],"times":[1384,454,495,527,814],"next_num":5,"trial_type":"ticket-choose","trial_index":97,"time_elapsed":1113704,"internal_node_id":"0.0-97.0"},{"result":163,"points":2,"place":1,"phase":1,"sequence":13,"prices":[175,187,163,209,180,188,176,165,154,208],"times":[801,550,861],"next_num":3,"trial_type":"ticket-choose","trial_index":98,"time_elapsed":1118152,"internal_node_id":"0.0-98.0"},{"result":158,"points":2,"place":1,"phase":1,"sequence":14,"prices":[176,185,177,218,180,186,158,166,209,154],"times":[689,607,542,653,558,559,1270],"next_num":7,"trial_type":"ticket-choose","trial_index":99,"time_elapsed":1126153,"internal_node_id":"0.0-99.0"},{"result":166,"points":1,"place":2,"phase":1,"sequence":15,"prices":[174,186,163,212,181,187,176,166,153,209],"times":[640,518,487,550,526,496,533,1088],"next_num":8,"trial_type":"ticket-choose","trial_index":100,"time_elapsed":1134289,"internal_node_id":"0.0-100.0"},{"result":163,"points":2,"place":1,"phase":1,"sequence":16,"prices":[174,186,176,217,181,187,163,166,153,209],"times":[705,534,589,534,583,525,1055],"next_num":7,"trial_type":"ticket-choose","trial_index":101,"time_elapsed":1141858,"internal_node_id":"0.0-101.0"},{"result":169,"points":1,"place":2,"phase":1,"sequence":17,"prices":[175,187,167,212,179,187,178,169,208,153],"times":[656,606,399,558,543,485,510,967],"next_num":8,"trial_type":"ticket-choose","trial_index":102,"time_elapsed":1149777,"internal_node_id":"0.0-102.0"},{"result":167,"points":2,"place":1,"phase":1,"sequence":18,"prices":[189,167,180,197,165,168,172,213,178,171],"times":[641,935],"next_num":2,"trial_type":"ticket-choose","trial_index":103,"time_elapsed":1153361,"internal_node_id":"0.0-103.0"},{"result":168,"points":1,"place":2,"phase":1,"sequence":19,"prices":[168,154,172,185,195,144,184,211,177,227],"times":[984],"next_num":1,"trial_type":"ticket-choose","trial_index":104,"time_elapsed":1156216,"internal_node_id":"0.0-104.0"},{"result":163,"points":2,"place":1,"phase":1,"sequence":20,"prices":[198,193,169,163,202,182,152,164,177,171],"times":[854,511,428,870],"next_num":4,"trial_type":"ticket-choose","trial_index":105,"time_elapsed":1161329,"internal_node_id":"0.0-105.0"},{"result":163,"points":2,"place":1,"phase":1,"sequence":21,"prices":[176,186,176,210,179,187,163,166,153,208],"times":[745,526,558,638,519,509,823],"next_num":7,"trial_type":"ticket-choose","trial_index":106,"time_elapsed":1168625,"internal_node_id":"0.0-106.0"},{"result":149,"points":2,"place":1,"phase":1,"sequence":22,"prices":[180,159,149,175,185,141,163,174,178,207],"times":[514,414,885],"next_num":3,"trial_type":"ticket-choose","trial_index":107,"time_elapsed":1172649,"internal_node_id":"0.0-107.0"},{"result":163,"points":2,"place":1,"phase":1,"sequence":23,"prices":[175,186,163,211,179,187,176,165,153,210],"times":[854,509,999],"next_num":3,"trial_type":"ticket-choose","trial_index":108,"time_elapsed":1177161,"internal_node_id":"0.0-108.0"},{"result":152,"points":3,"place":0,"phase":1,"sequence":24,"prices":[200,181,203,152,175,171,160,154,176,191],"times":[772,510,604,967],"next_num":4,"trial_type":"ticket-choose","trial_index":109,"time_elapsed":1182473,"internal_node_id":"0.0-109.0"},{"result":158,"points":3,"place":0,"phase":1,"sequence":25,"prices":[210,184,226,193,215,158,199,175,176,208],"times":[672,541,502,669,646,879],"next_num":6,"trial_type":"ticket-choose","trial_index":110,"time_elapsed":1189208,"internal_node_id":"0.0-110.0"},{"result":167,"points":2,"place":1,"phase":1,"sequence":26,"prices":[175,186,167,225,179,187,178,169,209,153],"times":[768,534,878],"next_num":3,"trial_type":"ticket-choose","trial_index":111,"time_elapsed":1193961,"internal_node_id":"0.0-111.0"},{"result":154,"points":3,"place":0,"phase":1,"sequence":27,"prices":[188,200,165,172,198,174,177,154,177,180],"times":[615,552,654,614,575,526,550,991],"next_num":8,"trial_type":"ticket-choose","trial_index":112,"time_elapsed":1202424,"internal_node_id":"0.0-112.0"},{"result":167,"points":2,"place":1,"phase":1,"sequence":28,"prices":[175,187,178,209,179,187,167,169,208,153],"times":[618,503,478,567,533,591,871],"next_num":7,"trial_type":"ticket-choose","trial_index":113,"time_elapsed":1209993,"internal_node_id":"0.0-113.0"},{"result":169,"points":3,"place":0,"phase":1,"sequence":29,"prices":[169,196,170,184,187,211,171,201,202,185],"times":[1089],"next_num":1,"trial_type":"ticket-choose","trial_index":114,"time_elapsed":1213010,"internal_node_id":"0.0-114.0"},{"result":167,"points":2,"place":1,"phase":1,"sequence":30,"prices":[175,186,178,212,179,187,167,169,209,153],"times":[744,615,493,542,501,622,790],"next_num":7,"trial_type":"ticket-choose","trial_index":115,"time_elapsed":1220426,"internal_node_id":"0.0-115.0"},{"result":158,"points":2,"place":1,"phase":1,"sequence":31,"prices":[176,187,177,225,181,187,158,165,208,153],"times":[663,519,516,566,526,572,901],"next_num":7,"trial_type":"ticket-choose","trial_index":116,"time_elapsed":1227785,"internal_node_id":"0.0-116.0"},{"result":163,"points":1,"place":2,"phase":1,"sequence":32,"prices":[183,163,185,180,166,148,160,186,176,184],"times":[663,846],"next_num":2,"trial_type":"ticket-choose","trial_index":117,"time_elapsed":1231433,"internal_node_id":"0.0-117.0"},{"result":166,"points":1,"place":2,"phase":1,"sequence":33,"prices":[175,186,158,211,180,187,177,166,209,153],"times":[664,591,527,559,511,542,654,839],"next_num":8,"trial_type":"ticket-choose","trial_index":118,"time_elapsed":1239601,"internal_node_id":"0.0-118.0"},{"result":168,"points":3,"place":0,"phase":1,"sequence":34,"prices":[168,192,171,178,188,217,172,195,197,186],"times":[945],"next_num":1,"trial_type":"ticket-choose","trial_index":119,"time_elapsed":1242593,"internal_node_id":"0.0-119.0"},{"result":158,"points":2,"place":1,"phase":1,"sequence":35,"prices":[175,186,177,209,181,188,158,167,208,154],"times":[904,653,766,278,518,550,791],"next_num":7,"trial_type":"ticket-choose","trial_index":120,"time_elapsed":1250025,"internal_node_id":"0.0-120.0"},{"result":163,"points":2,"place":1,"phase":1,"sequence":36,"prices":[176,186,163,214,179,187,176,166,153,208],"times":[657,541,781],"next_num":3,"trial_type":"ticket-choose","trial_index":121,"time_elapsed":1254129,"internal_node_id":"0.0-121.0"},{"result":155,"points":2,"place":1,"phase":1,"sequence":37,"prices":[181,155,148,161,168,187,172,199,176,194],"times":[897,806],"next_num":2,"trial_type":"ticket-choose","trial_index":122,"time_elapsed":1257921,"internal_node_id":"0.0-122.0"},{"result":163,"points":2,"place":1,"phase":1,"sequence":38,"prices":[175,187,176,209,180,188,163,165,154,208],"times":[792,607,597,902,519,517,871],"next_num":7,"trial_type":"ticket-choose","trial_index":123,"time_elapsed":1265793,"internal_node_id":"0.0-123.0"},{"result":161,"points":3,"place":0,"phase":1,"sequence":39,"prices":[161,193,167,187,190,224,174,194,195,188],"times":[879],"next_num":1,"trial_type":"ticket-choose","trial_index":124,"time_elapsed":1268728,"internal_node_id":"0.0-124.0"},{"result":143,"points":3,"place":0,"phase":1,"sequence":40,"prices":[222,173,202,197,143,205,198,183,178,186],"times":[636,407,478,484,863],"next_num":5,"trial_type":"ticket-choose","trial_index":125,"time_elapsed":1274225,"internal_node_id":"0.0-125.0"},{"result":167,"points":2,"place":1,"phase":1,"sequence":41,"prices":[175,185,167,224,181,186,178,168,208,156],"times":[809,431,877],"next_num":3,"trial_type":"ticket-choose","trial_index":126,"time_elapsed":1278480,"internal_node_id":"0.0-126.0"},{"result":150,"points":3,"place":0,"phase":1,"sequence":42,"prices":[150,185,154,161,173,199,155,188,191,168],"times":[991],"next_num":1,"trial_type":"ticket-choose","trial_index":127,"time_elapsed":1281185,"internal_node_id":"0.0-127.0"},{"result":150,"points":3,"place":0,"phase":1,"sequence":43,"prices":[189,150,175,160,188,207,158,194,178,199],"times":[626,716],"next_num":2,"trial_type":"ticket-choose","trial_index":128,"time_elapsed":1284569,"internal_node_id":"0.0-128.0"},{"result":179,"points":1,"place":4,"phase":1,"sequence":44,"prices":[181,215,169,147,182,193,177,184,176,179],"times":[614,460,494,566,847,806,510,766,743,639],"next_num":10,"trial_type":"ticket-choose","trial_index":129,"time_elapsed":1294641,"internal_node_id":"0.0-129.0"},{"result":156,"points":3,"place":0,"phase":1,"sequence":45,"prices":[156,201,162,166,185,214,165,202,204,179],"times":[839],"next_num":1,"trial_type":"ticket-choose","trial_index":130,"time_elapsed":1297176,"internal_node_id":"0.0-130.0"},{"result":167,"points":2,"place":1,"phase":1,"sequence":46,"prices":[175,185,178,215,181,186,167,168,208,156],"times":[752,494,654,584,493,590,903],"next_num":7,"trial_type":"ticket-choose","trial_index":131,"time_elapsed":1304777,"internal_node_id":"0.0-131.0"},{"result":178,"points":1,"place":4,"phase":1,"sequence":47,"prices":[174,186,167,211,181,188,178,168,208,156],"times":[661,518,510,575,533,558,1263],"next_num":7,"trial_type":"ticket-choose","trial_index":132,"time_elapsed":1312521,"internal_node_id":"0.0-132.0"},{"result":165,"points":2,"place":1,"phase":1,"sequence":48,"prices":[157,191,165,175,182,203,170,195,200,176],"times":[932,670,862],"next_num":3,"trial_type":"ticket-choose","trial_index":133,"time_elapsed":1317153,"internal_node_id":"0.0-133.0"},{"result":159,"points":3,"place":0,"phase":1,"sequence":49,"prices":[159,183,166,168,173,205,167,187,191,170],"times":[941],"next_num":1,"trial_type":"ticket-choose","trial_index":134,"time_elapsed":1319896,"internal_node_id":"0.0-134.0"},{"responses":[{"value":0,"offby":0,"category":"$106 - $134","category_index":0},{"value":3,"offby":2,"category":"$135 - $150","category_index":1},{"value":4,"offby":1,"category":"$151 - $165","category_index":2},{"value":7,"offby":1,"category":"$166 - $180","category_index":3},{"value":5,"offby":-1,"category":"$181 - $195","category_index":4},{"value":0,"offby":-3,"category":"$196 - $210","category_index":5},{"value":0,"offby":-1,"category":"$211 - $225","category_index":6}],"phase":1,"number":1,"trial_type":"bar-choose","trial_index":135,"time_elapsed":1359018,"internal_node_id":"0.0-135.0"},{"special_comment":"Thelater ones tended to be the lowest","trial_type":"special_sequence","trial_index":136,"time_elapsed":1375969,"internal_node_id":"0.0-136.0"},{"during":"Nothing","bonus":288,"trial_type":"final","trial_index":137,"time_elapsed":1392563,"internal_node_id":"0.0-137.0"}],"bonus":288}