{"start_time":"2017-02-22 10:50:17","end_time":"2017-02-22 11:21:27","points_phase0":110,"points_phase1":113,"phase_order":0,"age":22,"gender":"f","tries":1,"during":"Nothing","worker_id":"APGX2WZ59OWDN","assignment_id":"3ZAZR5XV02BA4VBEIAJ3ZPLF8T4ZCH","data":[{"rt":146593,"url":"\/tickets\/utils\/consent.html","trial_type":"html","trial_index":0,"time_elapsed":146773,"internal_node_id":"0.0-0.0"},{"age":22,"gender":"f","trial_type":"age","trial_index":1,"time_elapsed":175856,"internal_node_id":"0.0-1.0"},{"worker_id":"APGX2WZ59OWDN","trial_type":"workerid","trial_index":2,"time_elapsed":229134,"internal_node_id":"0.0-2.0"},{"tries":1,"trial_type":"instructions_check","trial_index":3,"time_elapsed":365237,"internal_node_id":"0.0-3.0"},{"rt":159560,"url":"\/tickets\/utils\/start.html","trial_type":"html","trial_index":4,"time_elapsed":526930,"internal_node_id":"0.0-4.0"},{"trial_type":"number-animation","trial_index":5,"time_elapsed":538750,"internal_node_id":"0.0-5.0"},{"phase":0,"sequence":0,"avg":181,"response":170,"trial_type":"training_avg","trial_index":6,"time_elapsed":547268,"internal_node_id":"0.0-6.0"},{"trial_type":"number-animation","trial_index":7,"time_elapsed":556941,"internal_node_id":"0.0-7.0"},{"phase":0,"sequence":1,"avg":188,"response":187,"trial_type":"training_avg","trial_index":8,"time_elapsed":568858,"internal_node_id":"0.0-8.0"},{"trial_type":"number-animation","trial_index":9,"time_elapsed":579775,"internal_node_id":"0.0-9.0"},{"phase":0,"sequence":2,"avg":188,"response":192,"trial_type":"training_avg","trial_index":10,"time_elapsed":589405,"internal_node_id":"0.0-10.0"},{"trial_type":"number-animation","trial_index":11,"time_elapsed":599930,"internal_node_id":"0.0-11.0"},{"phase":0,"sequence":3,"avg":177,"response":172,"trial_type":"training_avg","trial_index":12,"time_elapsed":606573,"internal_node_id":"0.0-12.0"},{"trial_type":"number-animation","trial_index":13,"time_elapsed":617229,"internal_node_id":"0.0-13.0"},{"phase":0,"sequence":4,"avg":182,"response":184,"trial_type":"training_avg","trial_index":14,"time_elapsed":626539,"internal_node_id":"0.0-14.0"},{"responses":[{"value":1,"offby":1,"category":"$106 - $134","category_index":0},{"value":1,"offby":0,"category":"$135 - $150","category_index":1},{"value":1,"offby":-2,"category":"$151 - $165","category_index":2},{"value":5,"offby":-1,"category":"$166 - $180","category_index":3},{"value":6,"offby":0,"category":"$181 - $195","category_index":4},{"value":4,"offby":1,"category":"$196 - $210","category_index":5},{"value":2,"offby":1,"category":"$211 - $225","category_index":6}],"phase":0,"number":0,"trial_type":"bar-choose","trial_index":15,"time_elapsed":697005,"internal_node_id":"0.0-15.0"},{"rt":11113,"url":"\/tickets\/\/utils\/testing.html","trial_type":"html","trial_index":16,"time_elapsed":709251,"internal_node_id":"0.0-16.0"},{"phase":0,"order":[39,34,29,6,28,10,38,2,31,46,0,22,17,8,30,1,3,14,43,23,16,36,37,45,25,35,21,4,5,40,47,49,42,13,12,27,32,7,11,24,33,44,15,9,18,20,26,19,48,41],"trial_type":"store_order","trial_index":17,"time_elapsed":710253,"internal_node_id":"0.0-17.0"},{"result":126,"points":3,"place":0,"phase":0,"sequence":-1,"prices":[184,180,224,165,181,199,185,193,218,126],"times":[2640,706,581,720,1068,508,1206,731,478,1371],"next_num":10,"trial_type":"ticket-choose","trial_index":18,"time_elapsed":724438,"internal_node_id":"0.0-18.0"},{"rt":69639,"url":"\/tickets\/utils\/testing_after.html","trial_type":"html","trial_index":19,"time_elapsed":795212,"internal_node_id":"0.0-19.0"},{"result":171,"points":1,"place":3,"phase":0,"sequence":0,"prices":[189,167,180,197,165,168,172,213,178,171],"times":[1562,871,706,651,4795,1111,697,722,1119,1174],"next_num":10,"trial_type":"ticket-choose","trial_index":20,"time_elapsed":813203,"internal_node_id":"0.0-20.0"},{"result":155,"points":2,"place":1,"phase":0,"sequence":1,"prices":[181,155,148,161,168,187,172,199,176,194],"times":[2697,1217],"next_num":2,"trial_type":"ticket-choose","trial_index":21,"time_elapsed":819560,"internal_node_id":"0.0-21.0"},{"result":150,"points":3,"place":0,"phase":0,"sequence":2,"prices":[150,185,154,161,173,199,155,188,191,168],"times":[1173],"next_num":1,"trial_type":"ticket-choose","trial_index":22,"time_elapsed":823153,"internal_node_id":"0.0-22.0"},{"result":163,"points":2,"place":1,"phase":0,"sequence":3,"prices":[174,186,176,217,181,187,163,166,153,209],"times":[1117,573,583,758,696,591,1086],"next_num":7,"trial_type":"ticket-choose","trial_index":23,"time_elapsed":831728,"internal_node_id":"0.0-23.0"},{"result":185,"points":1,"place":4,"phase":0,"sequence":4,"prices":[169,196,170,184,187,211,171,201,202,185],"times":[914,1032,9464,635,583,593,2073,618,575,625],"next_num":10,"trial_type":"ticket-choose","trial_index":24,"time_elapsed":853126,"internal_node_id":"0.0-24.0"},{"result":167,"points":2,"place":1,"phase":0,"sequence":5,"prices":[175,186,167,225,179,187,178,169,209,153],"times":[1584,573,1006],"next_num":3,"trial_type":"ticket-choose","trial_index":25,"time_elapsed":858768,"internal_node_id":"0.0-25.0"},{"result":163,"points":3,"place":0,"phase":0,"sequence":6,"prices":[168,199,196,198,185,195,227,163,177,166],"times":[1173,567,635,635,669,597,668,1003],"next_num":8,"trial_type":"ticket-choose","trial_index":26,"time_elapsed":868277,"internal_node_id":"0.0-26.0"},{"result":163,"points":2,"place":1,"phase":0,"sequence":7,"prices":[174,186,163,212,181,187,176,166,153,209],"times":[1412,574,962],"next_num":3,"trial_type":"ticket-choose","trial_index":27,"time_elapsed":873717,"internal_node_id":"0.0-27.0"},{"result":148,"points":3,"place":0,"phase":0,"sequence":8,"prices":[148,171,150,163,167,220,162,186,187,165],"times":[2839],"next_num":1,"trial_type":"ticket-choose","trial_index":28,"time_elapsed":878679,"internal_node_id":"0.0-28.0"},{"result":158,"points":3,"place":0,"phase":0,"sequence":9,"prices":[210,184,226,193,215,158,199,175,176,208],"times":[4624,2065,556,625,601,925],"next_num":6,"trial_type":"ticket-choose","trial_index":29,"time_elapsed":891518,"internal_node_id":"0.0-29.0"},{"result":163,"points":2,"place":1,"phase":0,"sequence":10,"prices":[176,186,163,214,179,187,176,166,153,208],"times":[1704,581,1166],"next_num":3,"trial_type":"ticket-choose","trial_index":30,"time_elapsed":897292,"internal_node_id":"0.0-30.0"},{"result":158,"points":2,"place":1,"phase":0,"sequence":11,"prices":[176,187,177,225,181,187,158,165,208,153],"times":[755,581,671,574,680,706,1014],"next_num":7,"trial_type":"ticket-choose","trial_index":31,"time_elapsed":906133,"internal_node_id":"0.0-31.0"},{"result":158,"points":2,"place":1,"phase":0,"sequence":12,"prices":[175,186,158,209,181,188,177,167,208,154],"times":[35579,498,999],"next_num":3,"trial_type":"ticket-choose","trial_index":32,"time_elapsed":945464,"internal_node_id":"0.0-32.0"},{"result":168,"points":1,"place":2,"phase":0,"sequence":13,"prices":[174,186,167,211,181,188,178,168,208,156],"times":[792,506,995,538,547,564,691,986],"next_num":8,"trial_type":"ticket-choose","trial_index":33,"time_elapsed":954592,"internal_node_id":"0.0-33.0"},{"result":157,"points":3,"place":0,"phase":0,"sequence":14,"prices":[157,191,165,175,182,203,170,195,200,176],"times":[1288],"next_num":1,"trial_type":"ticket-choose","trial_index":34,"time_elapsed":957931,"internal_node_id":"0.0-34.0"},{"result":163,"points":2,"place":1,"phase":0,"sequence":15,"prices":[175,187,163,209,180,188,176,165,154,208],"times":[921,601,1006],"next_num":3,"trial_type":"ticket-choose","trial_index":35,"time_elapsed":962779,"internal_node_id":"0.0-35.0"},{"result":163,"points":2,"place":1,"phase":0,"sequence":16,"prices":[175,186,163,211,179,187,176,165,153,210],"times":[1313,548,1006],"next_num":3,"trial_type":"ticket-choose","trial_index":36,"time_elapsed":967901,"internal_node_id":"0.0-36.0"},{"result":167,"points":2,"place":1,"phase":0,"sequence":17,"prices":[175,186,178,212,179,187,167,169,209,153],"times":[4346,555,766,635,1157,540,918],"next_num":7,"trial_type":"ticket-choose","trial_index":37,"time_elapsed":980093,"internal_node_id":"0.0-37.0"},{"result":157,"points":3,"place":0,"phase":0,"sequence":18,"prices":[201,187,157,184,198,179,188,185,178,170],"times":[978,865,1386],"next_num":3,"trial_type":"ticket-choose","trial_index":38,"time_elapsed":985714,"internal_node_id":"0.0-38.0"},{"result":158,"points":2,"place":1,"phase":0,"sequence":19,"prices":[176,185,177,218,180,186,158,166,209,154],"times":[905,631,671,580,635,603,998],"next_num":7,"trial_type":"ticket-choose","trial_index":39,"time_elapsed":993935,"internal_node_id":"0.0-39.0"},{"result":158,"points":2,"place":1,"phase":0,"sequence":20,"prices":[175,186,158,211,180,187,177,166,209,153],"times":[1854,503,959],"next_num":3,"trial_type":"ticket-choose","trial_index":40,"time_elapsed":999594,"internal_node_id":"0.0-40.0"},{"result":165,"points":2,"place":1,"phase":0,"sequence":21,"prices":[188,200,165,172,198,174,177,154,177,180],"times":[2522,599,1767],"next_num":3,"trial_type":"ticket-choose","trial_index":41,"time_elapsed":1006781,"internal_node_id":"0.0-41.0"},{"result":163,"points":2,"place":1,"phase":0,"sequence":22,"prices":[198,193,169,163,202,182,152,164,177,171],"times":[1788,565,1075,1092],"next_num":4,"trial_type":"ticket-choose","trial_index":42,"time_elapsed":1013767,"internal_node_id":"0.0-42.0"},{"result":164,"points":3,"place":0,"phase":0,"sequence":23,"prices":[212,192,188,184,167,193,189,164,176,170],"times":[892,641,625,645,1583,527,538,961],"next_num":8,"trial_type":"ticket-choose","trial_index":43,"time_elapsed":1023541,"internal_node_id":"0.0-43.0"},{"result":156,"points":3,"place":0,"phase":0,"sequence":24,"prices":[156,201,162,166,185,214,165,202,204,179],"times":[1260],"next_num":1,"trial_type":"ticket-choose","trial_index":44,"time_elapsed":1026553,"internal_node_id":"0.0-44.0"},{"result":144,"points":3,"place":0,"phase":0,"sequence":25,"prices":[168,154,172,185,195,144,184,211,177,227],"times":[870,398,1199,532,579,1005],"next_num":6,"trial_type":"ticket-choose","trial_index":45,"time_elapsed":1034171,"internal_node_id":"0.0-45.0"},{"result":158,"points":2,"place":1,"phase":0,"sequence":26,"prices":[175,186,177,209,181,188,158,167,208,154],"times":[1107,707,541,736,621,672,1024],"next_num":7,"trial_type":"ticket-choose","trial_index":46,"time_elapsed":1042802,"internal_node_id":"0.0-46.0"},{"result":163,"points":2,"place":1,"phase":0,"sequence":27,"prices":[176,186,176,210,179,187,163,166,153,208],"times":[999,605,997,639,661,614,998],"next_num":7,"trial_type":"ticket-choose","trial_index":47,"time_elapsed":1051484,"internal_node_id":"0.0-47.0"},{"result":163,"points":2,"place":1,"phase":0,"sequence":28,"prices":[175,187,176,209,180,188,163,165,154,208],"times":[2281,537,644,555,583,671,1611],"next_num":7,"trial_type":"ticket-choose","trial_index":48,"time_elapsed":1061465,"internal_node_id":"0.0-48.0"},{"result":150,"points":3,"place":0,"phase":0,"sequence":29,"prices":[189,150,175,160,188,207,158,194,178,199],"times":[3811,1030],"next_num":2,"trial_type":"ticket-choose","trial_index":49,"time_elapsed":1068706,"internal_node_id":"0.0-49.0"},{"result":152,"points":3,"place":0,"phase":0,"sequence":30,"prices":[200,181,203,152,175,171,160,154,176,191],"times":[1054,643,1474,865],"next_num":4,"trial_type":"ticket-choose","trial_index":50,"time_elapsed":1075526,"internal_node_id":"0.0-50.0"},{"result":163,"points":1,"place":2,"phase":0,"sequence":31,"prices":[183,163,185,180,166,148,160,186,176,184],"times":[967,1351],"next_num":2,"trial_type":"ticket-choose","trial_index":51,"time_elapsed":1080002,"internal_node_id":"0.0-51.0"},{"result":143,"points":3,"place":0,"phase":0,"sequence":32,"prices":[222,173,202,197,143,205,198,183,178,186],"times":[814,1033,609,633,997],"next_num":5,"trial_type":"ticket-choose","trial_index":52,"time_elapsed":1086917,"internal_node_id":"0.0-52.0"},{"result":167,"points":2,"place":1,"phase":0,"sequence":33,"prices":[175,185,178,215,181,186,167,168,208,156],"times":[784,617,751,653,856,600,865],"next_num":7,"trial_type":"ticket-choose","trial_index":53,"time_elapsed":1095209,"internal_node_id":"0.0-53.0"},{"result":167,"points":2,"place":1,"phase":0,"sequence":34,"prices":[174,186,178,217,181,188,167,168,208,156],"times":[1171,511,617,649,582,619,987],"next_num":7,"trial_type":"ticket-choose","trial_index":54,"time_elapsed":1103574,"internal_node_id":"0.0-54.0"},{"result":186,"points":1,"place":4,"phase":0,"sequence":35,"prices":[168,192,171,178,188,217,172,195,197,186],"times":[1233,598,750,600,643,572,891,612,636,657],"next_num":10,"trial_type":"ticket-choose","trial_index":55,"time_elapsed":1114549,"internal_node_id":"0.0-55.0"},{"result":161,"points":3,"place":0,"phase":0,"sequence":36,"prices":[161,193,167,187,190,224,174,194,195,188],"times":[1910],"next_num":1,"trial_type":"ticket-choose","trial_index":56,"time_elapsed":1118230,"internal_node_id":"0.0-56.0"},{"result":163,"points":2,"place":1,"phase":0,"sequence":37,"prices":[175,186,176,224,179,187,163,165,153,210],"times":[1208,539,557,714,617,538,1047],"next_num":7,"trial_type":"ticket-choose","trial_index":57,"time_elapsed":1126769,"internal_node_id":"0.0-57.0"},{"result":169,"points":1,"place":2,"phase":0,"sequence":38,"prices":[175,187,167,212,179,187,178,169,208,153],"times":[783,573,2742,622,580,510,759,998],"next_num":8,"trial_type":"ticket-choose","trial_index":58,"time_elapsed":1137729,"internal_node_id":"0.0-58.0"},{"result":161,"points":3,"place":0,"phase":0,"sequence":39,"prices":[161,193,175,181,185,224,180,199,218,184],"times":[2923],"next_num":1,"trial_type":"ticket-choose","trial_index":59,"time_elapsed":1142718,"internal_node_id":"0.0-59.0"},{"result":159,"points":3,"place":0,"phase":0,"sequence":40,"prices":[159,183,166,168,173,205,167,187,191,170],"times":[890],"next_num":1,"trial_type":"ticket-choose","trial_index":60,"time_elapsed":1145440,"internal_node_id":"0.0-60.0"},{"result":159,"points":1,"place":2,"phase":0,"sequence":41,"prices":[180,159,149,175,185,141,163,174,178,207],"times":[908,841],"next_num":2,"trial_type":"ticket-choose","trial_index":61,"time_elapsed":1149155,"internal_node_id":"0.0-61.0"},{"result":167,"points":2,"place":1,"phase":0,"sequence":42,"prices":[175,187,178,209,179,187,167,169,208,153],"times":[965,605,907,632,978,522,900],"next_num":7,"trial_type":"ticket-choose","trial_index":62,"time_elapsed":1157717,"internal_node_id":"0.0-62.0"},{"result":167,"points":2,"place":1,"phase":0,"sequence":43,"prices":[175,185,167,224,181,186,178,168,208,156],"times":[705,503,1969],"next_num":3,"trial_type":"ticket-choose","trial_index":63,"time_elapsed":1163176,"internal_node_id":"0.0-63.0"},{"result":158,"points":2,"place":1,"phase":0,"sequence":44,"prices":[176,187,158,210,181,187,177,165,208,153],"times":[771,608,925],"next_num":3,"trial_type":"ticket-choose","trial_index":64,"time_elapsed":1167879,"internal_node_id":"0.0-64.0"},{"result":158,"points":2,"place":1,"phase":0,"sequence":45,"prices":[175,186,177,221,180,187,158,166,209,153],"times":[675,607,600,608,652,590,856],"next_num":7,"trial_type":"ticket-choose","trial_index":65,"time_elapsed":1175762,"internal_node_id":"0.0-65.0"},{"result":152,"points":3,"place":0,"phase":0,"sequence":46,"prices":[152,200,158,173,182,207,161,202,204,180],"times":[936],"next_num":1,"trial_type":"ticket-choose","trial_index":66,"time_elapsed":1178595,"internal_node_id":"0.0-66.0"},{"result":158,"points":2,"place":1,"phase":0,"sequence":47,"prices":[176,185,158,217,180,186,177,166,209,154],"times":[1109,547,915],"next_num":3,"trial_type":"ticket-choose","trial_index":67,"time_elapsed":1183611,"internal_node_id":"0.0-67.0"},{"result":147,"points":3,"place":0,"phase":0,"sequence":48,"prices":[181,215,169,147,182,193,177,184,176,179],"times":[2410,618,600,927],"next_num":4,"trial_type":"ticket-choose","trial_index":68,"time_elapsed":1190763,"internal_node_id":"0.0-68.0"},{"result":155,"points":2,"place":1,"phase":0,"sequence":49,"prices":[201,207,155,158,156,165,167,135,178,177],"times":[1425,665,1030],"next_num":3,"trial_type":"ticket-choose","trial_index":69,"time_elapsed":1196122,"internal_node_id":"0.0-69.0"},{"responses":[{"value":1,"offby":1,"category":"$106 - $134","category_index":0},{"value":1,"offby":0,"category":"$135 - $150","category_index":1},{"value":2,"offby":-1,"category":"$151 - $165","category_index":2},{"value":5,"offby":-1,"category":"$166 - $180","category_index":3},{"value":5,"offby":-1,"category":"$181 - $195","category_index":4},{"value":4,"offby":1,"category":"$196 - $210","category_index":5},{"value":2,"offby":1,"category":"$211 - $225","category_index":6}],"phase":0,"number":1,"trial_type":"bar-choose","trial_index":70,"time_elapsed":1237585,"internal_node_id":"0.0-70.0"},{"rt":13497,"url":"\/tickets\/utils\/start2.html","trial_type":"html","trial_index":71,"time_elapsed":1252218,"internal_node_id":"0.0-71.0"},{"trial_type":"number-animation","trial_index":72,"time_elapsed":1262067,"internal_node_id":"0.0-72.0"},{"phase":1,"sequence":0,"avg":182,"response":180,"trial_type":"training_avg","trial_index":73,"time_elapsed":1269795,"internal_node_id":"0.0-73.0"},{"trial_type":"number-animation","trial_index":74,"time_elapsed":1276688,"internal_node_id":"0.0-74.0"},{"phase":1,"sequence":1,"avg":188,"response":182,"trial_type":"training_avg","trial_index":75,"time_elapsed":1285440,"internal_node_id":"0.0-75.0"},{"trial_type":"number-animation","trial_index":76,"time_elapsed":1294042,"internal_node_id":"0.0-76.0"},{"phase":1,"sequence":2,"avg":176,"response":172,"trial_type":"training_avg","trial_index":77,"time_elapsed":1301789,"internal_node_id":"0.0-77.0"},{"trial_type":"number-animation","trial_index":78,"time_elapsed":1313198,"internal_node_id":"0.0-78.0"},{"phase":1,"sequence":3,"avg":180,"response":182,"trial_type":"training_avg","trial_index":79,"time_elapsed":1319890,"internal_node_id":"0.0-79.0"},{"trial_type":"number-animation","trial_index":80,"time_elapsed":1332400,"internal_node_id":"0.0-80.0"},{"phase":1,"sequence":4,"avg":174,"response":185,"trial_type":"training_avg","trial_index":81,"time_elapsed":1339213,"internal_node_id":"0.0-81.0"},{"responses":[{"value":1,"offby":0,"category":"$90 - $120","category_index":0},{"value":4,"offby":1,"category":"$121 - $145","category_index":1},{"value":4,"offby":1,"category":"$146 - $170","category_index":2},{"value":4,"offby":-2,"category":"$171 - $195","category_index":3},{"value":4,"offby":0,"category":"$196 - $220","category_index":4},{"value":2,"offby":0,"category":"$221 - $245","category_index":5},{"value":1,"offby":0,"category":"$246 - $270","category_index":6}],"phase":1,"number":0,"trial_type":"bar-choose","trial_index":82,"time_elapsed":1380467,"internal_node_id":"0.0-82.0"},{"rt":16096,"url":"\/tickets\/utils\/testing2.html","trial_type":"html","trial_index":83,"time_elapsed":1397709,"internal_node_id":"0.0-83.0"},{"phase":1,"order":[20,8,21,36,23,14,30,40,34,45,27,42,5,35,25,49,13,37,43,32,16,47,48,7,11,29,6,39,31,1,0,46,15,24,33,9,22,41,18,3,44,28,17,26,38,10,19,2,4,12],"trial_type":"store_order","trial_index":84,"time_elapsed":1398715,"internal_node_id":"0.0-84.0"},{"result":136,"points":2,"place":1,"phase":1,"sequence":0,"prices":[169,192,174,246,180,195,136,152,238,126],"times":[7335,580,551,612,635,526,897],"next_num":7,"trial_type":"ticket-choose","trial_index":85,"time_elapsed":1413122,"internal_node_id":"0.0-85.0"},{"result":133,"points":3,"place":0,"phase":1,"sequence":1,"prices":[168,192,154,237,182,196,176,156,235,133],"times":[1135,519,865,458,528,529,564,3773,507,744],"next_num":10,"trial_type":"ticket-choose","trial_index":86,"time_elapsed":1427490,"internal_node_id":"0.0-86.0"},{"result":136,"points":2,"place":1,"phase":1,"sequence":2,"prices":[170,192,174,242,181,196,136,153,236,128],"times":[1305,573,510,667,705,829,958],"next_num":7,"trial_type":"ticket-choose","trial_index":87,"time_elapsed":1436343,"internal_node_id":"0.0-87.0"},{"result":128,"points":3,"place":0,"phase":1,"sequence":3,"prices":[196,221,149,164,216,167,175,128,176,181],"times":[858,505,1625,721,509,547,581,972],"next_num":8,"trial_type":"ticket-choose","trial_index":88,"time_elapsed":1446297,"internal_node_id":"0.0-88.0"},{"result":136,"points":2,"place":1,"phase":1,"sequence":4,"prices":[173,191,174,270,180,193,136,153,239,129],"times":[1355,753,809,714,549,3019,1333],"next_num":7,"trial_type":"ticket-choose","trial_index":89,"time_elapsed":1458042,"internal_node_id":"0.0-89.0"},{"result":125,"points":3,"place":0,"phase":1,"sequence":5,"prices":[169,192,176,244,178,194,154,159,237,125],"times":[913,704,670,619,609,617,834,555,671,910],"next_num":10,"trial_type":"ticket-choose","trial_index":90,"time_elapsed":1469628,"internal_node_id":"0.0-90.0"},{"result":135,"points":3,"place":0,"phase":1,"sequence":6,"prices":[135,202,150,169,183,225,160,211,220,172],"times":[1434],"next_num":1,"trial_type":"ticket-choose","trial_index":91,"time_elapsed":1473046,"internal_node_id":"0.0-91.0"},{"result":119,"points":3,"place":0,"phase":1,"sequence":7,"prices":[198,119,169,141,195,233,136,208,177,217],"times":[1078,1765],"next_num":2,"trial_type":"ticket-choose","trial_index":92,"time_elapsed":1478168,"internal_node_id":"0.0-92.0"},{"result":130,"points":2,"place":1,"phase":1,"sequence":8,"prices":[181,130,116,142,157,193,165,218,173,207],"times":[1860,942],"next_num":2,"trial_type":"ticket-choose","trial_index":93,"time_elapsed":1483096,"internal_node_id":"0.0-93.0"},{"result":159,"points":1,"place":2,"phase":1,"sequence":9,"prices":[244,203,196,189,154,206,197,149,171,159],"times":[1507,750,644,848,1023,556,600,1367,504,848],"next_num":10,"trial_type":"ticket-choose","trial_index":94,"time_elapsed":1495532,"internal_node_id":"0.0-94.0"},{"result":192,"points":1,"place":4,"phase":1,"sequence":10,"prices":[157,205,161,175,197,254,165,210,214,192],"times":[1100,642,625,591,591,687,671,590,512,1131],"next_num":10,"trial_type":"ticket-choose","trial_index":95,"time_elapsed":1506494,"internal_node_id":"0.0-95.0"},{"result":105,"points":3,"place":0,"phase":1,"sequence":11,"prices":[263,165,224,214,105,230,215,185,177,193],"times":[910,570,661,564,1006],"next_num":5,"trial_type":"ticket-choose","trial_index":96,"time_elapsed":1512933,"internal_node_id":"0.0-96.0"},{"result":146,"points":2,"place":1,"phase":1,"sequence":12,"prices":[171,195,172,242,179,196,146,150,128,235],"times":[2126,874,571,520,542,519,1344],"next_num":7,"trial_type":"ticket-choose","trial_index":97,"time_elapsed":1523029,"internal_node_id":"0.0-97.0"},{"result":155,"points":1,"place":2,"phase":1,"sequence":13,"prices":[155,129,164,189,210,108,187,241,174,275],"times":[3056],"next_num":1,"trial_type":"ticket-choose","trial_index":98,"time_elapsed":1528068,"internal_node_id":"0.0-98.0"},{"result":132,"points":3,"place":0,"phase":1,"sequence":14,"prices":[132,222,144,153,190,248,151,224,228,179],"times":[1144],"next_num":1,"trial_type":"ticket-choose","trial_index":99,"time_elapsed":1531381,"internal_node_id":"0.0-99.0"},{"result":116,"points":3,"place":0,"phase":1,"sequence":15,"prices":[186,146,191,179,152,116,140,201,172,187],"times":[928,1650,466,476,599,1074],"next_num":6,"trial_type":"ticket-choose","trial_index":100,"time_elapsed":1539583,"internal_node_id":"0.0-100.0"},{"result":131,"points":3,"place":0,"phase":1,"sequence":16,"prices":[170,190,176,251,183,192,154,157,236,131],"times":[780,528,579,655,572,656,1560,591,633,622],"next_num":10,"trial_type":"ticket-choose","trial_index":101,"time_elapsed":1551111,"internal_node_id":"0.0-101.0"},{"result":145,"points":2,"place":1,"phase":1,"sequence":17,"prices":[216,206,158,145,224,185,124,149,175,162],"times":[1635,657,713,1130],"next_num":4,"trial_type":"ticket-choose","trial_index":102,"time_elapsed":1557841,"internal_node_id":"0.0-102.0"},{"result":135,"points":3,"place":0,"phase":1,"sequence":18,"prices":[221,193,135,188,217,179,196,190,175,159],"times":[827,693,1227],"next_num":3,"trial_type":"ticket-choose","trial_index":103,"time_elapsed":1562794,"internal_node_id":"0.0-103.0"},{"result":196,"points":1,"place":4,"phase":1,"sequence":19,"prices":[143,206,153,194,201,267,168,208,210,196],"times":[2200,465,679,581,565,535,635,554,520,573],"next_num":10,"trial_type":"ticket-choose","trial_index":104,"time_elapsed":1573773,"internal_node_id":"0.0-104.0"},{"result":136,"points":2,"place":1,"phase":1,"sequence":20,"prices":[171,192,136,265,180,194,174,152,239,127],"times":[1146,539,924],"next_num":3,"trial_type":"ticket-choose","trial_index":105,"time_elapsed":1578613,"internal_node_id":"0.0-105.0"},{"result":124,"points":3,"place":0,"phase":1,"sequence":21,"prices":[219,183,227,124,176,161,140,129,171,201],"times":[1157,767,520,1564],"next_num":4,"trial_type":"ticket-choose","trial_index":106,"time_elapsed":1585304,"internal_node_id":"0.0-106.0"},{"result":114,"points":3,"place":0,"phase":1,"sequence":22,"prices":[182,249,159,114,184,205,175,189,172,178],"times":[771,434,510,1394],"next_num":4,"trial_type":"ticket-choose","trial_index":107,"time_elapsed":1590959,"internal_node_id":"0.0-107.0"},{"result":146,"points":2,"place":1,"phase":1,"sequence":23,"prices":[171,191,172,268,179,194,146,150,127,239],"times":[567,452,494,561,583,530,1432],"next_num":7,"trial_type":"ticket-choose","trial_index":108,"time_elapsed":1598782,"internal_node_id":"0.0-108.0"},{"result":127,"points":3,"place":0,"phase":1,"sequence":24,"prices":[169,194,154,271,178,201,176,158,236,127],"times":[705,529,996,393,480,480,582,1844,548,709],"next_num":10,"trial_type":"ticket-choose","trial_index":109,"time_elapsed":1610000,"internal_node_id":"0.0-109.0"},{"result":121,"points":3,"place":0,"phase":1,"sequence":25,"prices":[121,191,128,141,166,217,129,196,202,157],"times":[1818],"next_num":1,"trial_type":"ticket-choose","trial_index":110,"time_elapsed":1615369,"internal_node_id":"0.0-110.0"},{"result":146,"points":2,"place":1,"phase":1,"sequence":26,"prices":[168,191,172,240,183,193,146,151,125,238],"times":[3018,668,1656,727,529,523,1255],"next_num":7,"trial_type":"ticket-choose","trial_index":111,"time_elapsed":1627213,"internal_node_id":"0.0-111.0"},{"result":150,"points":3,"place":0,"phase":1,"sequence":27,"prices":[197,153,181,215,150,155,164,247,177,162],"times":[1299,1765,366,487,1193],"next_num":5,"trial_type":"ticket-choose","trial_index":112,"time_elapsed":1635118,"internal_node_id":"0.0-112.0"},{"result":117,"points":3,"place":0,"phase":1,"sequence":28,"prices":[117,161,120,147,153,259,144,191,195,149],"times":[1256],"next_num":1,"trial_type":"ticket-choose","trial_index":113,"time_elapsed":1638156,"internal_node_id":"0.0-113.0"},{"result":146,"points":2,"place":1,"phase":1,"sequence":29,"prices":[169,193,146,237,180,196,172,150,129,236],"times":[597,411,1156],"next_num":3,"trial_type":"ticket-choose","trial_index":114,"time_elapsed":1642405,"internal_node_id":"0.0-114.0"},{"result":146,"points":2,"place":1,"phase":1,"sequence":30,"prices":[173,191,146,242,178,194,172,152,126,235],"times":[7595,461,1718],"next_num":3,"trial_type":"ticket-choose","trial_index":115,"time_elapsed":1654321,"internal_node_id":"0.0-115.0"},{"result":136,"points":3,"place":0,"phase":1,"sequence":31,"prices":[240,188,273,207,250,136,217,170,171,236],"times":[485,443,489,506,477,1265],"next_num":6,"trial_type":"ticket-choose","trial_index":116,"time_elapsed":1661148,"internal_node_id":"0.0-116.0"},{"result":154,"points":2,"place":1,"phase":1,"sequence":32,"prices":[170,193,176,245,178,194,154,159,236,126],"times":[2420,393,466,463,447,713,1062],"next_num":7,"trial_type":"ticket-choose","trial_index":117,"time_elapsed":1670321,"internal_node_id":"0.0-117.0"},{"result":142,"points":3,"place":0,"phase":1,"sequence":33,"prices":[142,207,171,182,190,269,180,218,256,188],"times":[1304],"next_num":1,"trial_type":"ticket-choose","trial_index":118,"time_elapsed":1673711,"internal_node_id":"0.0-118.0"},{"result":137,"points":3,"place":0,"phase":1,"sequence":34,"prices":[137,187,152,156,166,231,155,194,202,160],"times":[1052],"next_num":1,"trial_type":"ticket-choose","trial_index":119,"time_elapsed":1676607,"internal_node_id":"0.0-119.0"},{"result":155,"points":1,"place":2,"phase":1,"sequence":35,"prices":[169,191,154,268,183,197,176,155,236,133],"times":[432,442,2234,510,529,570,643,967],"next_num":8,"trial_type":"ticket-choose","trial_index":120,"time_elapsed":1686531,"internal_node_id":"0.0-120.0"},{"result":136,"points":2,"place":1,"phase":1,"sequence":36,"prices":[172,194,174,243,182,193,136,150,237,126],"times":[469,465,663,513,488,486,1018],"next_num":7,"trial_type":"ticket-choose","trial_index":121,"time_elapsed":1693728,"internal_node_id":"0.0-121.0"},{"result":131,"points":2,"place":1,"phase":1,"sequence":37,"prices":[221,234,131,136,132,149,154,90,176,173],"times":[587,420,1028],"next_num":3,"trial_type":"ticket-choose","trial_index":122,"time_elapsed":1698049,"internal_node_id":"0.0-122.0"},{"result":136,"points":2,"place":1,"phase":1,"sequence":38,"prices":[173,194,136,239,182,200,174,150,236,127],"times":[657,1262,1174],"next_num":3,"trial_type":"ticket-choose","trial_index":123,"time_elapsed":1703483,"internal_node_id":"0.0-123.0"},{"result":146,"points":2,"place":1,"phase":1,"sequence":39,"prices":[170,193,146,268,178,195,172,149,126,241],"times":[1662,2556,2292],"next_num":3,"trial_type":"ticket-choose","trial_index":124,"time_elapsed":1712738,"internal_node_id":"0.0-124.0"},{"result":138,"points":1,"place":2,"phase":1,"sequence":40,"prices":[181,138,118,170,190,101,146,169,175,233],"times":[19040,1092],"next_num":2,"trial_type":"ticket-choose","trial_index":125,"time_elapsed":1735166,"internal_node_id":"0.0-125.0"},{"result":189,"points":1,"place":4,"phase":1,"sequence":41,"prices":[157,213,159,187,194,242,161,222,225,189],"times":[1688,460,727,453,537,483,636,589,504,738],"next_num":10,"trial_type":"ticket-choose","trial_index":126,"time_elapsed":1745704,"internal_node_id":"0.0-126.0"},{"result":136,"points":2,"place":1,"phase":1,"sequence":42,"prices":[171,192,136,243,182,195,174,154,236,128],"times":[727,430,1306],"next_num":3,"trial_type":"ticket-choose","trial_index":127,"time_elapsed":1750300,"internal_node_id":"0.0-127.0"},{"result":124,"points":3,"place":0,"phase":1,"sequence":43,"prices":[124,220,136,165,185,234,143,225,228,179],"times":[1094],"next_num":1,"trial_type":"ticket-choose","trial_index":128,"time_elapsed":1753298,"internal_node_id":"0.0-128.0"},{"result":146,"points":3,"place":0,"phase":1,"sequence":44,"prices":[156,218,212,216,191,210,275,146,174,152],"times":[740,653,525,466,512,507,489,1061],"next_num":8,"trial_type":"ticket-choose","trial_index":129,"time_elapsed":1761756,"internal_node_id":"0.0-129.0"},{"result":158,"points":1,"place":2,"phase":1,"sequence":45,"prices":[169,193,154,255,178,194,176,158,239,126],"times":[726,469,450,446,477,575,532,1206],"next_num":8,"trial_type":"ticket-choose","trial_index":130,"time_elapsed":1770055,"internal_node_id":"0.0-130.0"},{"result":136,"points":2,"place":1,"phase":1,"sequence":46,"prices":[172,190,136,270,179,192,174,152,237,129],"times":[910,537,1205],"next_num":3,"trial_type":"ticket-choose","trial_index":131,"time_elapsed":1774855,"internal_node_id":"0.0-131.0"},{"result":146,"points":2,"place":1,"phase":1,"sequence":47,"prices":[168,191,146,252,183,193,172,153,126,238],"times":[653,3101,1861],"next_num":3,"trial_type":"ticket-choose","trial_index":132,"time_elapsed":1783195,"internal_node_id":"0.0-132.0"},{"result":146,"points":2,"place":1,"phase":1,"sequence":48,"prices":[172,191,176,272,179,194,146,152,126,235],"times":[675,825,458,537,1262,533,1193],"next_num":7,"trial_type":"ticket-choose","trial_index":133,"time_elapsed":1791875,"internal_node_id":"0.0-133.0"},{"result":154,"points":2,"place":1,"phase":1,"sequence":49,"prices":[168,192,176,242,183,197,154,156,237,132],"times":[553,429,478,531,552,529,1385],"next_num":7,"trial_type":"ticket-choose","trial_index":134,"time_elapsed":1799531,"internal_node_id":"0.0-134.0"},{"responses":[{"value":0,"offby":-1,"category":"$90 - $120","category_index":0},{"value":1,"offby":-2,"category":"$121 - $145","category_index":1},{"value":4,"offby":1,"category":"$146 - $170","category_index":2},{"value":5,"offby":-1,"category":"$171 - $195","category_index":3},{"value":5,"offby":1,"category":"$196 - $220","category_index":4},{"value":4,"offby":2,"category":"$221 - $245","category_index":5},{"value":1,"offby":0,"category":"$246 - $270","category_index":6}],"phase":1,"number":1,"trial_type":"bar-choose","trial_index":135,"time_elapsed":1843792,"internal_node_id":"0.0-135.0"},{"special_comment":"No","trial_type":"special_sequence","trial_index":136,"time_elapsed":1847383,"internal_node_id":"0.0-136.0"},{"during":"Nothing","bonus":296,"trial_type":"final","trial_index":137,"time_elapsed":1867099,"internal_node_id":"0.0-137.0"}],"bonus":296}