{"start_time":"2017-02-27 11:45:50","end_time":"2017-02-27 12:24:24","points_phase0":107,"points_phase1":120,"phase_order":0,"age":58,"gender":"f","tries":1,"during":"Nothing","worker_id":"APNTEGPF7QZQI","assignment_id":"358UUM7WR0WVQNURHCHFX0R2YM17RG","data":[{"rt":43056,"url":"\/tickets\/utils\/consent.html","trial_type":"html","trial_index":0,"time_elapsed":43221,"internal_node_id":"0.0-0.0"},{"age":58,"gender":"f","trial_type":"age","trial_index":1,"time_elapsed":50702,"internal_node_id":"0.0-1.0"},{"worker_id":"APNTEGPF7QZQI","trial_type":"workerid","trial_index":2,"time_elapsed":61542,"internal_node_id":"0.0-2.0"},{"tries":1,"trial_type":"instructions_check","trial_index":3,"time_elapsed":93507,"internal_node_id":"0.0-3.0"},{"rt":38742,"url":"\/tickets\/utils\/start.html","trial_type":"html","trial_index":4,"time_elapsed":133358,"internal_node_id":"0.0-4.0"},{"trial_type":"number-animation","trial_index":5,"time_elapsed":173222,"internal_node_id":"0.0-5.0"},{"phase":0,"sequence":0,"avg":180,"response":181,"trial_type":"training_avg","trial_index":6,"time_elapsed":203850,"internal_node_id":"0.0-6.0"},{"trial_type":"number-animation","trial_index":7,"time_elapsed":234131,"internal_node_id":"0.0-7.0"},{"phase":0,"sequence":1,"avg":178,"response":178,"trial_type":"training_avg","trial_index":8,"time_elapsed":254609,"internal_node_id":"0.0-8.0"},{"trial_type":"number-animation","trial_index":9,"time_elapsed":295542,"internal_node_id":"0.0-9.0"},{"phase":0,"sequence":2,"avg":176,"response":176,"trial_type":"training_avg","trial_index":10,"time_elapsed":326571,"internal_node_id":"0.0-10.0"},{"trial_type":"number-animation","trial_index":11,"time_elapsed":355932,"internal_node_id":"0.0-11.0"},{"phase":0,"sequence":3,"avg":178,"response":176,"trial_type":"training_avg","trial_index":12,"time_elapsed":398980,"internal_node_id":"0.0-12.0"},{"trial_type":"number-animation","trial_index":13,"time_elapsed":427206,"internal_node_id":"0.0-13.0"},{"phase":0,"sequence":4,"avg":179,"response":180,"trial_type":"training_avg","trial_index":14,"time_elapsed":463389,"internal_node_id":"0.0-14.0"},{"responses":[{"value":0,"offby":0,"category":"$140 - $250","category_index":0},{"value":0,"offby":0,"category":"$151 - $160","category_index":1},{"value":3,"offby":-1,"category":"$161 - $170","category_index":2},{"value":13,"offby":7,"category":"$171 - $180","category_index":3},{"value":4,"offby":-3,"category":"$181 - $190","category_index":4},{"value":0,"offby":-3,"category":"$191 - $200","category_index":5},{"value":0,"offby":0,"category":"$201 - $210","category_index":6}],"phase":0,"number":0,"trial_type":"bar-choose","trial_index":15,"time_elapsed":661151,"internal_node_id":"0.0-15.0"},{"rt":29434,"url":"\/tickets\/\/utils\/testing.html","trial_type":"html","trial_index":16,"time_elapsed":692097,"internal_node_id":"0.0-16.0"},{"phase":0,"order":[35,24,30,22,12,46,36,7,11,48,29,43,44,37,23,27,18,33,39,0,5,17,13,9,21,32,40,34,28,6,26,19,38,41,31,47,14,4,42,1,20,10,49,25,8,2,45,3,16,15],"trial_type":"store_order","trial_index":17,"time_elapsed":693099,"internal_node_id":"0.0-17.0"},{"result":165,"points":2,"place":1,"phase":0,"sequence":-1,"prices":[184,180,224,165,181,199,185,193,218,126],"times":[3973,7798,5765,7397],"next_num":4,"trial_type":"ticket-choose","trial_index":18,"time_elapsed":722285,"internal_node_id":"0.0-18.0"},{"rt":28787,"url":"\/tickets\/utils\/testing_after.html","trial_type":"html","trial_index":19,"time_elapsed":752180,"internal_node_id":"0.0-19.0"},{"result":154,"points":3,"place":0,"phase":0,"sequence":0,"prices":[188,179,154,183,173,170,177,160,169,175],"times":[6911,3012,3037],"next_num":3,"trial_type":"ticket-choose","trial_index":20,"time_elapsed":769876,"internal_node_id":"0.0-20.0"},{"result":176,"points":1,"place":4,"phase":0,"sequence":1,"prices":[161,180,170,174,178,198,173,182,188,176],"times":[9278,1581,1893,1181,998,1038,1134,1084,1287,1699],"next_num":10,"trial_type":"ticket-choose","trial_index":21,"time_elapsed":796640,"internal_node_id":"0.0-21.0"},{"result":160,"points":3,"place":0,"phase":0,"sequence":2,"prices":[160,185,170,174,182,196,173,186,194,177],"times":[3437],"next_num":1,"trial_type":"ticket-choose","trial_index":22,"time_elapsed":803321,"internal_node_id":"0.0-22.0"},{"result":168,"points":2,"place":1,"phase":0,"sequence":3,"prices":[173,178,176,193,177,182,168,172,164,183],"times":[1769,1495,1958,1263,1140,1647,1211],"next_num":7,"trial_type":"ticket-choose","trial_index":23,"time_elapsed":817833,"internal_node_id":"0.0-23.0"},{"result":170,"points":2,"place":1,"phase":0,"sequence":4,"prices":[176,180,178,194,179,183,170,173,165,184],"times":[2305,2100,1972,1126,2157,1125,4239],"next_num":7,"trial_type":"ticket-choose","trial_index":24,"time_elapsed":837092,"internal_node_id":"0.0-24.0"},{"result":166,"points":3,"place":0,"phase":0,"sequence":5,"prices":[179,186,197,201,166,187,188,193,190,177],"times":[1216,1363,1223,1126,1250],"next_num":5,"trial_type":"ticket-choose","trial_index":25,"time_elapsed":847181,"internal_node_id":"0.0-25.0"},{"result":169,"points":1,"place":2,"phase":0,"sequence":6,"prices":[189,185,169,168,167,171,180,173,174,188],"times":[1721,1149,1688],"next_num":3,"trial_type":"ticket-choose","trial_index":26,"time_elapsed":855511,"internal_node_id":"0.0-26.0"},{"result":169,"points":2,"place":1,"phase":0,"sequence":7,"prices":[174,179,177,194,178,183,169,173,165,184],"times":[1239,1286,996,929,1134,990,1335],"next_num":7,"trial_type":"ticket-choose","trial_index":27,"time_elapsed":867376,"internal_node_id":"0.0-27.0"},{"result":166,"points":3,"place":0,"phase":0,"sequence":8,"prices":[175,180,170,195,179,184,178,174,166,185],"times":[2361,999,2078,901,957,1072,1751,1357,1293],"next_num":9,"trial_type":"ticket-choose","trial_index":28,"time_elapsed":884578,"internal_node_id":"0.0-28.0"},{"result":187,"points":0,"place":7,"phase":0,"sequence":9,"prices":[193,173,175,182,179,198,181,171,176,187],"times":[1144,1479,1230,1189,1310,1317,1178,2008,1600,2101],"next_num":10,"trial_type":"ticket-choose","trial_index":29,"time_elapsed":903982,"internal_node_id":"0.0-29.0"},{"result":166,"points":3,"place":0,"phase":0,"sequence":10,"prices":[166,190,170,173,178,203,172,192,198,174],"times":[1999],"next_num":1,"trial_type":"ticket-choose","trial_index":30,"time_elapsed":908847,"internal_node_id":"0.0-30.0"},{"result":157,"points":2,"place":1,"phase":0,"sequence":11,"prices":[188,191,179,157,181,164,166,156,175,182],"times":[3935,821,846,1304],"next_num":4,"trial_type":"ticket-choose","trial_index":31,"time_elapsed":918719,"internal_node_id":"0.0-31.0"},{"result":150,"points":3,"place":0,"phase":0,"sequence":12,"prices":[175,150,164,155,171,199,158,180,184,196],"times":[1000,1343],"next_num":2,"trial_type":"ticket-choose","trial_index":32,"time_elapsed":923751,"internal_node_id":"0.0-32.0"},{"result":168,"points":2,"place":1,"phase":0,"sequence":13,"prices":[181,175,182,168,183,173,153,170,193,179],"times":[1007,829,774,2935],"next_num":4,"trial_type":"ticket-choose","trial_index":33,"time_elapsed":932224,"internal_node_id":"0.0-33.0"},{"result":168,"points":2,"place":1,"phase":0,"sequence":14,"prices":[173,178,176,193,177,182,168,172,164,183],"times":[975,1151,1189,944,1318,814,1110],"next_num":7,"trial_type":"ticket-choose","trial_index":34,"time_elapsed":943298,"internal_node_id":"0.0-34.0"},{"result":168,"points":3,"place":0,"phase":0,"sequence":15,"prices":[168,188,171,181,184,196,180,194,195,183],"times":[3706],"next_num":1,"trial_type":"ticket-choose","trial_index":35,"time_elapsed":949507,"internal_node_id":"0.0-35.0"},{"result":168,"points":2,"place":1,"phase":0,"sequence":16,"prices":[173,178,168,193,177,182,176,172,164,183],"times":[1035,1580,1999],"next_num":3,"trial_type":"ticket-choose","trial_index":36,"time_elapsed":957341,"internal_node_id":"0.0-36.0"},{"result":179,"points":1,"place":4,"phase":0,"sequence":17,"prices":[170,183,172,175,180,189,174,187,188,179],"times":[1531,827,813,781,806,812,969,760,746,1630],"next_num":10,"trial_type":"ticket-choose","trial_index":37,"time_elapsed":971566,"internal_node_id":"0.0-37.0"},{"result":171,"points":1,"place":2,"phase":0,"sequence":18,"prices":[195,177,197,179,171,173,175,156,163,204],"times":[1028,1063,955,1494,1526],"next_num":5,"trial_type":"ticket-choose","trial_index":38,"time_elapsed":980791,"internal_node_id":"0.0-38.0"},{"result":169,"points":2,"place":1,"phase":0,"sequence":19,"prices":[175,179,169,193,178,182,177,172,164,183],"times":[1023,1214,1295],"next_num":3,"trial_type":"ticket-choose","trial_index":39,"time_elapsed":987032,"internal_node_id":"0.0-39.0"},{"result":169,"points":2,"place":1,"phase":0,"sequence":20,"prices":[175,179,177,193,178,182,169,172,164,183],"times":[960,1087,795,1073,902,974,1120],"next_num":7,"trial_type":"ticket-choose","trial_index":40,"time_elapsed":997593,"internal_node_id":"0.0-40.0"},{"result":168,"points":2,"place":1,"phase":0,"sequence":21,"prices":[174,178,168,192,177,181,176,171,163,182],"times":[1704,739,1447],"next_num":3,"trial_type":"ticket-choose","trial_index":41,"time_elapsed":1004098,"internal_node_id":"0.0-41.0"},{"result":170,"points":2,"place":1,"phase":0,"sequence":22,"prices":[176,180,178,194,179,183,170,173,165,184],"times":[1096,990,870,950,1590,989,4550],"next_num":7,"trial_type":"ticket-choose","trial_index":42,"time_elapsed":1018629,"internal_node_id":"0.0-42.0"},{"result":173,"points":1,"place":2,"phase":0,"sequence":23,"prices":[176,180,170,194,179,183,178,173,165,184],"times":[2882,1115,1026,722,702,782,1022,3326],"next_num":8,"trial_type":"ticket-choose","trial_index":43,"time_elapsed":1034063,"internal_node_id":"0.0-43.0"},{"result":168,"points":2,"place":1,"phase":0,"sequence":24,"prices":[174,178,176,192,177,181,168,171,163,182],"times":[1069,1095,1574,773,925,766,1200],"next_num":7,"trial_type":"ticket-choose","trial_index":44,"time_elapsed":1045016,"internal_node_id":"0.0-44.0"},{"result":175,"points":1,"place":4,"phase":0,"sequence":25,"prices":[171,180,172,174,179,188,173,183,186,175],"times":[1086,980,1414,687,758,997,3783,790,824,1119],"next_num":10,"trial_type":"ticket-choose","trial_index":45,"time_elapsed":1061690,"internal_node_id":"0.0-45.0"},{"result":167,"points":3,"place":0,"phase":0,"sequence":26,"prices":[179,174,199,178,196,167,170,184,177,190],"times":[1104,918,1070,820,791,1160],"next_num":6,"trial_type":"ticket-choose","trial_index":46,"time_elapsed":1070859,"internal_node_id":"0.0-46.0"},{"result":165,"points":2,"place":1,"phase":0,"sequence":27,"prices":[181,180,191,186,165,197,159,167,194,185],"times":[1286,757,671,1039,1206],"next_num":5,"trial_type":"ticket-choose","trial_index":47,"time_elapsed":1078980,"internal_node_id":"0.0-47.0"},{"result":159,"points":3,"place":0,"phase":0,"sequence":28,"prices":[159,178,170,174,176,194,173,182,185,175],"times":[1703],"next_num":1,"trial_type":"ticket-choose","trial_index":48,"time_elapsed":1082933,"internal_node_id":"0.0-48.0"},{"result":169,"points":2,"place":1,"phase":0,"sequence":29,"prices":[174,179,177,194,178,183,169,173,165,184],"times":[1023,719,695,789,919,670,1097],"next_num":7,"trial_type":"ticket-choose","trial_index":49,"time_elapsed":1092486,"internal_node_id":"0.0-49.0"},{"result":165,"points":3,"place":0,"phase":0,"sequence":30,"prices":[165,187,173,177,186,196,176,191,192,181],"times":[1608],"next_num":1,"trial_type":"ticket-choose","trial_index":50,"time_elapsed":1096503,"internal_node_id":"0.0-50.0"},{"result":168,"points":2,"place":1,"phase":0,"sequence":31,"prices":[173,178,168,193,177,182,176,172,164,183],"times":[1071,1029,1310],"next_num":3,"trial_type":"ticket-choose","trial_index":51,"time_elapsed":1102600,"internal_node_id":"0.0-51.0"},{"result":170,"points":3,"place":0,"phase":0,"sequence":32,"prices":[181,179,199,188,170,172,178,187,191,177],"times":[966,837,725,880,1531],"next_num":5,"trial_type":"ticket-choose","trial_index":52,"time_elapsed":1110713,"internal_node_id":"0.0-52.0"},{"result":165,"points":3,"place":0,"phase":0,"sequence":33,"prices":[180,165,177,193,186,196,187,169,171,182],"times":[1197,1223],"next_num":2,"trial_type":"ticket-choose","trial_index":53,"time_elapsed":1115770,"internal_node_id":"0.0-53.0"},{"result":157,"points":3,"place":0,"phase":0,"sequence":34,"prices":[157,184,163,174,181,190,168,187,189,177],"times":[1495],"next_num":1,"trial_type":"ticket-choose","trial_index":54,"time_elapsed":1119427,"internal_node_id":"0.0-54.0"},{"result":174,"points":2,"place":1,"phase":0,"sequence":35,"prices":[180,175,173,177,191,190,184,196,174,181],"times":[1293,854,702,797,848,677,839,1015,1600],"next_num":9,"trial_type":"ticket-choose","trial_index":55,"time_elapsed":1131965,"internal_node_id":"0.0-55.0"},{"result":170,"points":2,"place":1,"phase":0,"sequence":36,"prices":[175,180,178,195,179,184,170,174,166,185],"times":[1558,781,902,797,1185,894,1349],"next_num":7,"trial_type":"ticket-choose","trial_index":56,"time_elapsed":1142828,"internal_node_id":"0.0-56.0"},{"result":169,"points":2,"place":1,"phase":0,"sequence":37,"prices":[175,179,177,193,178,182,169,172,164,183],"times":[1233,958,862,765,1256,653,1121],"next_num":7,"trial_type":"ticket-choose","trial_index":57,"time_elapsed":1153182,"internal_node_id":"0.0-57.0"},{"result":160,"points":3,"place":0,"phase":0,"sequence":38,"prices":[175,193,175,160,180,170,175,205,177,167],"times":[1169,853,879,1007],"next_num":4,"trial_type":"ticket-choose","trial_index":58,"time_elapsed":1159911,"internal_node_id":"0.0-58.0"},{"result":169,"points":2,"place":1,"phase":0,"sequence":39,"prices":[175,179,169,193,178,182,177,172,164,183],"times":[1901,686,1337],"next_num":3,"trial_type":"ticket-choose","trial_index":59,"time_elapsed":1166312,"internal_node_id":"0.0-59.0"},{"result":168,"points":2,"place":1,"phase":0,"sequence":40,"prices":[174,178,176,192,177,181,168,171,163,182],"times":[1109,1173,949,701,1055,649,1104],"next_num":7,"trial_type":"ticket-choose","trial_index":60,"time_elapsed":1176545,"internal_node_id":"0.0-60.0"},{"result":174,"points":1,"place":2,"phase":0,"sequence":41,"prices":[175,180,170,195,179,184,178,174,166,185],"times":[1202,699,788,775,629,811,1309,2386],"next_num":8,"trial_type":"ticket-choose","trial_index":61,"time_elapsed":1188940,"internal_node_id":"0.0-61.0"},{"result":170,"points":2,"place":1,"phase":0,"sequence":42,"prices":[175,189,193,170,179,165,180,186,177,184],"times":[1035,1036,772,1457],"next_num":4,"trial_type":"ticket-choose","trial_index":62,"time_elapsed":1196036,"internal_node_id":"0.0-62.0"},{"result":163,"points":3,"place":0,"phase":0,"sequence":43,"prices":[163,185,165,174,181,198,173,186,187,180],"times":[1413],"next_num":1,"trial_type":"ticket-choose","trial_index":63,"time_elapsed":1199700,"internal_node_id":"0.0-63.0"},{"result":170,"points":2,"place":1,"phase":0,"sequence":44,"prices":[176,180,170,194,179,183,178,173,165,184],"times":[863,894,2302],"next_num":3,"trial_type":"ticket-choose","trial_index":64,"time_elapsed":1206526,"internal_node_id":"0.0-64.0"},{"result":169,"points":2,"place":1,"phase":0,"sequence":45,"prices":[174,179,169,194,178,183,177,173,165,184],"times":[1917,798,1246],"next_num":3,"trial_type":"ticket-choose","trial_index":65,"time_elapsed":1213022,"internal_node_id":"0.0-65.0"},{"result":162,"points":3,"place":0,"phase":0,"sequence":46,"prices":[179,174,172,162,202,184,165,197,185,169],"times":[925,803,750,1112],"next_num":4,"trial_type":"ticket-choose","trial_index":66,"time_elapsed":1219471,"internal_node_id":"0.0-66.0"},{"result":169,"points":2,"place":1,"phase":0,"sequence":47,"prices":[174,179,169,194,178,183,177,173,165,184],"times":[949,812,1161],"next_num":3,"trial_type":"ticket-choose","trial_index":67,"time_elapsed":1225263,"internal_node_id":"0.0-67.0"},{"result":168,"points":2,"place":1,"phase":0,"sequence":48,"prices":[174,178,168,192,177,181,176,171,163,182],"times":[896,894,1182],"next_num":3,"trial_type":"ticket-choose","trial_index":68,"time_elapsed":1230952,"internal_node_id":"0.0-68.0"},{"result":170,"points":2,"place":1,"phase":0,"sequence":49,"prices":[175,180,178,195,179,184,170,174,166,185],"times":[1023,734,750,646,829,685,1063],"next_num":7,"trial_type":"ticket-choose","trial_index":69,"time_elapsed":1240266,"internal_node_id":"0.0-69.0"},{"responses":[{"value":0,"offby":0,"category":"$140 - $250","category_index":0},{"value":1,"offby":1,"category":"$151 - $160","category_index":1},{"value":5,"offby":1,"category":"$161 - $170","category_index":2},{"value":6,"offby":0,"category":"$171 - $180","category_index":3},{"value":6,"offby":-1,"category":"$181 - $190","category_index":4},{"value":2,"offby":-1,"category":"$191 - $200","category_index":5},{"value":0,"offby":0,"category":"$201 - $210","category_index":6}],"phase":0,"number":1,"trial_type":"bar-choose","trial_index":70,"time_elapsed":1301235,"internal_node_id":"0.0-70.0"},{"rt":12535,"url":"\/tickets\/utils\/start2.html","trial_type":"html","trial_index":71,"time_elapsed":1314875,"internal_node_id":"0.0-71.0"},{"trial_type":"number-animation","trial_index":72,"time_elapsed":1349095,"internal_node_id":"0.0-72.0"},{"phase":1,"sequence":0,"avg":166,"response":166,"trial_type":"training_avg","trial_index":73,"time_elapsed":1412243,"internal_node_id":"0.0-73.0"},{"trial_type":"number-animation","trial_index":74,"time_elapsed":1440507,"internal_node_id":"0.0-74.0"},{"phase":1,"sequence":1,"avg":198,"response":198,"trial_type":"training_avg","trial_index":75,"time_elapsed":1484525,"internal_node_id":"0.0-75.0"},{"trial_type":"number-animation","trial_index":76,"time_elapsed":1511653,"internal_node_id":"0.0-76.0"},{"phase":1,"sequence":2,"avg":177,"response":177,"trial_type":"training_avg","trial_index":77,"time_elapsed":1555414,"internal_node_id":"0.0-77.0"},{"trial_type":"number-animation","trial_index":78,"time_elapsed":1582723,"internal_node_id":"0.0-78.0"},{"phase":1,"sequence":3,"avg":190,"response":189,"trial_type":"training_avg","trial_index":79,"time_elapsed":1622911,"internal_node_id":"0.0-79.0"},{"trial_type":"number-animation","trial_index":80,"time_elapsed":1649821,"internal_node_id":"0.0-80.0"},{"phase":1,"sequence":4,"avg":201,"response":200,"trial_type":"training_avg","trial_index":81,"time_elapsed":1688593,"internal_node_id":"0.0-81.0"},{"responses":[{"value":0,"offby":-1,"category":"$30 - $75","category_index":0},{"value":2,"offby":0,"category":"$76 - $120","category_index":1},{"value":5,"offby":1,"category":"$121 - $165","category_index":2},{"value":5,"offby":-1,"category":"$166 - $210","category_index":3},{"value":6,"offby":0,"category":"$211 - $255","category_index":4},{"value":2,"offby":1,"category":"$256 - $300","category_index":5},{"value":0,"offby":0,"category":"$301 - $345","category_index":6}],"phase":1,"number":0,"trial_type":"bar-choose","trial_index":82,"time_elapsed":1774065,"internal_node_id":"0.0-82.0"},{"rt":11686,"url":"\/tickets\/utils\/testing2.html","trial_type":"html","trial_index":83,"time_elapsed":1787281,"internal_node_id":"0.0-83.0"},{"phase":1,"order":[48,35,0,10,29,42,1,17,44,18,38,13,43,15,19,20,47,5,46,9,45,7,28,21,33,23,31,25,27,11,24,32,12,4,3,26,2,41,6,40,49,37,8,16,22,14,36,34,30,39],"trial_type":"store_order","trial_index":84,"time_elapsed":1788286,"internal_node_id":"0.0-84.0"},{"result":145,"points":2,"place":1,"phase":1,"sequence":0,"prices":[246,145,155,191,176,270,185,136,160,215],"times":[3014,1440],"next_num":2,"trial_type":"ticket-choose","trial_index":85,"time_elapsed":1795299,"internal_node_id":"0.0-85.0"},{"result":51,"points":3,"place":0,"phase":1,"sequence":1,"prices":[221,175,51,196,146,130,166,80,126,156],"times":[1165,2278,1204],"next_num":3,"trial_type":"ticket-choose","trial_index":86,"time_elapsed":1802526,"internal_node_id":"0.0-86.0"},{"result":126,"points":2,"place":1,"phase":1,"sequence":2,"prices":[156,175,126,246,170,190,165,140,100,196],"times":[1484,1214,1509],"next_num":3,"trial_type":"ticket-choose","trial_index":87,"time_elapsed":1809454,"internal_node_id":"0.0-87.0"},{"result":131,"points":2,"place":1,"phase":1,"sequence":3,"prices":[156,181,131,256,176,200,171,151,111,206],"times":[2837,838,1175],"next_num":3,"trial_type":"ticket-choose","trial_index":88,"time_elapsed":1817032,"internal_node_id":"0.0-88.0"},{"result":111,"points":3,"place":0,"phase":1,"sequence":4,"prices":[111,231,131,146,171,295,141,241,271,150],"times":[2830],"next_num":1,"trial_type":"ticket-choose","trial_index":89,"time_elapsed":1821962,"internal_node_id":"0.0-89.0"},{"result":155,"points":1,"place":3,"phase":1,"sequence":5,"prices":[155,245,155,81,180,130,156,306,166,115],"times":[1028,943,2181],"next_num":3,"trial_type":"ticket-choose","trial_index":90,"time_elapsed":1828730,"internal_node_id":"0.0-90.0"},{"result":125,"points":2,"place":1,"phase":1,"sequence":6,"prices":[156,175,125,245,170,190,165,140,101,196],"times":[1116,846,1391],"next_num":3,"trial_type":"ticket-choose","trial_index":91,"time_elapsed":1834714,"internal_node_id":"0.0-91.0"},{"result":120,"points":2,"place":1,"phase":1,"sequence":7,"prices":[150,171,120,241,165,185,160,135,96,190],"times":[1341,726,1389],"next_num":3,"trial_type":"ticket-choose","trial_index":92,"time_elapsed":1840979,"internal_node_id":"0.0-92.0"},{"result":30,"points":3,"place":0,"phase":1,"sequence":8,"prices":[155,30,101,55,136,276,70,181,200,261],"times":[2500,1222],"next_num":2,"trial_type":"ticket-choose","trial_index":93,"time_elapsed":1847065,"internal_node_id":"0.0-93.0"},{"result":120,"points":2,"place":1,"phase":1,"sequence":9,"prices":[146,171,120,245,165,191,160,140,100,196],"times":[951,879,1543],"next_num":3,"trial_type":"ticket-choose","trial_index":94,"time_elapsed":1852901,"internal_node_id":"0.0-94.0"},{"result":130,"points":3,"place":0,"phase":1,"sequence":10,"prices":[185,175,276,221,130,141,171,216,235,165],"times":[1084,965,1294,789,1333],"next_num":5,"trial_type":"ticket-choose","trial_index":95,"time_elapsed":1862038,"internal_node_id":"0.0-95.0"},{"result":131,"points":2,"place":1,"phase":1,"sequence":11,"prices":[160,180,170,251,176,195,131,146,105,200],"times":[2566,741,782,758,1029,775,1094],"next_num":7,"trial_type":"ticket-choose","trial_index":96,"time_elapsed":1873368,"internal_node_id":"0.0-96.0"},{"result":65,"points":2,"place":1,"phase":1,"sequence":12,"prices":[220,236,176,65,185,101,110,61,156,191],"times":[1052,958,2319,1116],"next_num":4,"trial_type":"ticket-choose","trial_index":97,"time_elapsed":1881593,"internal_node_id":"0.0-97.0"},{"result":131,"points":2,"place":1,"phase":1,"sequence":13,"prices":[156,181,171,256,175,200,131,150,110,206],"times":[1043,678,763,679,879,733,1103],"next_num":7,"trial_type":"ticket-choose","trial_index":98,"time_elapsed":1890922,"internal_node_id":"0.0-98.0"},{"result":121,"points":2,"place":1,"phase":1,"sequence":14,"prices":[146,170,121,245,166,190,161,141,100,195],"times":[2692,636,1391],"next_num":3,"trial_type":"ticket-choose","trial_index":99,"time_elapsed":1898203,"internal_node_id":"0.0-99.0"},{"result":121,"points":2,"place":1,"phase":1,"sequence":15,"prices":[150,170,160,240,166,185,121,136,95,191],"times":[2364,638,759,664,750,770,1440],"next_num":7,"trial_type":"ticket-choose","trial_index":100,"time_elapsed":1908980,"internal_node_id":"0.0-100.0"},{"result":156,"points":1,"place":2,"phase":1,"sequence":16,"prices":[181,156,145,165,236,231,201,260,150,185],"times":[915,2805],"next_num":2,"trial_type":"ticket-choose","trial_index":101,"time_elapsed":1915109,"internal_node_id":"0.0-101.0"},{"result":126,"points":2,"place":1,"phase":1,"sequence":17,"prices":[156,176,165,246,171,190,126,141,101,196],"times":[951,717,922,613,806,837,1351],"next_num":7,"trial_type":"ticket-choose","trial_index":102,"time_elapsed":1924702,"internal_node_id":"0.0-102.0"},{"result":111,"points":3,"place":0,"phase":1,"sequence":18,"prices":[175,211,266,286,111,216,220,245,230,165],"times":[858,862,681,613,1455],"next_num":5,"trial_type":"ticket-choose","trial_index":103,"time_elapsed":1932064,"internal_node_id":"0.0-103.0"},{"result":130,"points":2,"place":1,"phase":1,"sequence":19,"prices":[160,180,130,251,176,195,170,146,105,200],"times":[1323,775,1867],"next_num":3,"trial_type":"ticket-choose","trial_index":104,"time_elapsed":1938648,"internal_node_id":"0.0-104.0"},{"result":141,"points":1,"place":3,"phase":1,"sequence":20,"prices":[176,150,141,91,290,201,106,266,206,126],"times":[1299,3351,1414],"next_num":3,"trial_type":"ticket-choose","trial_index":105,"time_elapsed":1947386,"internal_node_id":"0.0-105.0"},{"result":126,"points":2,"place":1,"phase":1,"sequence":21,"prices":[151,175,166,251,170,195,126,146,105,201],"times":[1036,766,678,663,623,734,1238],"next_num":7,"trial_type":"ticket-choose","trial_index":106,"time_elapsed":1956666,"internal_node_id":"0.0-106.0"},{"result":75,"points":3,"place":0,"phase":1,"sequence":22,"prices":[75,171,131,151,161,250,145,190,206,156],"times":[1290],"next_num":1,"trial_type":"ticket-choose","trial_index":107,"time_elapsed":1960050,"internal_node_id":"0.0-107.0"},{"result":120,"points":2,"place":1,"phase":1,"sequence":23,"prices":[150,170,160,241,166,186,120,136,96,191],"times":[1016,748,564,649,854,772,1260],"next_num":7,"trial_type":"ticket-choose","trial_index":108,"time_elapsed":1969214,"internal_node_id":"0.0-108.0"},{"result":130,"points":3,"place":0,"phase":1,"sequence":24,"prices":[130,195,141,155,181,226,150,216,221,175],"times":[1553],"next_num":1,"trial_type":"ticket-choose","trial_index":109,"time_elapsed":1972981,"internal_node_id":"0.0-109.0"},{"result":120,"points":2,"place":1,"phase":1,"sequence":25,"prices":[145,170,160,245,165,190,120,141,100,195],"times":[885,762,813,895,641,698,1863],"next_num":7,"trial_type":"ticket-choose","trial_index":110,"time_elapsed":1982982,"internal_node_id":"0.0-110.0"},{"result":66,"points":3,"place":0,"phase":1,"sequence":26,"prices":[66,201,96,150,185,230,121,216,225,165],"times":[1139],"next_num":1,"trial_type":"ticket-choose","trial_index":111,"time_elapsed":1986311,"internal_node_id":"0.0-111.0"},{"result":95,"points":3,"place":0,"phase":1,"sequence":27,"prices":[95,205,106,151,186,271,145,210,215,181],"times":[1462],"next_num":1,"trial_type":"ticket-choose","trial_index":112,"time_elapsed":1989863,"internal_node_id":"0.0-112.0"},{"result":120,"points":3,"place":0,"phase":1,"sequence":28,"prices":[120,221,135,185,200,261,181,251,255,196],"times":[1443],"next_num":1,"trial_type":"ticket-choose","trial_index":113,"time_elapsed":1993391,"internal_node_id":"0.0-113.0"},{"result":130,"points":2,"place":1,"phase":1,"sequence":29,"prices":[156,181,130,255,175,200,170,150,111,205],"times":[1052,741,1863],"next_num":3,"trial_type":"ticket-choose","trial_index":114,"time_elapsed":1999672,"internal_node_id":"0.0-114.0"},{"result":86,"points":3,"place":0,"phase":1,"sequence":30,"prices":[86,180,130,151,170,271,145,191,220,160],"times":[1619],"next_num":1,"trial_type":"ticket-choose","trial_index":115,"time_elapsed":2003307,"internal_node_id":"0.0-115.0"},{"result":135,"points":3,"place":0,"phase":1,"sequence":31,"prices":[135,180,141,151,175,220,145,196,211,155],"times":[2739],"next_num":1,"trial_type":"ticket-choose","trial_index":116,"time_elapsed":2008090,"internal_node_id":"0.0-116.0"},{"result":131,"points":2,"place":1,"phase":1,"sequence":32,"prices":[161,180,171,250,176,195,131,146,105,201],"times":[914,694,686,642,550,668,1247],"next_num":7,"trial_type":"ticket-choose","trial_index":117,"time_elapsed":2016931,"internal_node_id":"0.0-117.0"},{"result":125,"points":2,"place":1,"phase":1,"sequence":33,"prices":[155,175,166,245,171,190,125,140,101,196],"times":[1684,614,845,614,660,855,1115],"next_num":7,"trial_type":"ticket-choose","trial_index":118,"time_elapsed":2026827,"internal_node_id":"0.0-118.0"},{"result":105,"points":3,"place":0,"phase":1,"sequence":34,"prices":[150,176,126,251,171,195,165,145,105,200],"times":[1913,619,1741,629,527,574,550,583,1117],"next_num":9,"trial_type":"ticket-choose","trial_index":119,"time_elapsed":2039038,"internal_node_id":"0.0-119.0"},{"result":105,"points":3,"place":0,"phase":1,"sequence":35,"prices":[105,216,146,165,210,260,161,235,241,185],"times":[2596],"next_num":1,"trial_type":"ticket-choose","trial_index":120,"time_elapsed":2043862,"internal_node_id":"0.0-120.0"},{"result":105,"points":3,"place":0,"phase":1,"sequence":36,"prices":[151,176,126,251,170,196,165,145,105,201],"times":[1060,734,2471,584,799,599,566,559,1085],"next_num":9,"trial_type":"ticket-choose","trial_index":121,"time_elapsed":2056239,"internal_node_id":"0.0-121.0"},{"result":106,"points":3,"place":0,"phase":1,"sequence":37,"prices":[180,106,166,245,211,261,215,125,135,190],"times":[997,1573],"next_num":2,"trial_type":"ticket-choose","trial_index":122,"time_elapsed":2061072,"internal_node_id":"0.0-122.0"},{"result":126,"points":2,"place":1,"phase":1,"sequence":38,"prices":[150,175,166,251,170,196,126,145,105,201],"times":[1554,573,573,600,575,566,1369],"next_num":7,"trial_type":"ticket-choose","trial_index":123,"time_elapsed":2070393,"internal_node_id":"0.0-123.0"},{"result":116,"points":3,"place":0,"phase":1,"sequence":39,"prices":[176,150,276,171,261,116,130,201,166,231],"times":[788,553,598,644,558,1520],"next_num":6,"trial_type":"ticket-choose","trial_index":124,"time_elapsed":2078155,"internal_node_id":"0.0-124.0"},{"result":106,"points":3,"place":0,"phase":1,"sequence":40,"prices":[155,225,245,130,176,106,180,211,165,200],"times":[1747,590,648,604,687,1069],"next_num":6,"trial_type":"ticket-choose","trial_index":125,"time_elapsed":2086923,"internal_node_id":"0.0-125.0"},{"result":45,"points":3,"place":0,"phase":1,"sequence":41,"prices":[186,156,191,120,195,145,45,130,246,176],"times":[891,820,575,2158,582,550,1328],"next_num":7,"trial_type":"ticket-choose","trial_index":126,"time_elapsed":2101525,"internal_node_id":"0.0-126.0"},{"result":105,"points":3,"place":0,"phase":1,"sequence":42,"prices":[161,180,131,251,175,196,171,146,105,201],"times":[1421,589,3868,586,517,555,567,670,1231],"next_num":9,"trial_type":"ticket-choose","trial_index":127,"time_elapsed":2115584,"internal_node_id":"0.0-127.0"},{"result":95,"points":3,"place":0,"phase":1,"sequence":43,"prices":[150,171,121,241,165,185,160,136,95,191],"times":[1010,540,3193,534,789,615,669,1384,902],"next_num":9,"trial_type":"ticket-choose","trial_index":128,"time_elapsed":2129316,"internal_node_id":"0.0-128.0"},{"result":120,"points":2,"place":1,"phase":1,"sequence":44,"prices":[145,171,161,245,165,191,120,140,100,196],"times":[1034,589,989,710,594,605,2580],"next_num":7,"trial_type":"ticket-choose","trial_index":129,"time_elapsed":2139955,"internal_node_id":"0.0-129.0"},{"result":130,"points":2,"place":1,"phase":1,"sequence":45,"prices":[155,181,170,255,176,200,130,150,110,205],"times":[920,742,957,635,591,684,3687],"next_num":7,"trial_type":"ticket-choose","trial_index":130,"time_elapsed":2151511,"internal_node_id":"0.0-130.0"},{"result":120,"points":2,"place":1,"phase":1,"sequence":46,"prices":[226,205,125,120,115,135,180,145,150,220],"times":[1009,971,1380,1999],"next_num":4,"trial_type":"ticket-choose","trial_index":131,"time_elapsed":2159637,"internal_node_id":"0.0-131.0"},{"result":106,"points":2,"place":1,"phase":1,"sequence":47,"prices":[185,180,235,210,106,266,76,115,250,205],"times":[1283,558,587,574,1653],"next_num":5,"trial_type":"ticket-choose","trial_index":132,"time_elapsed":2167454,"internal_node_id":"0.0-132.0"},{"result":81,"points":3,"place":0,"phase":1,"sequence":48,"prices":[81,205,130,151,191,261,145,210,250,165],"times":[1235],"next_num":1,"trial_type":"ticket-choose","trial_index":133,"time_elapsed":2171039,"internal_node_id":"0.0-133.0"},{"result":61,"points":3,"place":0,"phase":1,"sequence":49,"prices":[255,166,266,175,136,145,155,61,96,301],"times":[1285,892,1342,1031,2622,585,942,1053],"next_num":8,"trial_type":"ticket-choose","trial_index":134,"time_elapsed":2184521,"internal_node_id":"0.0-134.0"},{"responses":[{"value":1,"offby":0,"category":"$30 - $75","category_index":0},{"value":3,"offby":1,"category":"$76 - $120","category_index":1},{"value":6,"offby":2,"category":"$121 - $165","category_index":2},{"value":7,"offby":1,"category":"$166 - $210","category_index":3},{"value":3,"offby":-3,"category":"$211 - $255","category_index":4},{"value":0,"offby":-1,"category":"$256 - $300","category_index":5},{"value":0,"offby":0,"category":"$301 - $345","category_index":6}],"phase":1,"number":1,"trial_type":"bar-choose","trial_index":135,"time_elapsed":2259915,"internal_node_id":"0.0-135.0"},{"special_comment":"no","trial_type":"special_sequence","trial_index":136,"time_elapsed":2270149,"internal_node_id":"0.0-136.0"},{"during":"Nothing","bonus":304,"trial_type":"final","trial_index":137,"time_elapsed":2311179,"internal_node_id":"0.0-137.0"}],"bonus":304}