{"start_time":"2017-02-27 11:36:01","end_time":"2017-02-27 11:57:12","points_phase0":115,"points_phase1":115,"phase_order":1,"age":29,"gender":"m","tries":1,"during":"Nothing","worker_id":"AR1IWBDA7MC86","assignment_id":"32AT8R96GM29PD6099AVX2AISZHSUR","data":[{"rt":3021,"url":"\/tickets\/utils\/consent.html","trial_type":"html","trial_index":0,"time_elapsed":3195,"internal_node_id":"0.0-0.0"},{"age":29,"gender":"m","trial_type":"age","trial_index":1,"time_elapsed":7127,"internal_node_id":"0.0-1.0"},{"worker_id":"AR1IWBDA7MC86","trial_type":"workerid","trial_index":2,"time_elapsed":10537,"internal_node_id":"0.0-2.0"},{"tries":1,"trial_type":"instructions_check","trial_index":3,"time_elapsed":31164,"internal_node_id":"0.0-3.0"},{"rt":25683,"url":"\/tickets\/utils\/start.html","trial_type":"html","trial_index":4,"time_elapsed":58029,"internal_node_id":"0.0-4.0"},{"trial_type":"number-animation","trial_index":5,"time_elapsed":106348,"internal_node_id":"0.0-5.0"},{"phase":0,"sequence":0,"avg":166,"response":165,"trial_type":"training_avg","trial_index":6,"time_elapsed":152472,"internal_node_id":"0.0-6.0"},{"trial_type":"number-animation","trial_index":7,"time_elapsed":166561,"internal_node_id":"0.0-7.0"},{"phase":0,"sequence":1,"avg":198,"response":185,"trial_type":"training_avg","trial_index":8,"time_elapsed":177366,"internal_node_id":"0.0-8.0"},{"trial_type":"number-animation","trial_index":9,"time_elapsed":190343,"internal_node_id":"0.0-9.0"},{"phase":0,"sequence":2,"avg":177,"response":162,"trial_type":"training_avg","trial_index":10,"time_elapsed":203052,"internal_node_id":"0.0-10.0"},{"trial_type":"number-animation","trial_index":11,"time_elapsed":212948,"internal_node_id":"0.0-11.0"},{"phase":0,"sequence":3,"avg":190,"response":165,"trial_type":"training_avg","trial_index":12,"time_elapsed":222040,"internal_node_id":"0.0-12.0"},{"trial_type":"number-animation","trial_index":13,"time_elapsed":230363,"internal_node_id":"0.0-13.0"},{"phase":0,"sequence":4,"avg":201,"response":218,"trial_type":"training_avg","trial_index":14,"time_elapsed":240324,"internal_node_id":"0.0-14.0"},{"responses":[{"value":1,"offby":0,"category":"$30 - $75","category_index":0},{"value":1,"offby":-1,"category":"$76 - $120","category_index":1},{"value":2,"offby":-2,"category":"$121 - $165","category_index":2},{"value":7,"offby":1,"category":"$166 - $210","category_index":3},{"value":7,"offby":1,"category":"$211 - $255","category_index":4},{"value":2,"offby":1,"category":"$256 - $300","category_index":5},{"value":0,"offby":0,"category":"$301 - $345","category_index":6}],"phase":0,"number":0,"trial_type":"bar-choose","trial_index":15,"time_elapsed":307734,"internal_node_id":"0.0-15.0"},{"rt":15416,"url":"\/tickets\/\/utils\/testing.html","trial_type":"html","trial_index":16,"time_elapsed":324330,"internal_node_id":"0.0-16.0"},{"phase":0,"order":[34,13,45,38,12,14,28,7,8,40,22,37,30,23,9,19,47,41,48,44,1,18,25,36,0,5,15,16,39,33,29,26,27,31,32,20,3,42,46,43,21,10,49,2,6,4,17,35,24,11],"trial_type":"store_order","trial_index":17,"time_elapsed":325331,"internal_node_id":"0.0-17.0"},{"result":126,"points":3,"place":0,"phase":0,"sequence":-1,"prices":[184,180,224,165,181,199,185,193,218,126],"times":[1586,441,520,488,579,612,676,510,492,1313],"next_num":10,"trial_type":"ticket-choose","trial_index":18,"time_elapsed":337144,"internal_node_id":"0.0-18.0"},{"rt":7836,"url":"\/tickets\/utils\/testing_after.html","trial_type":"html","trial_index":19,"time_elapsed":346164,"internal_node_id":"0.0-19.0"},{"result":86,"points":3,"place":0,"phase":0,"sequence":0,"prices":[86,180,130,151,170,271,145,191,220,160],"times":[2195],"next_num":1,"trial_type":"ticket-choose","trial_index":20,"time_elapsed":351639,"internal_node_id":"0.0-20.0"},{"result":66,"points":3,"place":0,"phase":0,"sequence":1,"prices":[66,201,96,150,185,230,121,216,225,165],"times":[1557],"next_num":1,"trial_type":"ticket-choose","trial_index":21,"time_elapsed":355509,"internal_node_id":"0.0-21.0"},{"result":145,"points":1,"place":3,"phase":0,"sequence":2,"prices":[145,171,161,245,165,191,120,140,100,196],"times":[4908],"next_num":1,"trial_type":"ticket-choose","trial_index":22,"time_elapsed":364800,"internal_node_id":"0.0-22.0"},{"result":121,"points":2,"place":1,"phase":0,"sequence":3,"prices":[146,170,121,245,166,190,161,141,100,195],"times":[1392,469,881],"next_num":3,"trial_type":"ticket-choose","trial_index":23,"time_elapsed":370681,"internal_node_id":"0.0-23.0"},{"result":95,"points":3,"place":0,"phase":0,"sequence":4,"prices":[95,205,106,151,186,271,145,210,215,181],"times":[2266],"next_num":1,"trial_type":"ticket-choose","trial_index":24,"time_elapsed":378140,"internal_node_id":"0.0-24.0"},{"result":131,"points":2,"place":1,"phase":0,"sequence":5,"prices":[161,180,171,250,176,195,131,146,105,201],"times":[1417,501,484,588,485,587,1805],"next_num":7,"trial_type":"ticket-choose","trial_index":25,"time_elapsed":387364,"internal_node_id":"0.0-25.0"},{"result":165,"points":2,"place":1,"phase":0,"sequence":6,"prices":[175,211,266,286,111,216,220,245,230,165],"times":[1249,467,509,480,603,879,877,603,614,1313],"next_num":10,"trial_type":"ticket-choose","trial_index":26,"time_elapsed":399108,"internal_node_id":"0.0-26.0"},{"result":130,"points":2,"place":1,"phase":0,"sequence":7,"prices":[156,181,130,255,175,200,170,150,111,205],"times":[1222,575,1156],"next_num":3,"trial_type":"ticket-choose","trial_index":27,"time_elapsed":404535,"internal_node_id":"0.0-27.0"},{"result":116,"points":3,"place":0,"phase":0,"sequence":8,"prices":[176,150,276,171,261,116,130,201,166,231],"times":[818,1205,516,564,656,897],"next_num":6,"trial_type":"ticket-choose","trial_index":28,"time_elapsed":412650,"internal_node_id":"0.0-28.0"},{"result":65,"points":2,"place":1,"phase":0,"sequence":9,"prices":[220,236,176,65,185,101,110,61,156,191],"times":[989,502,856,856],"next_num":4,"trial_type":"ticket-choose","trial_index":29,"time_elapsed":418504,"internal_node_id":"0.0-29.0"},{"result":30,"points":3,"place":0,"phase":0,"sequence":10,"prices":[155,30,101,55,136,276,70,181,200,261],"times":[891,856],"next_num":2,"trial_type":"ticket-choose","trial_index":30,"time_elapsed":422387,"internal_node_id":"0.0-30.0"},{"result":120,"points":2,"place":1,"phase":0,"sequence":11,"prices":[150,170,160,241,166,186,120,136,96,191],"times":[694,565,468,486,532,534,877],"next_num":7,"trial_type":"ticket-choose","trial_index":31,"time_elapsed":430186,"internal_node_id":"0.0-31.0"},{"result":131,"points":2,"place":1,"phase":0,"sequence":12,"prices":[160,180,170,251,176,195,131,146,105,200],"times":[1164,490,484,513,535,503,915],"next_num":7,"trial_type":"ticket-choose","trial_index":32,"time_elapsed":437920,"internal_node_id":"0.0-32.0"},{"result":155,"points":1,"place":4,"phase":0,"sequence":13,"prices":[135,180,141,151,175,220,145,196,211,155],"times":[1054,528,779,556,624,567,1160,658,618,714],"next_num":10,"trial_type":"ticket-choose","trial_index":33,"time_elapsed":449076,"internal_node_id":"0.0-33.0"},{"result":81,"points":3,"place":0,"phase":0,"sequence":14,"prices":[81,205,130,151,191,261,145,210,250,165],"times":[1261],"next_num":1,"trial_type":"ticket-choose","trial_index":34,"time_elapsed":452373,"internal_node_id":"0.0-34.0"},{"result":106,"points":2,"place":1,"phase":0,"sequence":15,"prices":[185,180,235,210,106,266,76,115,250,205],"times":[1197,772,569,543,887],"next_num":5,"trial_type":"ticket-choose","trial_index":35,"time_elapsed":459012,"internal_node_id":"0.0-35.0"},{"result":111,"points":3,"place":0,"phase":0,"sequence":16,"prices":[156,181,131,256,176,200,171,151,111,206],"times":[852,457,481,530,646,913,700,1538,799],"next_num":9,"trial_type":"ticket-choose","trial_index":36,"time_elapsed":469486,"internal_node_id":"0.0-36.0"},{"result":140,"points":1,"place":2,"phase":0,"sequence":17,"prices":[156,175,125,245,170,190,165,140,101,196],"times":[970,540,1972,555,529,486,552,1917],"next_num":8,"trial_type":"ticket-choose","trial_index":37,"time_elapsed":480371,"internal_node_id":"0.0-37.0"},{"result":120,"points":2,"place":1,"phase":0,"sequence":18,"prices":[150,171,120,241,165,185,160,135,96,190],"times":[1370,642,1251],"next_num":3,"trial_type":"ticket-choose","trial_index":38,"time_elapsed":485845,"internal_node_id":"0.0-38.0"},{"result":120,"points":3,"place":0,"phase":0,"sequence":19,"prices":[120,221,135,185,200,261,181,251,255,196],"times":[1623],"next_num":1,"trial_type":"ticket-choose","trial_index":39,"time_elapsed":489494,"internal_node_id":"0.0-39.0"},{"result":111,"points":3,"place":0,"phase":0,"sequence":20,"prices":[111,231,131,146,171,295,141,241,271,150],"times":[1046],"next_num":1,"trial_type":"ticket-choose","trial_index":40,"time_elapsed":492438,"internal_node_id":"0.0-40.0"},{"result":130,"points":3,"place":0,"phase":0,"sequence":21,"prices":[185,175,276,221,130,141,171,216,235,165],"times":[943,460,482,480,936],"next_num":5,"trial_type":"ticket-choose","trial_index":41,"time_elapsed":498418,"internal_node_id":"0.0-41.0"},{"result":105,"points":3,"place":0,"phase":0,"sequence":22,"prices":[105,216,146,165,210,260,161,235,241,185],"times":[1194],"next_num":1,"trial_type":"ticket-choose","trial_index":42,"time_elapsed":501382,"internal_node_id":"0.0-42.0"},{"result":101,"points":3,"place":0,"phase":0,"sequence":23,"prices":[155,175,166,245,171,190,125,140,101,196],"times":[816,453,538,510,532,501,451,1098,795],"next_num":9,"trial_type":"ticket-choose","trial_index":43,"time_elapsed":510588,"internal_node_id":"0.0-43.0"},{"result":125,"points":1,"place":2,"phase":0,"sequence":24,"prices":[226,205,125,120,115,135,180,145,150,220],"times":[870,498,1033],"next_num":3,"trial_type":"ticket-choose","trial_index":44,"time_elapsed":515191,"internal_node_id":"0.0-44.0"},{"result":136,"points":1,"place":2,"phase":0,"sequence":25,"prices":[150,171,121,241,165,185,160,136,95,191],"times":[1669,550,458,554,587,720,532,1377],"next_num":8,"trial_type":"ticket-choose","trial_index":45,"time_elapsed":525547,"internal_node_id":"0.0-45.0"},{"result":126,"points":2,"place":1,"phase":0,"sequence":26,"prices":[151,176,126,251,170,196,165,145,105,201],"times":[960,625,1688],"next_num":3,"trial_type":"ticket-choose","trial_index":46,"time_elapsed":531251,"internal_node_id":"0.0-46.0"},{"result":105,"points":3,"place":0,"phase":0,"sequence":27,"prices":[161,180,131,251,175,196,171,146,105,201],"times":[891,642,1003,563,510,705,541,626,986],"next_num":9,"trial_type":"ticket-choose","trial_index":47,"time_elapsed":541214,"internal_node_id":"0.0-47.0"},{"result":121,"points":2,"place":1,"phase":0,"sequence":28,"prices":[150,170,160,240,166,185,121,136,95,191],"times":[802,459,444,478,506,586,959],"next_num":7,"trial_type":"ticket-choose","trial_index":48,"time_elapsed":548446,"internal_node_id":"0.0-48.0"},{"result":106,"points":3,"place":0,"phase":0,"sequence":29,"prices":[155,225,245,130,176,106,180,211,165,200],"times":[924,508,470,493,463,926],"next_num":6,"trial_type":"ticket-choose","trial_index":49,"time_elapsed":555011,"internal_node_id":"0.0-49.0"},{"result":150,"points":2,"place":1,"phase":0,"sequence":30,"prices":[181,156,145,165,236,231,201,260,150,185],"times":[807,500,514,494,549,637,521,519,936],"next_num":9,"trial_type":"ticket-choose","trial_index":50,"time_elapsed":563906,"internal_node_id":"0.0-50.0"},{"result":126,"points":2,"place":1,"phase":0,"sequence":31,"prices":[151,175,166,251,170,195,126,146,105,201],"times":[877,682,514,530,1107,678,971],"next_num":7,"trial_type":"ticket-choose","trial_index":51,"time_elapsed":572206,"internal_node_id":"0.0-51.0"},{"result":126,"points":2,"place":1,"phase":0,"sequence":32,"prices":[156,176,165,246,171,190,126,141,101,196],"times":[717,469,491,545,682,563,1010],"next_num":7,"trial_type":"ticket-choose","trial_index":52,"time_elapsed":579710,"internal_node_id":"0.0-52.0"},{"result":75,"points":3,"place":0,"phase":0,"sequence":33,"prices":[75,171,131,151,161,250,145,190,206,156],"times":[911],"next_num":1,"trial_type":"ticket-choose","trial_index":53,"time_elapsed":582763,"internal_node_id":"0.0-53.0"},{"result":140,"points":1,"place":2,"phase":0,"sequence":34,"prices":[156,175,126,246,170,190,165,140,100,196],"times":[940,500,498,547,613,557,538,1633],"next_num":8,"trial_type":"ticket-choose","trial_index":54,"time_elapsed":591832,"internal_node_id":"0.0-54.0"},{"result":120,"points":2,"place":1,"phase":0,"sequence":35,"prices":[146,171,120,245,165,191,160,140,100,196],"times":[778,598,1031],"next_num":3,"trial_type":"ticket-choose","trial_index":55,"time_elapsed":597371,"internal_node_id":"0.0-55.0"},{"result":136,"points":1,"place":2,"phase":0,"sequence":36,"prices":[255,166,266,175,136,145,155,61,96,301],"times":[975,710,540,497,861],"next_num":5,"trial_type":"ticket-choose","trial_index":56,"time_elapsed":603911,"internal_node_id":"0.0-56.0"},{"result":51,"points":3,"place":0,"phase":0,"sequence":37,"prices":[221,175,51,196,146,130,166,80,126,156],"times":[740,535,826],"next_num":3,"trial_type":"ticket-choose","trial_index":57,"time_elapsed":608095,"internal_node_id":"0.0-57.0"},{"result":190,"points":0,"place":5,"phase":0,"sequence":38,"prices":[180,106,166,245,211,261,215,125,135,190],"times":[1321,500,625,478,506,540,556,521,696,1130],"next_num":10,"trial_type":"ticket-choose","trial_index":58,"time_elapsed":618805,"internal_node_id":"0.0-58.0"},{"result":131,"points":2,"place":1,"phase":0,"sequence":39,"prices":[156,181,171,256,175,200,131,150,110,206],"times":[1109,574,709,538,504,624,874],"next_num":7,"trial_type":"ticket-choose","trial_index":59,"time_elapsed":626607,"internal_node_id":"0.0-59.0"},{"result":81,"points":3,"place":0,"phase":0,"sequence":40,"prices":[155,245,155,81,180,130,156,306,166,115],"times":[831,514,1269,810],"next_num":4,"trial_type":"ticket-choose","trial_index":60,"time_elapsed":632263,"internal_node_id":"0.0-60.0"},{"result":45,"points":3,"place":0,"phase":0,"sequence":41,"prices":[186,156,191,120,195,145,45,130,246,176],"times":[764,574,492,506,524,788,783],"next_num":7,"trial_type":"ticket-choose","trial_index":61,"time_elapsed":639578,"internal_node_id":"0.0-61.0"},{"result":136,"points":3,"place":0,"phase":0,"sequence":42,"prices":[246,145,155,191,176,270,185,136,160,215],"times":[650,461,540,522,496,543,532,1029],"next_num":8,"trial_type":"ticket-choose","trial_index":62,"time_elapsed":647532,"internal_node_id":"0.0-62.0"},{"result":130,"points":2,"place":1,"phase":0,"sequence":43,"prices":[155,181,170,255,176,200,130,150,110,205],"times":[624,507,503,501,485,574,1024],"next_num":7,"trial_type":"ticket-choose","trial_index":63,"time_elapsed":654753,"internal_node_id":"0.0-63.0"},{"result":130,"points":3,"place":0,"phase":0,"sequence":44,"prices":[130,195,141,155,181,226,150,216,221,175],"times":[2372],"next_num":1,"trial_type":"ticket-choose","trial_index":64,"time_elapsed":658919,"internal_node_id":"0.0-64.0"},{"result":100,"points":3,"place":0,"phase":0,"sequence":45,"prices":[145,170,160,245,165,190,120,141,100,195],"times":[1117,445,688,486,509,507,495,799,815],"next_num":9,"trial_type":"ticket-choose","trial_index":65,"time_elapsed":668255,"internal_node_id":"0.0-65.0"},{"result":105,"points":3,"place":0,"phase":0,"sequence":46,"prices":[150,175,166,251,170,196,126,145,105,201],"times":[1230,480,469,500,487,685,508,582,768],"next_num":9,"trial_type":"ticket-choose","trial_index":66,"time_elapsed":677348,"internal_node_id":"0.0-66.0"},{"result":130,"points":2,"place":1,"phase":0,"sequence":47,"prices":[160,180,130,251,176,195,170,146,105,200],"times":[900,478,952],"next_num":3,"trial_type":"ticket-choose","trial_index":67,"time_elapsed":681957,"internal_node_id":"0.0-67.0"},{"result":91,"points":3,"place":0,"phase":0,"sequence":48,"prices":[176,150,141,91,290,201,106,266,206,126],"times":[602,479,917,822],"next_num":4,"trial_type":"ticket-choose","trial_index":68,"time_elapsed":687221,"internal_node_id":"0.0-68.0"},{"result":105,"points":3,"place":0,"phase":0,"sequence":49,"prices":[150,176,126,251,171,195,165,145,105,200],"times":[753,455,433,448,484,579,483,1029,879],"next_num":9,"trial_type":"ticket-choose","trial_index":69,"time_elapsed":696844,"internal_node_id":"0.0-69.0"},{"responses":[{"value":1,"offby":0,"category":"$30 - $75","category_index":0},{"value":3,"offby":1,"category":"$76 - $120","category_index":1},{"value":5,"offby":1,"category":"$121 - $165","category_index":2},{"value":6,"offby":0,"category":"$166 - $210","category_index":3},{"value":4,"offby":-2,"category":"$211 - $255","category_index":4},{"value":1,"offby":0,"category":"$256 - $300","category_index":5},{"value":0,"offby":0,"category":"$301 - $345","category_index":6}],"phase":0,"number":1,"trial_type":"bar-choose","trial_index":70,"time_elapsed":742766,"internal_node_id":"0.0-70.0"},{"rt":20863,"url":"\/tickets\/utils\/start2.html","trial_type":"html","trial_index":71,"time_elapsed":764810,"internal_node_id":"0.0-71.0"},{"trial_type":"number-animation","trial_index":72,"time_elapsed":772195,"internal_node_id":"0.0-72.0"},{"phase":1,"sequence":0,"avg":180,"response":180,"trial_type":"training_avg","trial_index":73,"time_elapsed":777633,"internal_node_id":"0.0-73.0"},{"trial_type":"number-animation","trial_index":74,"time_elapsed":785131,"internal_node_id":"0.0-74.0"},{"phase":1,"sequence":1,"avg":178,"response":177,"trial_type":"training_avg","trial_index":75,"time_elapsed":794440,"internal_node_id":"0.0-75.0"},{"trial_type":"number-animation","trial_index":76,"time_elapsed":801195,"internal_node_id":"0.0-76.0"},{"phase":1,"sequence":2,"avg":176,"response":180,"trial_type":"training_avg","trial_index":77,"time_elapsed":806023,"internal_node_id":"0.0-77.0"},{"trial_type":"number-animation","trial_index":78,"time_elapsed":816095,"internal_node_id":"0.0-78.0"},{"phase":1,"sequence":3,"avg":178,"response":170,"trial_type":"training_avg","trial_index":79,"time_elapsed":820457,"internal_node_id":"0.0-79.0"},{"trial_type":"number-animation","trial_index":80,"time_elapsed":826998,"internal_node_id":"0.0-80.0"},{"phase":1,"sequence":4,"avg":179,"response":172,"trial_type":"training_avg","trial_index":81,"time_elapsed":831886,"internal_node_id":"0.0-81.0"},{"responses":[{"value":0,"offby":0,"category":"$140 - $250","category_index":0},{"value":1,"offby":1,"category":"$151 - $160","category_index":1},{"value":5,"offby":1,"category":"$161 - $170","category_index":2},{"value":10,"offby":4,"category":"$171 - $180","category_index":3},{"value":4,"offby":-3,"category":"$181 - $190","category_index":4},{"value":0,"offby":-3,"category":"$191 - $200","category_index":5},{"value":0,"offby":0,"category":"$201 - $210","category_index":6}],"phase":1,"number":0,"trial_type":"bar-choose","trial_index":82,"time_elapsed":873048,"internal_node_id":"0.0-82.0"},{"rt":10567,"url":"\/tickets\/utils\/testing2.html","trial_type":"html","trial_index":83,"time_elapsed":884796,"internal_node_id":"0.0-83.0"},{"phase":1,"order":[24,31,22,19,25,12,46,11,40,43,44,21,13,32,30,34,10,1,17,27,29,38,26,4,36,16,2,8,20,49,47,7,5,28,0,18,39,35,41,15,42,37,48,14,33,23,6,9,45,3],"trial_type":"store_order","trial_index":84,"time_elapsed":885799,"internal_node_id":"0.0-84.0"},{"result":159,"points":3,"place":0,"phase":1,"sequence":0,"prices":[181,180,191,186,165,197,159,167,194,185],"times":[5671,385,515,441,435,492,910],"next_num":7,"trial_type":"ticket-choose","trial_index":85,"time_elapsed":897707,"internal_node_id":"0.0-85.0"},{"result":165,"points":3,"place":0,"phase":1,"sequence":1,"prices":[176,180,178,194,179,183,170,173,165,184],"times":[704,482,488,517,420,558,972,570,854],"next_num":9,"trial_type":"ticket-choose","trial_index":86,"time_elapsed":906627,"internal_node_id":"0.0-86.0"},{"result":162,"points":3,"place":0,"phase":1,"sequence":2,"prices":[179,174,172,162,202,184,165,197,185,169],"times":[629,360,478,831],"next_num":4,"trial_type":"ticket-choose","trial_index":87,"time_elapsed":911205,"internal_node_id":"0.0-87.0"},{"result":170,"points":3,"place":0,"phase":1,"sequence":3,"prices":[181,179,199,188,170,172,178,187,191,177],"times":[547,452,428,482,831],"next_num":5,"trial_type":"ticket-choose","trial_index":88,"time_elapsed":916503,"internal_node_id":"0.0-88.0"},{"result":173,"points":1,"place":2,"phase":1,"sequence":4,"prices":[176,180,178,194,179,183,170,173,165,184],"times":[426,574,609,462,487,476,719,1239],"next_num":8,"trial_type":"ticket-choose","trial_index":89,"time_elapsed":924945,"internal_node_id":"0.0-89.0"},{"result":170,"points":2,"place":1,"phase":1,"sequence":5,"prices":[175,180,178,195,179,184,170,174,166,185],"times":[1502,469,633,484,551,441,795],"next_num":7,"trial_type":"ticket-choose","trial_index":90,"time_elapsed":932724,"internal_node_id":"0.0-90.0"},{"result":159,"points":3,"place":0,"phase":1,"sequence":6,"prices":[159,178,170,174,176,194,173,182,185,175],"times":[831],"next_num":1,"trial_type":"ticket-choose","trial_index":91,"time_elapsed":935281,"internal_node_id":"0.0-91.0"},{"result":169,"points":2,"place":1,"phase":1,"sequence":7,"prices":[174,179,177,194,178,183,169,173,165,184],"times":[790,444,462,471,471,580,769],"next_num":7,"trial_type":"ticket-choose","trial_index":92,"time_elapsed":942174,"internal_node_id":"0.0-92.0"},{"result":165,"points":3,"place":0,"phase":1,"sequence":8,"prices":[176,180,170,194,179,183,178,173,165,184],"times":[635,494,592,4987,459,563,844,582,946],"next_num":9,"trial_type":"ticket-choose","trial_index":93,"time_elapsed":955745,"internal_node_id":"0.0-93.0"},{"result":170,"points":2,"place":1,"phase":1,"sequence":9,"prices":[179,174,199,178,196,167,170,184,177,190],"times":[793,503,468,482,472,452,1216],"next_num":7,"trial_type":"ticket-choose","trial_index":94,"time_elapsed":963119,"internal_node_id":"0.0-94.0"},{"result":168,"points":2,"place":1,"phase":1,"sequence":10,"prices":[173,178,176,193,177,182,168,172,164,183],"times":[904,460,436,453,487,591,1243],"next_num":7,"trial_type":"ticket-choose","trial_index":95,"time_elapsed":970628,"internal_node_id":"0.0-95.0"},{"result":168,"points":2,"place":1,"phase":1,"sequence":11,"prices":[181,175,182,168,183,173,153,170,193,179],"times":[1347,647,861,951],"next_num":4,"trial_type":"ticket-choose","trial_index":96,"time_elapsed":976759,"internal_node_id":"0.0-96.0"},{"result":160,"points":3,"place":0,"phase":1,"sequence":12,"prices":[160,185,170,174,182,196,173,186,194,177],"times":[913],"next_num":1,"trial_type":"ticket-choose","trial_index":97,"time_elapsed":979464,"internal_node_id":"0.0-97.0"},{"result":172,"points":1,"place":2,"phase":1,"sequence":13,"prices":[173,178,176,193,177,182,168,172,164,183],"times":[728,472,578,564,493,635,598,915],"next_num":8,"trial_type":"ticket-choose","trial_index":98,"time_elapsed":987603,"internal_node_id":"0.0-98.0"},{"result":170,"points":2,"place":1,"phase":1,"sequence":14,"prices":[176,180,170,194,179,183,178,173,165,184],"times":[948,722,1589],"next_num":3,"trial_type":"ticket-choose","trial_index":99,"time_elapsed":993000,"internal_node_id":"0.0-99.0"},{"result":164,"points":3,"place":0,"phase":1,"sequence":15,"prices":[173,178,168,193,177,182,176,172,164,183],"times":[908,519,500,810,547,606,697,660,878],"next_num":9,"trial_type":"ticket-choose","trial_index":100,"time_elapsed":1006007,"internal_node_id":"0.0-100.0"},{"result":174,"points":2,"place":1,"phase":1,"sequence":16,"prices":[180,175,173,177,191,190,184,196,174,181],"times":[1159,550,2010,583,507,523,670,577,1255],"next_num":9,"trial_type":"ticket-choose","trial_index":101,"time_elapsed":1017542,"internal_node_id":"0.0-101.0"},{"result":165,"points":3,"place":0,"phase":1,"sequence":17,"prices":[180,165,177,193,186,196,187,169,171,182],"times":[1257,942],"next_num":2,"trial_type":"ticket-choose","trial_index":102,"time_elapsed":1021625,"internal_node_id":"0.0-102.0"},{"result":171,"points":3,"place":0,"phase":1,"sequence":18,"prices":[193,173,175,182,179,198,181,171,176,187],"times":[675,464,493,468,506,483,483,872],"next_num":8,"trial_type":"ticket-choose","trial_index":103,"time_elapsed":1029139,"internal_node_id":"0.0-103.0"},{"result":150,"points":3,"place":0,"phase":1,"sequence":19,"prices":[175,150,164,155,171,199,158,180,184,196],"times":[987,1214],"next_num":2,"trial_type":"ticket-choose","trial_index":104,"time_elapsed":1033220,"internal_node_id":"0.0-104.0"},{"result":172,"points":1,"place":2,"phase":1,"sequence":20,"prices":[175,179,169,193,178,182,177,172,164,183],"times":[839,481,579,579,481,574,769,1007],"next_num":8,"trial_type":"ticket-choose","trial_index":105,"time_elapsed":1041650,"internal_node_id":"0.0-105.0"},{"result":168,"points":2,"place":1,"phase":1,"sequence":21,"prices":[173,178,168,193,177,182,176,172,164,183],"times":[970,539,794],"next_num":3,"trial_type":"ticket-choose","trial_index":106,"time_elapsed":1045980,"internal_node_id":"0.0-106.0"},{"result":163,"points":3,"place":0,"phase":1,"sequence":22,"prices":[163,185,165,174,181,198,173,186,187,180],"times":[859],"next_num":1,"trial_type":"ticket-choose","trial_index":107,"time_elapsed":1048450,"internal_node_id":"0.0-107.0"},{"result":169,"points":1,"place":2,"phase":1,"sequence":23,"prices":[189,185,169,168,167,171,180,173,174,188],"times":[664,491,759],"next_num":3,"trial_type":"ticket-choose","trial_index":108,"time_elapsed":1052390,"internal_node_id":"0.0-108.0"},{"result":169,"points":2,"place":1,"phase":1,"sequence":24,"prices":[175,179,169,193,178,182,177,172,164,183],"times":[568,474,737],"next_num":3,"trial_type":"ticket-choose","trial_index":109,"time_elapsed":1056182,"internal_node_id":"0.0-109.0"},{"result":169,"points":2,"place":1,"phase":1,"sequence":25,"prices":[175,179,177,193,178,182,169,172,164,183],"times":[583,438,481,571,457,625,802],"next_num":7,"trial_type":"ticket-choose","trial_index":110,"time_elapsed":1063009,"internal_node_id":"0.0-110.0"},{"result":166,"points":3,"place":0,"phase":1,"sequence":26,"prices":[175,180,178,195,179,184,170,174,166,185],"times":[661,510,471,561,485,583,497,571,1034],"next_num":9,"trial_type":"ticket-choose","trial_index":111,"time_elapsed":1071620,"internal_node_id":"0.0-111.0"},{"result":171,"points":1,"place":2,"phase":1,"sequence":27,"prices":[174,178,168,192,177,181,176,171,163,182],"times":[803,762,619,721,605,636,911,1143],"next_num":8,"trial_type":"ticket-choose","trial_index":112,"time_elapsed":1080958,"internal_node_id":"0.0-112.0"},{"result":171,"points":1,"place":2,"phase":1,"sequence":28,"prices":[195,177,197,179,171,173,175,156,163,204],"times":[1027,714,729,504,1002],"next_num":5,"trial_type":"ticket-choose","trial_index":113,"time_elapsed":1087428,"internal_node_id":"0.0-113.0"},{"result":170,"points":3,"place":0,"phase":1,"sequence":29,"prices":[170,183,172,175,180,189,174,187,188,179],"times":[1097],"next_num":1,"trial_type":"ticket-choose","trial_index":114,"time_elapsed":1090496,"internal_node_id":"0.0-114.0"},{"result":166,"points":3,"place":0,"phase":1,"sequence":30,"prices":[166,190,170,173,178,203,172,192,198,174],"times":[822],"next_num":1,"trial_type":"ticket-choose","trial_index":115,"time_elapsed":1093522,"internal_node_id":"0.0-115.0"},{"result":165,"points":3,"place":0,"phase":1,"sequence":31,"prices":[165,187,173,177,186,196,176,191,192,181],"times":[722],"next_num":1,"trial_type":"ticket-choose","trial_index":116,"time_elapsed":1095906,"internal_node_id":"0.0-116.0"},{"result":168,"points":3,"place":0,"phase":1,"sequence":32,"prices":[168,188,171,181,184,196,180,194,195,183],"times":[909],"next_num":1,"trial_type":"ticket-choose","trial_index":117,"time_elapsed":1098517,"internal_node_id":"0.0-117.0"},{"result":157,"points":3,"place":0,"phase":1,"sequence":33,"prices":[157,184,163,174,181,190,168,187,189,177],"times":[1005],"next_num":1,"trial_type":"ticket-choose","trial_index":118,"time_elapsed":1101142,"internal_node_id":"0.0-118.0"},{"result":175,"points":1,"place":4,"phase":1,"sequence":34,"prices":[171,180,172,174,179,188,173,183,186,175],"times":[934,448,507,484,546,489,737,541,557,674],"next_num":10,"trial_type":"ticket-choose","trial_index":119,"time_elapsed":1110654,"internal_node_id":"0.0-119.0"},{"result":168,"points":2,"place":1,"phase":1,"sequence":35,"prices":[174,178,176,192,177,181,168,171,163,182],"times":[1039,479,517,556,516,520,882],"next_num":7,"trial_type":"ticket-choose","trial_index":120,"time_elapsed":1118040,"internal_node_id":"0.0-120.0"},{"result":165,"points":3,"place":0,"phase":1,"sequence":36,"prices":[174,179,169,194,178,183,177,173,165,184],"times":[1190,474,488,570,776,603,503,1060,851],"next_num":9,"trial_type":"ticket-choose","trial_index":121,"time_elapsed":1127828,"internal_node_id":"0.0-121.0"},{"result":160,"points":3,"place":0,"phase":1,"sequence":37,"prices":[175,193,175,160,180,170,175,205,177,167],"times":[2322,460,586,787],"next_num":4,"trial_type":"ticket-choose","trial_index":122,"time_elapsed":1134166,"internal_node_id":"0.0-122.0"},{"result":166,"points":3,"place":0,"phase":1,"sequence":38,"prices":[179,186,197,201,166,187,188,193,190,177],"times":[770,509,459,726,826],"next_num":5,"trial_type":"ticket-choose","trial_index":123,"time_elapsed":1139843,"internal_node_id":"0.0-123.0"},{"result":164,"points":1,"place":2,"phase":1,"sequence":39,"prices":[188,191,179,157,181,164,166,156,175,182],"times":[668,503,462,481,547,753],"next_num":6,"trial_type":"ticket-choose","trial_index":124,"time_elapsed":1146339,"internal_node_id":"0.0-124.0"},{"result":168,"points":2,"place":1,"phase":1,"sequence":40,"prices":[174,178,176,192,177,181,168,171,163,182],"times":[830,474,458,479,476,518,785],"next_num":7,"trial_type":"ticket-choose","trial_index":125,"time_elapsed":1153188,"internal_node_id":"0.0-125.0"},{"result":166,"points":3,"place":0,"phase":1,"sequence":41,"prices":[175,180,170,195,179,184,178,174,166,185],"times":[972,506,488,510,498,544,697,869,691],"next_num":9,"trial_type":"ticket-choose","trial_index":126,"time_elapsed":1162302,"internal_node_id":"0.0-126.0"},{"result":170,"points":2,"place":1,"phase":1,"sequence":42,"prices":[175,189,193,170,179,165,180,186,177,184],"times":[670,460,519,1347],"next_num":4,"trial_type":"ticket-choose","trial_index":127,"time_elapsed":1167607,"internal_node_id":"0.0-127.0"},{"result":169,"points":2,"place":1,"phase":1,"sequence":43,"prices":[174,179,169,194,178,183,177,173,165,184],"times":[756,438,754],"next_num":3,"trial_type":"ticket-choose","trial_index":128,"time_elapsed":1171585,"internal_node_id":"0.0-128.0"},{"result":169,"points":2,"place":1,"phase":1,"sequence":44,"prices":[174,179,177,194,178,183,169,173,165,184],"times":[601,476,547,611,477,657,893],"next_num":7,"trial_type":"ticket-choose","trial_index":129,"time_elapsed":1178772,"internal_node_id":"0.0-129.0"},{"result":169,"points":2,"place":1,"phase":1,"sequence":45,"prices":[175,179,177,193,178,182,169,172,164,183],"times":[748,486,457,625,531,528,868],"next_num":7,"trial_type":"ticket-choose","trial_index":130,"time_elapsed":1185908,"internal_node_id":"0.0-130.0"},{"result":168,"points":2,"place":1,"phase":1,"sequence":46,"prices":[174,178,168,192,177,181,176,171,163,182],"times":[908,522,825],"next_num":3,"trial_type":"ticket-choose","trial_index":131,"time_elapsed":1190224,"internal_node_id":"0.0-131.0"},{"result":154,"points":3,"place":0,"phase":1,"sequence":47,"prices":[188,179,154,183,173,170,177,160,169,175],"times":[612,484,712],"next_num":3,"trial_type":"ticket-choose","trial_index":132,"time_elapsed":1194057,"internal_node_id":"0.0-132.0"},{"result":176,"points":1,"place":4,"phase":1,"sequence":48,"prices":[161,180,170,174,178,198,173,182,188,176],"times":[844,494,620,555,478,620,821,516,532,593],"next_num":10,"trial_type":"ticket-choose","trial_index":133,"time_elapsed":1203731,"internal_node_id":"0.0-133.0"},{"result":166,"points":3,"place":0,"phase":1,"sequence":49,"prices":[175,180,170,195,179,184,178,174,166,185],"times":[815,537,1505,561,499,548,530,532,880],"next_num":9,"trial_type":"ticket-choose","trial_index":134,"time_elapsed":1213400,"internal_node_id":"0.0-134.0"},{"responses":[{"value":0,"offby":0,"category":"$140 - $250","category_index":0},{"value":1,"offby":1,"category":"$151 - $160","category_index":1},{"value":4,"offby":0,"category":"$161 - $170","category_index":2},{"value":7,"offby":1,"category":"$171 - $180","category_index":3},{"value":7,"offby":0,"category":"$181 - $190","category_index":4},{"value":1,"offby":-2,"category":"$191 - $200","category_index":5},{"value":0,"offby":0,"category":"$201 - $210","category_index":6}],"phase":1,"number":1,"trial_type":"bar-choose","trial_index":135,"time_elapsed":1242161,"internal_node_id":"0.0-135.0"},{"special_comment":"Notreally.","trial_type":"special_sequence","trial_index":136,"time_elapsed":1248646,"internal_node_id":"0.0-136.0"},{"during":"Nothing","bonus":308,"trial_type":"final","trial_index":137,"time_elapsed":1268688,"internal_node_id":"0.0-137.0"}],"bonus":308}