{"start_time":"2017-02-21 10:48:53","end_time":"2017-02-21 11:11:08","points_phase0":110,"points_phase1":99,"phase_order":0,"age":39,"gender":"m","tries":1,"during":"Nothing","worker_id":"AU2NVT51E749C","assignment_id":"3B3WTRP3DCVI0M1ZHJ0YAOA0HUF29Y","data":[{"rt":103559,"url":"\/tickets\/utils\/consent.html","trial_type":"html","trial_index":0,"time_elapsed":103640,"internal_node_id":"0.0-0.0"},{"age":39,"gender":"m","trial_type":"age","trial_index":1,"time_elapsed":108810,"internal_node_id":"0.0-1.0"},{"worker_id":"AU2NVT51E749C","trial_type":"workerid","trial_index":2,"time_elapsed":113025,"internal_node_id":"0.0-2.0"},{"tries":1,"trial_type":"instructions_check","trial_index":3,"time_elapsed":157757,"internal_node_id":"0.0-3.0"},{"rt":16812,"url":"\/tickets\/utils\/start.html","trial_type":"html","trial_index":4,"time_elapsed":175681,"internal_node_id":"0.0-4.0"},{"trial_type":"number-animation","trial_index":5,"time_elapsed":187906,"internal_node_id":"0.0-5.0"},{"phase":0,"sequence":0,"avg":181,"response":185,"trial_type":"training_avg","trial_index":6,"time_elapsed":198766,"internal_node_id":"0.0-6.0"},{"trial_type":"number-animation","trial_index":7,"time_elapsed":208434,"internal_node_id":"0.0-7.0"},{"phase":0,"sequence":1,"avg":188,"response":187,"trial_type":"training_avg","trial_index":8,"time_elapsed":215755,"internal_node_id":"0.0-8.0"},{"trial_type":"number-animation","trial_index":9,"time_elapsed":224801,"internal_node_id":"0.0-9.0"},{"phase":0,"sequence":2,"avg":188,"response":190,"trial_type":"training_avg","trial_index":10,"time_elapsed":232226,"internal_node_id":"0.0-10.0"},{"trial_type":"number-animation","trial_index":11,"time_elapsed":246841,"internal_node_id":"0.0-11.0"},{"phase":0,"sequence":3,"avg":177,"response":160,"trial_type":"training_avg","trial_index":12,"time_elapsed":251142,"internal_node_id":"0.0-12.0"},{"trial_type":"number-animation","trial_index":13,"time_elapsed":258586,"internal_node_id":"0.0-13.0"},{"phase":0,"sequence":4,"avg":182,"response":188,"trial_type":"training_avg","trial_index":14,"time_elapsed":266880,"internal_node_id":"0.0-14.0"},{"responses":[{"value":0,"offby":0,"category":"$106 - $134","category_index":0},{"value":2,"offby":1,"category":"$135 - $150","category_index":1},{"value":5,"offby":2,"category":"$151 - $165","category_index":2},{"value":5,"offby":-1,"category":"$166 - $180","category_index":3},{"value":5,"offby":-1,"category":"$181 - $195","category_index":4},{"value":2,"offby":-1,"category":"$196 - $210","category_index":5},{"value":1,"offby":0,"category":"$211 - $225","category_index":6}],"phase":0,"number":0,"trial_type":"bar-choose","trial_index":15,"time_elapsed":345187,"internal_node_id":"0.0-15.0"},{"rt":18173,"url":"\/tickets\/\/utils\/testing.html","trial_type":"html","trial_index":16,"time_elapsed":364467,"internal_node_id":"0.0-16.0"},{"phase":0,"order":[18,8,25,20,15,2,41,37,49,38,6,4,45,48,42,12,24,1,32,30,34,39,19,23,35,3,14,13,11,28,31,33,47,5,7,43,17,44,46,27,22,21,16,26,10,40,9,29,36,0],"trial_type":"store_order","trial_index":17,"time_elapsed":365468,"internal_node_id":"0.0-17.0"},{"result":126,"points":3,"place":0,"phase":0,"sequence":-1,"prices":[184,180,224,165,181,199,185,193,218,126],"times":[2576,574,407,415,406,807,471,407,440,582],"next_num":11,"trial_type":"ticket-choose","trial_index":18,"time_elapsed":377912,"internal_node_id":"0.0-18.0"},{"rt":15773,"url":"\/tickets\/utils\/testing_after.html","trial_type":"html","trial_index":19,"time_elapsed":394816,"internal_node_id":"0.0-19.0"},{"result":165,"points":1,"place":2,"phase":0,"sequence":0,"prices":[176,187,158,210,181,187,177,165,208,153],"times":[3122,695,3198,559,617,503,567,1547],"next_num":8,"trial_type":"ticket-choose","trial_index":20,"time_elapsed":410019,"internal_node_id":"0.0-20.0"},{"result":168,"points":1,"place":2,"phase":0,"sequence":1,"prices":[174,186,167,211,181,188,178,168,208,156],"times":[982,471,456,527,520,537,742,1311],"next_num":8,"trial_type":"ticket-choose","trial_index":21,"time_elapsed":419509,"internal_node_id":"0.0-21.0"},{"result":156,"points":3,"place":0,"phase":0,"sequence":2,"prices":[156,201,162,166,185,214,165,202,204,179],"times":[1379],"next_num":1,"trial_type":"ticket-choose","trial_index":22,"time_elapsed":423351,"internal_node_id":"0.0-22.0"},{"result":158,"points":2,"place":1,"phase":0,"sequence":3,"prices":[175,186,177,221,180,187,158,166,209,153],"times":[1429,566,519,495,471,615,1241],"next_num":7,"trial_type":"ticket-choose","trial_index":23,"time_elapsed":432132,"internal_node_id":"0.0-23.0"},{"result":167,"points":2,"place":1,"phase":0,"sequence":4,"prices":[175,187,178,209,179,187,167,169,208,153],"times":[5734,421,384,487,423,431,1055],"next_num":7,"trial_type":"ticket-choose","trial_index":24,"time_elapsed":444559,"internal_node_id":"0.0-24.0"},{"result":166,"points":1,"place":2,"phase":0,"sequence":5,"prices":[174,186,163,212,181,187,176,166,153,209],"times":[971,343,431,336,391,425,486,931],"next_num":8,"trial_type":"ticket-choose","trial_index":25,"time_elapsed":452295,"internal_node_id":"0.0-25.0"},{"result":156,"points":1,"place":2,"phase":0,"sequence":6,"prices":[201,207,155,158,156,165,167,135,178,177],"times":[627,375,352,416,1076],"next_num":5,"trial_type":"ticket-choose","trial_index":26,"time_elapsed":458093,"internal_node_id":"0.0-26.0"},{"result":152,"points":3,"place":0,"phase":0,"sequence":7,"prices":[198,193,169,163,202,182,152,164,177,171],"times":[502,558,943,511,479,383,1053],"next_num":7,"trial_type":"ticket-choose","trial_index":27,"time_elapsed":466197,"internal_node_id":"0.0-27.0"},{"result":148,"points":3,"place":0,"phase":0,"sequence":8,"prices":[183,163,185,180,166,148,160,186,176,184],"times":[748,398,311,264,681,1197],"next_num":6,"trial_type":"ticket-choose","trial_index":28,"time_elapsed":472867,"internal_node_id":"0.0-28.0"},{"result":163,"points":3,"place":0,"phase":0,"sequence":9,"prices":[168,199,196,198,185,195,227,163,177,166],"times":[736,480,496,672,464,543,543,1125],"next_num":8,"trial_type":"ticket-choose","trial_index":29,"time_elapsed":481462,"internal_node_id":"0.0-29.0"},{"result":163,"points":2,"place":1,"phase":0,"sequence":10,"prices":[174,186,176,217,181,187,163,166,153,209],"times":[476,528,607,518,559,518,1434],"next_num":7,"trial_type":"ticket-choose","trial_index":30,"time_elapsed":489379,"internal_node_id":"0.0-30.0"},{"result":163,"points":2,"place":1,"phase":0,"sequence":11,"prices":[176,186,176,210,179,187,163,166,153,208],"times":[335,408,368,462,464,520,1219],"next_num":7,"trial_type":"ticket-choose","trial_index":31,"time_elapsed":496519,"internal_node_id":"0.0-31.0"},{"result":164,"points":3,"place":0,"phase":0,"sequence":12,"prices":[212,192,188,184,167,193,189,164,176,170],"times":[490,415,391,423,1592,377,494,992],"next_num":8,"trial_type":"ticket-choose","trial_index":32,"time_elapsed":505631,"internal_node_id":"0.0-32.0"},{"result":179,"points":1,"place":4,"phase":0,"sequence":13,"prices":[181,215,169,147,182,193,177,184,176,179],"times":[611,399,344,320,504,488,464,608,768,1766],"next_num":11,"trial_type":"ticket-choose","trial_index":33,"time_elapsed":516385,"internal_node_id":"0.0-33.0"},{"result":143,"points":3,"place":0,"phase":0,"sequence":14,"prices":[222,173,202,197,143,205,198,183,178,186],"times":[989,583,532,695,847],"next_num":5,"trial_type":"ticket-choose","trial_index":34,"time_elapsed":522815,"internal_node_id":"0.0-34.0"},{"result":156,"points":3,"place":0,"phase":0,"sequence":15,"prices":[174,186,178,217,181,188,167,168,208,156],"times":[811,389,359,607,599,510,975,751,527,890],"next_num":10,"trial_type":"ticket-choose","trial_index":35,"time_elapsed":534979,"internal_node_id":"0.0-35.0"},{"result":161,"points":3,"place":0,"phase":0,"sequence":16,"prices":[161,193,175,181,185,224,180,199,218,184],"times":[1360],"next_num":1,"trial_type":"ticket-choose","trial_index":36,"time_elapsed":538597,"internal_node_id":"0.0-36.0"},{"result":165,"points":1,"place":2,"phase":0,"sequence":17,"prices":[175,187,163,209,180,188,176,165,154,208],"times":[924,384,384,407,391,424,591,1539],"next_num":8,"trial_type":"ticket-choose","trial_index":37,"time_elapsed":547150,"internal_node_id":"0.0-37.0"},{"result":161,"points":3,"place":0,"phase":0,"sequence":18,"prices":[161,193,167,187,190,224,174,194,195,188],"times":[1282],"next_num":1,"trial_type":"ticket-choose","trial_index":38,"time_elapsed":550454,"internal_node_id":"0.0-38.0"},{"result":157,"points":3,"place":0,"phase":0,"sequence":19,"prices":[157,191,165,175,182,203,170,195,200,176],"times":[859],"next_num":1,"trial_type":"ticket-choose","trial_index":39,"time_elapsed":553133,"internal_node_id":"0.0-39.0"},{"result":148,"points":3,"place":0,"phase":0,"sequence":20,"prices":[181,155,148,161,168,187,172,199,176,194],"times":[598,279,723],"next_num":3,"trial_type":"ticket-choose","trial_index":40,"time_elapsed":557318,"internal_node_id":"0.0-40.0"},{"result":171,"points":1,"place":3,"phase":0,"sequence":21,"prices":[189,167,180,197,165,168,172,213,178,171],"times":[548,649,566,464,615,511,567,519,663,843],"next_num":10,"trial_type":"ticket-choose","trial_index":41,"time_elapsed":567181,"internal_node_id":"0.0-41.0"},{"result":158,"points":2,"place":1,"phase":0,"sequence":22,"prices":[176,185,158,217,180,186,177,166,209,154],"times":[636,519,742],"next_num":3,"trial_type":"ticket-choose","trial_index":42,"time_elapsed":571356,"internal_node_id":"0.0-42.0"},{"result":154,"points":3,"place":0,"phase":0,"sequence":23,"prices":[176,185,177,218,180,186,158,166,209,154],"times":[606,471,464,480,424,456,464,568,480,697],"next_num":10,"trial_type":"ticket-choose","trial_index":43,"time_elapsed":580437,"internal_node_id":"0.0-43.0"},{"result":144,"points":3,"place":0,"phase":0,"sequence":24,"prices":[168,154,172,185,195,144,184,211,177,227],"times":[1432,478,575,471,487,725],"next_num":6,"trial_type":"ticket-choose","trial_index":44,"time_elapsed":587359,"internal_node_id":"0.0-44.0"},{"result":153,"points":3,"place":0,"phase":0,"sequence":25,"prices":[175,186,163,211,179,187,176,165,153,210],"times":[667,503,671,527,559,545,526,965,707],"next_num":9,"trial_type":"ticket-choose","trial_index":45,"time_elapsed":596583,"internal_node_id":"0.0-45.0"},{"result":153,"points":3,"place":0,"phase":0,"sequence":26,"prices":[175,186,178,212,179,187,167,169,209,153],"times":[643,447,487,511,535,615,1016,702,552,608],"next_num":10,"trial_type":"ticket-choose","trial_index":46,"time_elapsed":606869,"internal_node_id":"0.0-46.0"},{"result":156,"points":3,"place":0,"phase":0,"sequence":27,"prices":[175,185,178,215,181,186,167,168,208,156],"times":[805,416,464,576,568,559,649,630,551,733],"next_num":10,"trial_type":"ticket-choose","trial_index":47,"time_elapsed":616483,"internal_node_id":"0.0-47.0"},{"result":153,"points":3,"place":0,"phase":0,"sequence":28,"prices":[175,187,167,212,179,187,178,169,208,153],"times":[637,455,383,383,550,519,551,880,550,857],"next_num":10,"trial_type":"ticket-choose","trial_index":48,"time_elapsed":626515,"internal_node_id":"0.0-48.0"},{"result":185,"points":1,"place":4,"phase":0,"sequence":29,"prices":[169,196,170,184,187,211,171,201,202,185],"times":[766,416,336,568,454,536,543,599,425,834],"next_num":10,"trial_type":"ticket-choose","trial_index":49,"time_elapsed":635771,"internal_node_id":"0.0-49.0"},{"result":148,"points":3,"place":0,"phase":0,"sequence":30,"prices":[148,171,150,163,167,220,162,186,187,165],"times":[907],"next_num":1,"trial_type":"ticket-choose","trial_index":50,"time_elapsed":638400,"internal_node_id":"0.0-50.0"},{"result":159,"points":3,"place":0,"phase":0,"sequence":31,"prices":[159,183,166,168,173,205,167,187,191,170],"times":[837],"next_num":1,"trial_type":"ticket-choose","trial_index":51,"time_elapsed":640977,"internal_node_id":"0.0-51.0"},{"result":154,"points":2,"place":1,"phase":0,"sequence":32,"prices":[200,181,203,152,175,171,160,154,176,191],"times":[1072,399,401,470,359,432,408,1207],"next_num":8,"trial_type":"ticket-choose","trial_index":52,"time_elapsed":648961,"internal_node_id":"0.0-52.0"},{"result":154,"points":3,"place":0,"phase":0,"sequence":33,"prices":[175,187,176,209,180,188,163,165,154,208],"times":[703,431,575,543,511,495,856,405,960],"next_num":9,"trial_type":"ticket-choose","trial_index":53,"time_elapsed":658009,"internal_node_id":"0.0-53.0"},{"result":163,"points":2,"place":1,"phase":0,"sequence":34,"prices":[175,186,176,224,179,187,163,165,153,210],"times":[1259,273,296,328,488,472,961],"next_num":7,"trial_type":"ticket-choose","trial_index":54,"time_elapsed":665202,"internal_node_id":"0.0-54.0"},{"result":157,"points":3,"place":0,"phase":0,"sequence":35,"prices":[201,187,157,184,198,179,188,185,178,170],"times":[639,342,1337],"next_num":3,"trial_type":"ticket-choose","trial_index":55,"time_elapsed":669740,"internal_node_id":"0.0-55.0"},{"result":158,"points":2,"place":1,"phase":0,"sequence":36,"prices":[175,186,158,209,181,188,177,167,208,154],"times":[667,1055,861],"next_num":3,"trial_type":"ticket-choose","trial_index":56,"time_elapsed":674576,"internal_node_id":"0.0-56.0"},{"result":207,"points":0,"place":9,"phase":0,"sequence":37,"prices":[180,159,149,175,185,141,163,174,178,207],"times":[497,312,399,509,294,264,656,408,448,787],"next_num":10,"trial_type":"ticket-choose","trial_index":57,"time_elapsed":683407,"internal_node_id":"0.0-57.0"},{"result":158,"points":3,"place":0,"phase":0,"sequence":38,"prices":[210,184,226,193,215,158,199,175,176,208],"times":[582,527,543,617,510,1149],"next_num":6,"trial_type":"ticket-choose","trial_index":58,"time_elapsed":690307,"internal_node_id":"0.0-58.0"},{"result":186,"points":1,"place":4,"phase":0,"sequence":39,"prices":[168,192,171,178,188,217,172,195,197,186],"times":[588,545,536,647,512,584,479,552,593,731],"next_num":10,"trial_type":"ticket-choose","trial_index":59,"time_elapsed":700066,"internal_node_id":"0.0-59.0"},{"result":158,"points":2,"place":1,"phase":0,"sequence":40,"prices":[176,187,177,225,181,187,158,165,208,153],"times":[871,472,767,495,439,511,1193],"next_num":7,"trial_type":"ticket-choose","trial_index":60,"time_elapsed":707859,"internal_node_id":"0.0-60.0"},{"result":154,"points":3,"place":0,"phase":0,"sequence":41,"prices":[175,186,177,209,181,188,158,167,208,154],"times":[631,405,391,495,495,503,456,624,448,603],"next_num":10,"trial_type":"ticket-choose","trial_index":61,"time_elapsed":716515,"internal_node_id":"0.0-61.0"},{"result":153,"points":3,"place":0,"phase":0,"sequence":42,"prices":[175,186,158,211,180,187,177,166,209,153],"times":[918,270,344,489,367,445,543,567,462,703],"next_num":10,"trial_type":"ticket-choose","trial_index":62,"time_elapsed":726130,"internal_node_id":"0.0-62.0"},{"result":180,"points":1,"place":4,"phase":0,"sequence":43,"prices":[152,200,158,173,182,207,161,202,204,180],"times":[511,392,391,360,344,481,438,512,576,609],"next_num":10,"trial_type":"ticket-choose","trial_index":63,"time_elapsed":734729,"internal_node_id":"0.0-63.0"},{"result":153,"points":3,"place":0,"phase":0,"sequence":44,"prices":[175,186,167,225,179,187,178,169,209,153],"times":[783,559,815,470,527,527,489,1326,591,567],"next_num":10,"trial_type":"ticket-choose","trial_index":64,"time_elapsed":745319,"internal_node_id":"0.0-64.0"},{"result":199,"points":0,"place":8,"phase":0,"sequence":45,"prices":[189,150,175,160,188,207,158,194,178,199],"times":[636,336,440,288,464,392,504,449,909,662],"next_num":10,"trial_type":"ticket-choose","trial_index":65,"time_elapsed":754214,"internal_node_id":"0.0-65.0"},{"result":156,"points":3,"place":0,"phase":0,"sequence":46,"prices":[175,185,167,224,181,186,178,168,208,156],"times":[1002,484,479,511,527,542,623,615,518,747],"next_num":10,"trial_type":"ticket-choose","trial_index":66,"time_elapsed":764148,"internal_node_id":"0.0-66.0"},{"result":168,"points":1,"place":4,"phase":0,"sequence":47,"prices":[150,185,154,161,173,199,155,188,191,168],"times":[588,376,247,632,248,568,383,592,279,1069],"next_num":10,"trial_type":"ticket-choose","trial_index":67,"time_elapsed":773100,"internal_node_id":"0.0-67.0"},{"result":154,"points":3,"place":0,"phase":0,"sequence":48,"prices":[188,200,165,172,198,174,177,154,177,180],"times":[841,590,622,439,447,479,495,1445],"next_num":8,"trial_type":"ticket-choose","trial_index":68,"time_elapsed":781725,"internal_node_id":"0.0-68.0"},{"result":208,"points":0,"place":8,"phase":0,"sequence":49,"prices":[176,186,163,214,179,187,176,166,153,208],"times":[635,712,1439,240,311,400,336,456,416,712],"next_num":11,"trial_type":"ticket-choose","trial_index":69,"time_elapsed":791556,"internal_node_id":"0.0-69.0"},{"responses":[{"value":0,"offby":0,"category":"$106 - $134","category_index":0},{"value":2,"offby":1,"category":"$135 - $150","category_index":1},{"value":4,"offby":1,"category":"$151 - $165","category_index":2},{"value":6,"offby":0,"category":"$166 - $180","category_index":3},{"value":5,"offby":-1,"category":"$181 - $195","category_index":4},{"value":2,"offby":-1,"category":"$196 - $210","category_index":5},{"value":1,"offby":0,"category":"$211 - $225","category_index":6}],"phase":0,"number":1,"trial_type":"bar-choose","trial_index":70,"time_elapsed":832405,"internal_node_id":"0.0-70.0"},{"rt":3286,"url":"\/tickets\/utils\/start2.html","trial_type":"html","trial_index":71,"time_elapsed":836810,"internal_node_id":"0.0-71.0"},{"trial_type":"number-animation","trial_index":72,"time_elapsed":844618,"internal_node_id":"0.0-72.0"},{"phase":1,"sequence":0,"avg":182,"response":168,"trial_type":"training_avg","trial_index":73,"time_elapsed":851249,"internal_node_id":"0.0-73.0"},{"trial_type":"number-animation","trial_index":74,"time_elapsed":858474,"internal_node_id":"0.0-74.0"},{"phase":1,"sequence":1,"avg":188,"response":204,"trial_type":"training_avg","trial_index":75,"time_elapsed":865210,"internal_node_id":"0.0-75.0"},{"trial_type":"number-animation","trial_index":76,"time_elapsed":872490,"internal_node_id":"0.0-76.0"},{"phase":1,"sequence":2,"avg":176,"response":182,"trial_type":"training_avg","trial_index":77,"time_elapsed":878872,"internal_node_id":"0.0-77.0"},{"trial_type":"number-animation","trial_index":78,"time_elapsed":885394,"internal_node_id":"0.0-78.0"},{"phase":1,"sequence":3,"avg":180,"response":180,"trial_type":"training_avg","trial_index":79,"time_elapsed":892107,"internal_node_id":"0.0-79.0"},{"trial_type":"number-animation","trial_index":80,"time_elapsed":899537,"internal_node_id":"0.0-80.0"},{"phase":1,"sequence":4,"avg":174,"response":177,"trial_type":"training_avg","trial_index":81,"time_elapsed":906299,"internal_node_id":"0.0-81.0"},{"responses":[{"value":0,"offby":-1,"category":"$90 - $120","category_index":0},{"value":1,"offby":-2,"category":"$121 - $145","category_index":1},{"value":5,"offby":2,"category":"$146 - $170","category_index":2},{"value":6,"offby":0,"category":"$171 - $195","category_index":3},{"value":6,"offby":2,"category":"$196 - $220","category_index":4},{"value":2,"offby":0,"category":"$221 - $245","category_index":5},{"value":0,"offby":-1,"category":"$246 - $270","category_index":6}],"phase":1,"number":0,"trial_type":"bar-choose","trial_index":82,"time_elapsed":926903,"internal_node_id":"0.0-82.0"},{"rt":18493,"url":"\/tickets\/utils\/testing2.html","trial_type":"html","trial_index":83,"time_elapsed":946510,"internal_node_id":"0.0-83.0"},{"phase":1,"order":[22,4,41,46,35,27,26,13,16,49,1,32,15,2,47,37,28,24,33,45,25,29,5,34,11,17,18,7,23,19,9,43,42,30,36,12,3,8,10,20,48,39,38,6,44,14,0,21,40,31],"trial_type":"store_order","trial_index":84,"time_elapsed":947511,"internal_node_id":"0.0-84.0"},{"result":136,"points":2,"place":1,"phase":1,"sequence":0,"prices":[172,194,174,243,182,193,136,150,237,126],"times":[2698,367,297,485,463,415,689],"next_num":7,"trial_type":"ticket-choose","trial_index":85,"time_elapsed":956424,"internal_node_id":"0.0-85.0"},{"result":146,"points":2,"place":1,"phase":1,"sequence":1,"prices":[172,191,176,272,179,194,146,152,126,235],"times":[1096,237,264,318,456,464,907],"next_num":7,"trial_type":"ticket-choose","trial_index":86,"time_elapsed":963306,"internal_node_id":"0.0-86.0"},{"result":136,"points":1,"place":3,"phase":1,"sequence":2,"prices":[221,234,131,136,132,149,154,90,176,173],"times":[335,214,228,1005],"next_num":4,"trial_type":"ticket-choose","trial_index":87,"time_elapsed":967421,"internal_node_id":"0.0-87.0"},{"result":136,"points":3,"place":0,"phase":1,"sequence":3,"prices":[240,188,273,207,250,136,217,170,171,236],"times":[508,734,439,415,415,654],"next_num":6,"trial_type":"ticket-choose","trial_index":88,"time_elapsed":973842,"internal_node_id":"0.0-88.0"},{"result":129,"points":2,"place":1,"phase":1,"sequence":4,"prices":[155,129,164,189,210,108,187,241,174,275],"times":[688,1002],"next_num":2,"trial_type":"ticket-choose","trial_index":89,"time_elapsed":977338,"internal_node_id":"0.0-89.0"},{"result":192,"points":1,"place":4,"phase":1,"sequence":5,"prices":[157,205,161,175,197,254,165,210,214,192],"times":[1151,294,264,440,440,400,448,503,424,781],"next_num":10,"trial_type":"ticket-choose","trial_index":90,"time_elapsed":986162,"internal_node_id":"0.0-90.0"},{"result":124,"points":3,"place":0,"phase":1,"sequence":6,"prices":[124,220,136,165,185,234,143,225,228,179],"times":[1401],"next_num":1,"trial_type":"ticket-choose","trial_index":91,"time_elapsed":989313,"internal_node_id":"0.0-91.0"},{"result":131,"points":3,"place":0,"phase":1,"sequence":7,"prices":[170,190,176,251,183,192,154,157,236,131],"times":[888,294,320,432,440,344,344,376,480,689],"next_num":10,"trial_type":"ticket-choose","trial_index":92,"time_elapsed":997306,"internal_node_id":"0.0-92.0"},{"result":136,"points":2,"place":1,"phase":1,"sequence":8,"prices":[171,192,136,265,180,194,174,152,239,127],"times":[470,280,683],"next_num":3,"trial_type":"ticket-choose","trial_index":93,"time_elapsed":1000714,"internal_node_id":"0.0-93.0"},{"result":172,"points":1,"place":4,"phase":1,"sequence":9,"prices":[186,146,191,179,152,116,140,201,172,187],"times":[862,415,383,335,375,439,439,575,730],"next_num":9,"trial_type":"ticket-choose","trial_index":94,"time_elapsed":1008866,"internal_node_id":"0.0-94.0"},{"result":150,"points":1,"place":2,"phase":1,"sequence":10,"prices":[169,193,146,237,180,196,172,150,129,236],"times":[551,462,457,470,464,447,592,945],"next_num":8,"trial_type":"ticket-choose","trial_index":95,"time_elapsed":1016482,"internal_node_id":"0.0-95.0"},{"result":196,"points":1,"place":4,"phase":1,"sequence":11,"prices":[143,206,153,194,201,267,168,208,210,196],"times":[432,479,327,415,511,407,335,345,415,767],"next_num":10,"trial_type":"ticket-choose","trial_index":96,"time_elapsed":1024418,"internal_node_id":"0.0-96.0"},{"result":126,"points":3,"place":0,"phase":1,"sequence":12,"prices":[170,193,176,245,178,194,154,159,236,126],"times":[1046,399,576,544,560,464,584,440,504,755],"next_num":10,"trial_type":"ticket-choose","trial_index":97,"time_elapsed":1034082,"internal_node_id":"0.0-97.0"},{"result":146,"points":2,"place":1,"phase":1,"sequence":13,"prices":[168,191,146,252,183,193,172,153,126,238],"times":[624,671,893],"next_num":3,"trial_type":"ticket-choose","trial_index":98,"time_elapsed":1038345,"internal_node_id":"0.0-98.0"},{"result":201,"points":0,"place":7,"phase":1,"sequence":14,"prices":[219,183,227,124,176,161,140,129,171,201],"times":[511,343,471,1080,295,303,455,423,528,819],"next_num":10,"trial_type":"ticket-choose","trial_index":99,"time_elapsed":1047042,"internal_node_id":"0.0-99.0"},{"result":145,"points":2,"place":1,"phase":1,"sequence":15,"prices":[216,206,158,145,224,185,124,149,175,162],"times":[703,440,528,813],"next_num":4,"trial_type":"ticket-choose","trial_index":100,"time_elapsed":1051818,"internal_node_id":"0.0-100.0"},{"result":189,"points":1,"place":4,"phase":1,"sequence":16,"prices":[157,213,159,187,194,242,161,222,225,189],"times":[529,229,392,471,551,487,631,495,479,1007],"next_num":11,"trial_type":"ticket-choose","trial_index":101,"time_elapsed":1060762,"internal_node_id":"0.0-101.0"},{"result":142,"points":3,"place":0,"phase":1,"sequence":17,"prices":[142,207,171,182,190,269,180,218,256,188],"times":[3567],"next_num":1,"trial_type":"ticket-choose","trial_index":102,"time_elapsed":1065946,"internal_node_id":"0.0-102.0"},{"result":137,"points":3,"place":0,"phase":1,"sequence":18,"prices":[137,187,152,156,166,231,155,194,202,160],"times":[691],"next_num":1,"trial_type":"ticket-choose","trial_index":103,"time_elapsed":1068217,"internal_node_id":"0.0-103.0"},{"result":154,"points":2,"place":1,"phase":1,"sequence":19,"prices":[244,203,196,189,154,206,197,149,171,159],"times":[784,440,527,462,689],"next_num":5,"trial_type":"ticket-choose","trial_index":104,"time_elapsed":1073601,"internal_node_id":"0.0-104.0"},{"result":132,"points":3,"place":0,"phase":1,"sequence":20,"prices":[132,222,144,153,190,248,151,224,228,179],"times":[833],"next_num":1,"trial_type":"ticket-choose","trial_index":105,"time_elapsed":1075985,"internal_node_id":"0.0-105.0"},{"result":121,"points":3,"place":0,"phase":1,"sequence":21,"prices":[121,191,128,141,166,217,129,196,202,157],"times":[938],"next_num":1,"trial_type":"ticket-choose","trial_index":106,"time_elapsed":1078489,"internal_node_id":"0.0-106.0"},{"result":146,"points":2,"place":1,"phase":1,"sequence":22,"prices":[171,195,172,242,179,196,146,150,128,235],"times":[663,407,432,592,392,520,1009],"next_num":7,"trial_type":"ticket-choose","trial_index":107,"time_elapsed":1085426,"internal_node_id":"0.0-107.0"},{"result":142,"points":1,"place":2,"phase":1,"sequence":23,"prices":[181,130,116,142,157,193,165,218,173,207],"times":[718,351,311,1167],"next_num":4,"trial_type":"ticket-choose","trial_index":108,"time_elapsed":1091136,"internal_node_id":"0.0-108.0"},{"result":127,"points":3,"place":0,"phase":1,"sequence":24,"prices":[169,194,154,271,178,201,176,158,236,127],"times":[575,503,735,512,497,542,464,488,424,931],"next_num":10,"trial_type":"ticket-choose","trial_index":109,"time_elapsed":1100553,"internal_node_id":"0.0-109.0"},{"result":128,"points":3,"place":0,"phase":1,"sequence":25,"prices":[171,192,136,243,182,195,174,154,236,128],"times":[527,431,448,365,399,582,457,622,463,693],"next_num":10,"trial_type":"ticket-choose","trial_index":110,"time_elapsed":1109240,"internal_node_id":"0.0-110.0"},{"result":127,"points":3,"place":0,"phase":1,"sequence":26,"prices":[173,194,136,239,182,200,174,150,236,127],"times":[1608,425,392,409,295,256,256,248,393,741],"next_num":10,"trial_type":"ticket-choose","trial_index":111,"time_elapsed":1117961,"internal_node_id":"0.0-111.0"},{"result":146,"points":2,"place":1,"phase":1,"sequence":27,"prices":[171,191,172,268,179,194,146,150,127,239],"times":[631,486,647,487,559,631,757],"next_num":7,"trial_type":"ticket-choose","trial_index":112,"time_elapsed":1125080,"internal_node_id":"0.0-112.0"},{"result":136,"points":2,"place":1,"phase":1,"sequence":28,"prices":[173,191,174,270,180,193,136,153,239,129],"times":[351,367,455,463,551,568,722],"next_num":7,"trial_type":"ticket-choose","trial_index":113,"time_elapsed":1131474,"internal_node_id":"0.0-113.0"},{"result":129,"points":3,"place":0,"phase":1,"sequence":29,"prices":[172,190,136,270,179,192,174,152,237,129],"times":[479,311,295,400,288,344,424,1025,309,895],"next_num":10,"trial_type":"ticket-choose","trial_index":114,"time_elapsed":1139994,"internal_node_id":"0.0-114.0"},{"result":133,"points":3,"place":0,"phase":1,"sequence":30,"prices":[169,191,154,268,183,197,176,155,236,133],"times":[1390,351,295,495,423,463,463,431,376,702],"next_num":10,"trial_type":"ticket-choose","trial_index":115,"time_elapsed":1148938,"internal_node_id":"0.0-115.0"},{"result":159,"points":2,"place":1,"phase":1,"sequence":31,"prices":[221,193,135,188,217,179,196,190,175,159],"times":[391,224,248,368,632,272,304,352,351,679],"next_num":10,"trial_type":"ticket-choose","trial_index":116,"time_elapsed":1156338,"internal_node_id":"0.0-116.0"},{"result":193,"points":1,"place":4,"phase":1,"sequence":32,"prices":[263,165,224,214,105,230,215,185,177,193],"times":[343,270,481,382,455,311,231,335,359,867],"next_num":10,"trial_type":"ticket-choose","trial_index":117,"time_elapsed":1164001,"internal_node_id":"0.0-117.0"},{"result":135,"points":3,"place":0,"phase":1,"sequence":33,"prices":[135,202,150,169,183,225,160,211,220,172],"times":[1136],"next_num":1,"trial_type":"ticket-choose","trial_index":118,"time_elapsed":1166722,"internal_node_id":"0.0-118.0"},{"result":181,"points":0,"place":6,"phase":1,"sequence":34,"prices":[196,221,149,164,216,167,175,128,176,181],"times":[551,465,510,536,510,456,512,455,455,648],"next_num":11,"trial_type":"ticket-choose","trial_index":119,"time_elapsed":1175762,"internal_node_id":"0.0-119.0"},{"result":154,"points":2,"place":1,"phase":1,"sequence":35,"prices":[168,192,176,242,183,197,154,156,237,132],"times":[518,511,479,505,588,526,962],"next_num":7,"trial_type":"ticket-choose","trial_index":120,"time_elapsed":1182818,"internal_node_id":"0.0-120.0"},{"result":149,"points":1,"place":2,"phase":1,"sequence":36,"prices":[170,193,146,268,178,195,172,149,126,241],"times":[495,328,416,320,272,399,368,897],"next_num":8,"trial_type":"ticket-choose","trial_index":121,"time_elapsed":1189401,"internal_node_id":"0.0-121.0"},{"result":133,"points":3,"place":0,"phase":1,"sequence":37,"prices":[168,192,154,237,182,196,176,156,235,133],"times":[464,238,422,476,543,431,511,463,526,921],"next_num":10,"trial_type":"ticket-choose","trial_index":122,"time_elapsed":1198113,"internal_node_id":"0.0-122.0"},{"result":126,"points":3,"place":0,"phase":1,"sequence":38,"prices":[169,193,154,255,178,194,176,158,239,126],"times":[583,416,345,406,280,544,464,487,464,794],"next_num":10,"trial_type":"ticket-choose","trial_index":123,"time_elapsed":1206393,"internal_node_id":"0.0-123.0"},{"result":126,"points":3,"place":0,"phase":1,"sequence":39,"prices":[169,192,174,246,180,195,136,152,238,126],"times":[412,591,527,391,487,928,287,351,375,705],"next_num":10,"trial_type":"ticket-choose","trial_index":124,"time_elapsed":1215072,"internal_node_id":"0.0-124.0"},{"result":178,"points":1,"place":4,"phase":1,"sequence":40,"prices":[182,249,159,114,184,205,175,189,172,178],"times":[470,407,417,408,336,584,492,319,272,699],"next_num":10,"trial_type":"ticket-choose","trial_index":125,"time_elapsed":1223073,"internal_node_id":"0.0-125.0"},{"result":162,"points":1,"place":3,"phase":1,"sequence":41,"prices":[197,153,181,215,150,155,164,247,177,162],"times":[607,504,487,496,455,463,543,511,551,527],"next_num":11,"trial_type":"ticket-choose","trial_index":126,"time_elapsed":1231872,"internal_node_id":"0.0-126.0"},{"result":152,"points":2,"place":1,"phase":1,"sequence":42,"prices":[156,218,212,216,191,210,275,146,174,152],"times":[464,381,535,865,528,488,440,567,568,676],"next_num":10,"trial_type":"ticket-choose","trial_index":127,"time_elapsed":1240977,"internal_node_id":"0.0-127.0"},{"result":238,"points":0,"place":8,"phase":1,"sequence":43,"prices":[168,191,172,240,183,193,146,151,125,238],"times":[469,376,521,502,511,463,470,392,391,736],"next_num":11,"trial_type":"ticket-choose","trial_index":128,"time_elapsed":1249378,"internal_node_id":"0.0-128.0"},{"result":118,"points":2,"place":1,"phase":1,"sequence":44,"prices":[181,138,118,170,190,101,146,169,175,233],"times":[622,391,821],"next_num":3,"trial_type":"ticket-choose","trial_index":129,"time_elapsed":1253226,"internal_node_id":"0.0-129.0"},{"result":125,"points":3,"place":0,"phase":1,"sequence":45,"prices":[169,192,176,244,178,194,154,159,237,125],"times":[745,486,440,464,424,480,448,480,423,520],"next_num":11,"trial_type":"ticket-choose","trial_index":130,"time_elapsed":1261698,"internal_node_id":"0.0-130.0"},{"result":152,"points":1,"place":2,"phase":1,"sequence":46,"prices":[173,191,146,242,178,194,172,152,126,235],"times":[548,430,374,481,382,503,415,834],"next_num":8,"trial_type":"ticket-choose","trial_index":131,"time_elapsed":1268857,"internal_node_id":"0.0-131.0"},{"result":136,"points":2,"place":1,"phase":1,"sequence":47,"prices":[170,192,174,242,181,196,136,153,236,128],"times":[524,408,336,536,512,432,809],"next_num":7,"trial_type":"ticket-choose","trial_index":132,"time_elapsed":1275291,"internal_node_id":"0.0-132.0"},{"result":217,"points":0,"place":8,"phase":1,"sequence":48,"prices":[198,119,169,141,195,233,136,208,177,217],"times":[427,240,448,216,447,232,327,303,415,855],"next_num":11,"trial_type":"ticket-choose","trial_index":133,"time_elapsed":1283073,"internal_node_id":"0.0-133.0"},{"result":117,"points":3,"place":0,"phase":1,"sequence":49,"prices":[117,161,120,147,153,259,144,191,195,149],"times":[1140],"next_num":1,"trial_type":"ticket-choose","trial_index":134,"time_elapsed":1285939,"internal_node_id":"0.0-134.0"},{"responses":[{"value":1,"offby":0,"category":"$90 - $120","category_index":0},{"value":2,"offby":-1,"category":"$121 - $145","category_index":1},{"value":5,"offby":2,"category":"$146 - $170","category_index":2},{"value":6,"offby":0,"category":"$171 - $195","category_index":3},{"value":4,"offby":0,"category":"$196 - $220","category_index":4},{"value":2,"offby":0,"category":"$221 - $245","category_index":5},{"value":0,"offby":-1,"category":"$246 - $270","category_index":6}],"phase":1,"number":1,"trial_type":"bar-choose","trial_index":135,"time_elapsed":1307416,"internal_node_id":"0.0-135.0"},{"special_comment":"Nope!","trial_type":"special_sequence","trial_index":136,"time_elapsed":1314380,"internal_node_id":"0.0-136.0"},{"during":"Nothing","bonus":280,"trial_type":"final","trial_index":137,"time_elapsed":1333166,"internal_node_id":"0.0-137.0"}],"bonus":280}