{"start_time":"2017-02-21 11:49:18","end_time":"2017-02-21 12:14:03","points_phase0":110,"points_phase1":106,"phase_order":1,"age":27,"gender":"m","tries":1,"during":"Nothing","worker_id":"AUQR7TGWV00V7","assignment_id":"3Q5C1WP23NUSAEHRVPN3TPVT3SI51T","data":[{"rt":6690,"url":"\/tickets\/utils\/consent.html","trial_type":"html","trial_index":0,"time_elapsed":6748,"internal_node_id":"0.0-0.0"},{"age":27,"gender":"m","trial_type":"age","trial_index":1,"time_elapsed":18635,"internal_node_id":"0.0-1.0"},{"worker_id":"AUQR7TGWV00V7","trial_type":"workerid","trial_index":2,"time_elapsed":157651,"internal_node_id":"0.0-2.0"},{"tries":1,"trial_type":"instructions_check","trial_index":3,"time_elapsed":190123,"internal_node_id":"0.0-3.0"},{"rt":2298,"url":"\/tickets\/utils\/start.html","trial_type":"html","trial_index":4,"time_elapsed":193512,"internal_node_id":"0.0-4.0"},{"trial_type":"number-animation","trial_index":5,"time_elapsed":208599,"internal_node_id":"0.0-5.0"},{"phase":0,"sequence":0,"avg":182,"response":175,"trial_type":"training_avg","trial_index":6,"time_elapsed":217988,"internal_node_id":"0.0-6.0"},{"trial_type":"number-animation","trial_index":7,"time_elapsed":231734,"internal_node_id":"0.0-7.0"},{"phase":0,"sequence":1,"avg":188,"response":185,"trial_type":"training_avg","trial_index":8,"time_elapsed":243011,"internal_node_id":"0.0-8.0"},{"trial_type":"number-animation","trial_index":9,"time_elapsed":252967,"internal_node_id":"0.0-9.0"},{"phase":0,"sequence":2,"avg":176,"response":180,"trial_type":"training_avg","trial_index":10,"time_elapsed":263734,"internal_node_id":"0.0-10.0"},{"trial_type":"number-animation","trial_index":11,"time_elapsed":286379,"internal_node_id":"0.0-11.0"},{"phase":0,"sequence":3,"avg":180,"response":180,"trial_type":"training_avg","trial_index":12,"time_elapsed":299607,"internal_node_id":"0.0-12.0"},{"trial_type":"number-animation","trial_index":13,"time_elapsed":310539,"internal_node_id":"0.0-13.0"},{"phase":0,"sequence":4,"avg":174,"response":175,"trial_type":"training_avg","trial_index":14,"time_elapsed":320275,"internal_node_id":"0.0-14.0"},{"responses":[{"value":2,"offby":1,"category":"$90 - $120","category_index":0},{"value":2,"offby":-1,"category":"$121 - $145","category_index":1},{"value":5,"offby":2,"category":"$146 - $170","category_index":2},{"value":4,"offby":-2,"category":"$171 - $195","category_index":3},{"value":3,"offby":-1,"category":"$196 - $220","category_index":4},{"value":2,"offby":0,"category":"$221 - $245","category_index":5},{"value":2,"offby":1,"category":"$246 - $270","category_index":6}],"phase":0,"number":0,"trial_type":"bar-choose","trial_index":15,"time_elapsed":367867,"internal_node_id":"0.0-15.0"},{"rt":3161,"url":"\/tickets\/\/utils\/testing.html","trial_type":"html","trial_index":16,"time_elapsed":372122,"internal_node_id":"0.0-16.0"},{"phase":0,"order":[30,42,1,23,14,41,21,16,49,10,44,28,36,43,0,4,13,11,26,24,9,2,34,3,6,47,5,27,45,38,37,18,48,25,20,12,33,32,15,35,31,39,40,19,29,17,46,22,8,7],"trial_type":"store_order","trial_index":17,"time_elapsed":373125,"internal_node_id":"0.0-17.0"},{"result":165,"points":2,"place":1,"phase":0,"sequence":-1,"prices":[184,180,224,165,181,199,185,193,218,126],"times":[3212,1498,1048,1373],"next_num":4,"trial_type":"ticket-choose","trial_index":18,"time_elapsed":388581,"internal_node_id":"0.0-18.0"},{"rt":1663,"url":"\/tickets\/utils\/testing_after.html","trial_type":"html","trial_index":19,"time_elapsed":391336,"internal_node_id":"0.0-19.0"},{"result":136,"points":2,"place":1,"phase":0,"sequence":0,"prices":[171,192,136,265,180,194,174,152,239,127],"times":[3455,1412,2171],"next_num":3,"trial_type":"ticket-choose","trial_index":20,"time_elapsed":402619,"internal_node_id":"0.0-20.0"},{"result":154,"points":2,"place":1,"phase":0,"sequence":1,"prices":[169,193,154,255,178,194,176,158,239,126],"times":[1809,2038,2384],"next_num":3,"trial_type":"ticket-choose","trial_index":21,"time_elapsed":414611,"internal_node_id":"0.0-21.0"},{"result":135,"points":3,"place":0,"phase":0,"sequence":2,"prices":[221,193,135,188,217,179,196,190,175,159],"times":[2134,1405,1822],"next_num":3,"trial_type":"ticket-choose","trial_index":22,"time_elapsed":424379,"internal_node_id":"0.0-22.0"},{"result":136,"points":2,"place":1,"phase":0,"sequence":3,"prices":[169,192,174,246,180,195,136,152,238,126],"times":[1182,1253,925,1013,929,901,1733],"next_num":7,"trial_type":"ticket-choose","trial_index":23,"time_elapsed":436074,"internal_node_id":"0.0-23.0"},{"result":117,"points":3,"place":0,"phase":0,"sequence":4,"prices":[117,161,120,147,153,259,144,191,195,149],"times":[1963],"next_num":1,"trial_type":"ticket-choose","trial_index":24,"time_elapsed":441429,"internal_node_id":"0.0-24.0"},{"result":158,"points":1,"place":3,"phase":0,"sequence":5,"prices":[216,206,158,145,224,185,124,149,175,162],"times":[2064,797,2186],"next_num":3,"trial_type":"ticket-choose","trial_index":25,"time_elapsed":449304,"internal_node_id":"0.0-25.0"},{"result":152,"points":1,"place":3,"phase":0,"sequence":6,"prices":[186,146,191,179,152,116,140,201,172,187],"times":[1268,1005,870,1096,1338],"next_num":5,"trial_type":"ticket-choose","trial_index":26,"time_elapsed":458035,"internal_node_id":"0.0-26.0"},{"result":136,"points":2,"place":1,"phase":0,"sequence":7,"prices":[170,192,174,242,181,196,136,153,236,128],"times":[938,1594,892,920,1207,1231,1082],"next_num":7,"trial_type":"ticket-choose","trial_index":27,"time_elapsed":470859,"internal_node_id":"0.0-27.0"},{"result":146,"points":2,"place":1,"phase":0,"sequence":8,"prices":[173,191,146,242,178,194,172,152,126,235],"times":[2250,990,1054],"next_num":3,"trial_type":"ticket-choose","trial_index":28,"time_elapsed":478924,"internal_node_id":"0.0-28.0"},{"result":124,"points":3,"place":0,"phase":0,"sequence":9,"prices":[124,220,136,165,185,234,143,225,228,179],"times":[1837],"next_num":1,"trial_type":"ticket-choose","trial_index":29,"time_elapsed":485799,"internal_node_id":"0.0-29.0"},{"result":146,"points":2,"place":1,"phase":0,"sequence":10,"prices":[168,191,172,240,183,193,146,151,125,238],"times":[1819,2378,1032,1031,1186,1701,1284],"next_num":7,"trial_type":"ticket-choose","trial_index":30,"time_elapsed":500209,"internal_node_id":"0.0-30.0"},{"result":132,"points":3,"place":0,"phase":0,"sequence":11,"prices":[132,222,144,153,190,248,151,224,228,179],"times":[4451],"next_num":1,"trial_type":"ticket-choose","trial_index":31,"time_elapsed":510089,"internal_node_id":"0.0-31.0"},{"result":154,"points":2,"place":1,"phase":0,"sequence":12,"prices":[168,192,154,237,182,196,176,156,235,133],"times":[1637,1594,1344],"next_num":3,"trial_type":"ticket-choose","trial_index":32,"time_elapsed":518394,"internal_node_id":"0.0-32.0"},{"result":157,"points":3,"place":0,"phase":0,"sequence":13,"prices":[157,205,161,175,197,254,165,210,214,192],"times":[1894],"next_num":1,"trial_type":"ticket-choose","trial_index":33,"time_elapsed":523201,"internal_node_id":"0.0-33.0"},{"result":119,"points":3,"place":0,"phase":0,"sequence":14,"prices":[198,119,169,141,195,233,136,208,177,217],"times":[1193,1855],"next_num":2,"trial_type":"ticket-choose","trial_index":34,"time_elapsed":529120,"internal_node_id":"0.0-34.0"},{"result":136,"points":2,"place":1,"phase":0,"sequence":15,"prices":[173,194,136,239,182,200,174,150,236,127],"times":[1444,1117,1072],"next_num":3,"trial_type":"ticket-choose","trial_index":35,"time_elapsed":535499,"internal_node_id":"0.0-35.0"},{"result":146,"points":2,"place":1,"phase":0,"sequence":16,"prices":[169,193,146,237,180,196,172,150,129,236],"times":[1101,1284,1543],"next_num":3,"trial_type":"ticket-choose","trial_index":36,"time_elapsed":542818,"internal_node_id":"0.0-36.0"},{"result":136,"points":2,"place":1,"phase":0,"sequence":17,"prices":[172,190,136,270,179,192,174,152,237,129],"times":[5139,1220,2891],"next_num":3,"trial_type":"ticket-choose","trial_index":37,"time_elapsed":558672,"internal_node_id":"0.0-37.0"},{"result":156,"points":1,"place":2,"phase":0,"sequence":18,"prices":[156,218,212,216,191,210,275,146,174,152],"times":[1997],"next_num":1,"trial_type":"ticket-choose","trial_index":38,"time_elapsed":563937,"internal_node_id":"0.0-38.0"},{"result":146,"points":2,"place":1,"phase":0,"sequence":19,"prices":[170,193,146,268,178,195,172,149,126,241],"times":[1325,1357,1798],"next_num":3,"trial_type":"ticket-choose","trial_index":39,"time_elapsed":571236,"internal_node_id":"0.0-39.0"},{"result":154,"points":2,"place":1,"phase":0,"sequence":20,"prices":[169,191,154,268,183,197,176,155,236,133],"times":[1231,2262,1915],"next_num":3,"trial_type":"ticket-choose","trial_index":40,"time_elapsed":580353,"internal_node_id":"0.0-40.0"},{"result":146,"points":2,"place":1,"phase":0,"sequence":21,"prices":[168,191,146,252,183,193,172,153,126,238],"times":[1329,965,1728],"next_num":3,"trial_type":"ticket-choose","trial_index":41,"time_elapsed":591108,"internal_node_id":"0.0-41.0"},{"result":136,"points":2,"place":1,"phase":0,"sequence":22,"prices":[171,192,136,243,182,195,174,154,236,128],"times":[4639,1192,1384],"next_num":3,"trial_type":"ticket-choose","trial_index":42,"time_elapsed":601332,"internal_node_id":"0.0-42.0"},{"result":137,"points":3,"place":0,"phase":0,"sequence":23,"prices":[137,187,152,156,166,231,155,194,202,160],"times":[1974],"next_num":1,"trial_type":"ticket-choose","trial_index":43,"time_elapsed":606356,"internal_node_id":"0.0-43.0"},{"result":153,"points":2,"place":1,"phase":0,"sequence":24,"prices":[197,153,181,215,150,155,164,247,177,162],"times":[1400,1837],"next_num":2,"trial_type":"ticket-choose","trial_index":44,"time_elapsed":613169,"internal_node_id":"0.0-44.0"},{"result":154,"points":2,"place":1,"phase":0,"sequence":25,"prices":[170,193,176,245,178,194,154,159,236,126],"times":[2516,1352,940,989,981,964,1662],"next_num":7,"trial_type":"ticket-choose","trial_index":45,"time_elapsed":626603,"internal_node_id":"0.0-45.0"},{"result":146,"points":2,"place":1,"phase":0,"sequence":26,"prices":[171,195,172,242,179,196,146,150,128,235],"times":[1262,1024,1395,919,1000,1029,1206],"next_num":7,"trial_type":"ticket-choose","trial_index":46,"time_elapsed":638115,"internal_node_id":"0.0-46.0"},{"result":159,"points":2,"place":1,"phase":0,"sequence":27,"prices":[157,213,159,187,194,242,161,222,225,189],"times":[1055,991,1128],"next_num":3,"trial_type":"ticket-choose","trial_index":47,"time_elapsed":645440,"internal_node_id":"0.0-47.0"},{"result":136,"points":2,"place":1,"phase":0,"sequence":28,"prices":[173,191,174,270,180,193,136,153,239,129],"times":[851,951,990,966,1027,1248,1186],"next_num":7,"trial_type":"ticket-choose","trial_index":48,"time_elapsed":656386,"internal_node_id":"0.0-48.0"},{"result":135,"points":3,"place":0,"phase":0,"sequence":29,"prices":[135,202,150,169,183,225,160,211,220,172],"times":[2881],"next_num":1,"trial_type":"ticket-choose","trial_index":49,"time_elapsed":662124,"internal_node_id":"0.0-49.0"},{"result":154,"points":2,"place":1,"phase":0,"sequence":30,"prices":[169,194,154,271,178,201,176,158,236,127],"times":[1591,1416,1013],"next_num":3,"trial_type":"ticket-choose","trial_index":50,"time_elapsed":669573,"internal_node_id":"0.0-50.0"},{"result":143,"points":3,"place":0,"phase":0,"sequence":31,"prices":[143,206,153,194,201,267,168,208,210,196],"times":[1129],"next_num":1,"trial_type":"ticket-choose","trial_index":51,"time_elapsed":674873,"internal_node_id":"0.0-51.0"},{"result":154,"points":2,"place":1,"phase":0,"sequence":32,"prices":[170,190,176,251,183,192,154,157,236,131],"times":[1286,1121,1107,1155,1927,1037,1691],"next_num":7,"trial_type":"ticket-choose","trial_index":52,"time_elapsed":687846,"internal_node_id":"0.0-52.0"},{"result":136,"points":2,"place":1,"phase":0,"sequence":33,"prices":[172,194,174,243,182,193,136,150,237,126],"times":[1344,1116,999,1245,1158,1026,1065],"next_num":7,"trial_type":"ticket-choose","trial_index":53,"time_elapsed":699584,"internal_node_id":"0.0-53.0"},{"result":124,"points":3,"place":0,"phase":0,"sequence":34,"prices":[219,183,227,124,176,161,140,129,171,201],"times":[988,1117,1054,1247],"next_num":4,"trial_type":"ticket-choose","trial_index":54,"time_elapsed":707348,"internal_node_id":"0.0-54.0"},{"result":114,"points":3,"place":0,"phase":0,"sequence":35,"prices":[182,249,159,114,184,205,175,189,172,178],"times":[3093,1038,1652,1300],"next_num":4,"trial_type":"ticket-choose","trial_index":55,"time_elapsed":717722,"internal_node_id":"0.0-55.0"},{"result":154,"points":2,"place":1,"phase":0,"sequence":36,"prices":[169,192,176,244,178,194,154,159,237,125],"times":[3708,1215,1264,932,1097,1146,1371],"next_num":7,"trial_type":"ticket-choose","trial_index":56,"time_elapsed":732203,"internal_node_id":"0.0-56.0"},{"result":138,"points":1,"place":2,"phase":0,"sequence":37,"prices":[181,138,118,170,190,101,146,169,175,233],"times":[1152,1125],"next_num":2,"trial_type":"ticket-choose","trial_index":57,"time_elapsed":737697,"internal_node_id":"0.0-57.0"},{"result":121,"points":3,"place":0,"phase":0,"sequence":38,"prices":[121,191,128,141,166,217,129,196,202,157],"times":[1281],"next_num":1,"trial_type":"ticket-choose","trial_index":58,"time_elapsed":741146,"internal_node_id":"0.0-58.0"},{"result":136,"points":3,"place":0,"phase":0,"sequence":39,"prices":[240,188,273,207,250,136,217,170,171,236],"times":[2287,1130,1159,1068,1374,1781],"next_num":6,"trial_type":"ticket-choose","trial_index":59,"time_elapsed":753931,"internal_node_id":"0.0-59.0"},{"result":155,"points":1,"place":2,"phase":0,"sequence":40,"prices":[155,129,164,189,210,108,187,241,174,275],"times":[1534],"next_num":1,"trial_type":"ticket-choose","trial_index":60,"time_elapsed":758516,"internal_node_id":"0.0-60.0"},{"result":154,"points":2,"place":1,"phase":0,"sequence":41,"prices":[168,192,176,242,183,197,154,156,237,132],"times":[1802,1651,1177,878,2455,1070,1198],"next_num":7,"trial_type":"ticket-choose","trial_index":61,"time_elapsed":774028,"internal_node_id":"0.0-61.0"},{"result":165,"points":2,"place":1,"phase":0,"sequence":42,"prices":[263,165,224,214,105,230,215,185,177,193],"times":[1330,1700],"next_num":2,"trial_type":"ticket-choose","trial_index":62,"time_elapsed":780826,"internal_node_id":"0.0-62.0"},{"result":131,"points":2,"place":1,"phase":0,"sequence":43,"prices":[221,234,131,136,132,149,154,90,176,173],"times":[2434,1222,1331],"next_num":3,"trial_type":"ticket-choose","trial_index":63,"time_elapsed":789150,"internal_node_id":"0.0-63.0"},{"result":146,"points":2,"place":1,"phase":0,"sequence":44,"prices":[171,191,172,268,179,194,146,150,127,239],"times":[1175,872,1497,921,1389,1088,1148],"next_num":7,"trial_type":"ticket-choose","trial_index":64,"time_elapsed":801180,"internal_node_id":"0.0-64.0"},{"result":130,"points":2,"place":1,"phase":0,"sequence":45,"prices":[181,130,116,142,157,193,165,218,173,207],"times":[2361,1461],"next_num":2,"trial_type":"ticket-choose","trial_index":65,"time_elapsed":807636,"internal_node_id":"0.0-65.0"},{"result":146,"points":2,"place":1,"phase":0,"sequence":46,"prices":[172,191,176,272,179,194,146,152,126,235],"times":[1601,3719,1149,1072,954,1550,1601],"next_num":7,"trial_type":"ticket-choose","trial_index":66,"time_elapsed":824130,"internal_node_id":"0.0-66.0"},{"result":154,"points":2,"place":1,"phase":0,"sequence":47,"prices":[244,203,196,189,154,206,197,149,171,159],"times":[1276,1166,1028,1214,1617],"next_num":5,"trial_type":"ticket-choose","trial_index":67,"time_elapsed":833729,"internal_node_id":"0.0-67.0"},{"result":128,"points":3,"place":0,"phase":0,"sequence":48,"prices":[196,221,149,164,216,167,175,128,176,181],"times":[1135,1198,1071,949,1584,1476,956,1492],"next_num":8,"trial_type":"ticket-choose","trial_index":68,"time_elapsed":847402,"internal_node_id":"0.0-68.0"},{"result":142,"points":3,"place":0,"phase":0,"sequence":49,"prices":[142,207,171,182,190,269,180,218,256,188],"times":[1389],"next_num":1,"trial_type":"ticket-choose","trial_index":69,"time_elapsed":851447,"internal_node_id":"0.0-69.0"},{"responses":[{"value":1,"offby":0,"category":"$90 - $120","category_index":0},{"value":3,"offby":0,"category":"$121 - $145","category_index":1},{"value":5,"offby":2,"category":"$146 - $170","category_index":2},{"value":5,"offby":-1,"category":"$171 - $195","category_index":3},{"value":4,"offby":0,"category":"$196 - $220","category_index":4},{"value":2,"offby":0,"category":"$221 - $245","category_index":5},{"value":0,"offby":-1,"category":"$246 - $270","category_index":6}],"phase":0,"number":1,"trial_type":"bar-choose","trial_index":70,"time_elapsed":873192,"internal_node_id":"0.0-70.0"},{"rt":2343,"url":"\/tickets\/utils\/start2.html","trial_type":"html","trial_index":71,"time_elapsed":876631,"internal_node_id":"0.0-71.0"},{"trial_type":"number-animation","trial_index":72,"time_elapsed":888306,"internal_node_id":"0.0-72.0"},{"phase":1,"sequence":0,"avg":181,"response":170,"trial_type":"training_avg","trial_index":73,"time_elapsed":895937,"internal_node_id":"0.0-73.0"},{"trial_type":"number-animation","trial_index":74,"time_elapsed":905770,"internal_node_id":"0.0-74.0"},{"phase":1,"sequence":1,"avg":188,"response":187,"trial_type":"training_avg","trial_index":75,"time_elapsed":913326,"internal_node_id":"0.0-75.0"},{"trial_type":"number-animation","trial_index":76,"time_elapsed":923131,"internal_node_id":"0.0-76.0"},{"phase":1,"sequence":2,"avg":188,"response":192,"trial_type":"training_avg","trial_index":77,"time_elapsed":931356,"internal_node_id":"0.0-77.0"},{"trial_type":"number-animation","trial_index":78,"time_elapsed":941212,"internal_node_id":"0.0-78.0"},{"phase":1,"sequence":3,"avg":177,"response":180,"trial_type":"training_avg","trial_index":79,"time_elapsed":949274,"internal_node_id":"0.0-79.0"},{"trial_type":"number-animation","trial_index":80,"time_elapsed":959353,"internal_node_id":"0.0-80.0"},{"phase":1,"sequence":4,"avg":182,"response":177,"trial_type":"training_avg","trial_index":81,"time_elapsed":967851,"internal_node_id":"0.0-81.0"},{"responses":[{"value":1,"offby":1,"category":"$106 - $134","category_index":0},{"value":3,"offby":2,"category":"$135 - $150","category_index":1},{"value":5,"offby":2,"category":"$151 - $165","category_index":2},{"value":5,"offby":-1,"category":"$166 - $180","category_index":3},{"value":4,"offby":-2,"category":"$181 - $195","category_index":4},{"value":1,"offby":-2,"category":"$196 - $210","category_index":5},{"value":0,"offby":-1,"category":"$211 - $225","category_index":6}],"phase":1,"number":0,"trial_type":"bar-choose","trial_index":82,"time_elapsed":1003441,"internal_node_id":"0.0-82.0"},{"rt":9006,"url":"\/tickets\/utils\/testing2.html","trial_type":"html","trial_index":83,"time_elapsed":1013544,"internal_node_id":"0.0-83.0"},{"phase":1,"order":[16,10,43,20,31,37,49,21,0,26,6,25,8,27,40,18,1,19,38,3,9,2,17,33,39,15,5,28,23,30,11,32,13,22,47,48,14,44,29,46,35,12,42,41,7,34,4,45,36,24],"trial_type":"store_order","trial_index":84,"time_elapsed":1014547,"internal_node_id":"0.0-84.0"},{"result":176,"points":1,"place":4,"phase":1,"sequence":0,"prices":[157,191,165,175,182,203,170,195,200,176],"times":[2252,1109,979,1149,964,975,971,1008,1011,1230],"next_num":10,"trial_type":"ticket-choose","trial_index":85,"time_elapsed":1031007,"internal_node_id":"0.0-85.0"},{"result":143,"points":3,"place":0,"phase":1,"sequence":1,"prices":[222,173,202,197,143,205,198,183,178,186],"times":[840,948,1069,1119,1189],"next_num":5,"trial_type":"ticket-choose","trial_index":86,"time_elapsed":1039931,"internal_node_id":"0.0-86.0"},{"result":176,"points":1,"place":4,"phase":1,"sequence":2,"prices":[175,187,163,209,180,188,176,165,154,208],"times":[871,959,940,896,959,949,1256],"next_num":7,"trial_type":"ticket-choose","trial_index":87,"time_elapsed":1050485,"internal_node_id":"0.0-87.0"},{"result":158,"points":2,"place":1,"phase":1,"sequence":3,"prices":[176,185,177,218,180,186,158,166,209,154],"times":[1277,1045,961,975,883,973,1180],"next_num":7,"trial_type":"ticket-choose","trial_index":88,"time_elapsed":1061258,"internal_node_id":"0.0-88.0"},{"result":167,"points":2,"place":1,"phase":1,"sequence":4,"prices":[175,186,178,212,179,187,167,169,209,153],"times":[3353,1006,918,1051,1039,966,1057],"next_num":7,"trial_type":"ticket-choose","trial_index":89,"time_elapsed":1074702,"internal_node_id":"0.0-89.0"},{"result":155,"points":2,"place":1,"phase":1,"sequence":5,"prices":[201,207,155,158,156,165,167,135,178,177],"times":[962,940,1164],"next_num":3,"trial_type":"ticket-choose","trial_index":90,"time_elapsed":1080408,"internal_node_id":"0.0-90.0"},{"result":158,"points":2,"place":1,"phase":1,"sequence":6,"prices":[175,186,177,209,181,188,158,167,208,154],"times":[846,877,892,927,1094,989,1082],"next_num":7,"trial_type":"ticket-choose","trial_index":91,"time_elapsed":1090514,"internal_node_id":"0.0-91.0"},{"result":158,"points":2,"place":1,"phase":1,"sequence":7,"prices":[175,186,158,211,180,187,177,166,209,153],"times":[1031,942,1206],"next_num":3,"trial_type":"ticket-choose","trial_index":92,"time_elapsed":1096166,"internal_node_id":"0.0-92.0"},{"result":148,"points":3,"place":0,"phase":1,"sequence":8,"prices":[183,163,185,180,166,148,160,186,176,184],"times":[878,1509,942,900,1183,1123],"next_num":6,"trial_type":"ticket-choose","trial_index":93,"time_elapsed":1106060,"internal_node_id":"0.0-93.0"},{"result":169,"points":1,"place":2,"phase":1,"sequence":9,"prices":[175,186,167,225,179,187,178,169,209,153],"times":[1196,936,1223,897,941,948,1022,1063],"next_num":8,"trial_type":"ticket-choose","trial_index":94,"time_elapsed":1118061,"internal_node_id":"0.0-94.0"},{"result":159,"points":1,"place":2,"phase":1,"sequence":10,"prices":[180,159,149,175,185,141,163,174,178,207],"times":[918,1283],"next_num":2,"trial_type":"ticket-choose","trial_index":95,"time_elapsed":1122534,"internal_node_id":"0.0-95.0"},{"result":185,"points":1,"place":4,"phase":1,"sequence":11,"prices":[169,196,170,184,187,211,171,201,202,185],"times":[1010,944,884,928,970,1110,1038,893,972,1881],"next_num":10,"trial_type":"ticket-choose","trial_index":96,"time_elapsed":1137382,"internal_node_id":"0.0-96.0"},{"result":165,"points":2,"place":1,"phase":1,"sequence":12,"prices":[188,200,165,172,198,174,177,154,177,180],"times":[1061,925,1089],"next_num":3,"trial_type":"ticket-choose","trial_index":97,"time_elapsed":1143216,"internal_node_id":"0.0-97.0"},{"result":157,"points":3,"place":0,"phase":1,"sequence":13,"prices":[201,187,157,184,198,179,188,185,178,170],"times":[898,1221,1128],"next_num":3,"trial_type":"ticket-choose","trial_index":98,"time_elapsed":1148795,"internal_node_id":"0.0-98.0"},{"result":163,"points":2,"place":1,"phase":1,"sequence":14,"prices":[176,186,163,214,179,187,176,166,153,208],"times":[939,952,1094],"next_num":3,"trial_type":"ticket-choose","trial_index":99,"time_elapsed":1154185,"internal_node_id":"0.0-99.0"},{"result":163,"points":2,"place":1,"phase":1,"sequence":15,"prices":[176,186,176,210,179,187,163,166,153,208],"times":[1028,958,947,911,1054,879,1077],"next_num":7,"trial_type":"ticket-choose","trial_index":100,"time_elapsed":1164409,"internal_node_id":"0.0-100.0"},{"result":167,"points":2,"place":1,"phase":1,"sequence":16,"prices":[175,185,178,215,181,186,167,168,208,156],"times":[1125,1207,1014,895,1037,984,1473],"next_num":7,"trial_type":"ticket-choose","trial_index":101,"time_elapsed":1175335,"internal_node_id":"0.0-101.0"},{"result":167,"points":2,"place":1,"phase":1,"sequence":17,"prices":[175,187,167,212,179,187,178,169,208,153],"times":[822,900,1120],"next_num":3,"trial_type":"ticket-choose","trial_index":102,"time_elapsed":1180514,"internal_node_id":"0.0-102.0"},{"result":158,"points":2,"place":1,"phase":1,"sequence":18,"prices":[152,200,158,173,182,207,161,202,204,180],"times":[1122,839,1075],"next_num":3,"trial_type":"ticket-choose","trial_index":103,"time_elapsed":1185975,"internal_node_id":"0.0-103.0"},{"result":161,"points":3,"place":0,"phase":1,"sequence":19,"prices":[161,193,175,181,185,224,180,199,218,184],"times":[1044],"next_num":1,"trial_type":"ticket-choose","trial_index":104,"time_elapsed":1189218,"internal_node_id":"0.0-104.0"},{"result":168,"points":1,"place":2,"phase":1,"sequence":20,"prices":[175,185,167,224,181,186,178,168,208,156],"times":[1052,992,1408,910,1014,1037,981,1270],"next_num":8,"trial_type":"ticket-choose","trial_index":105,"time_elapsed":1201520,"internal_node_id":"0.0-105.0"},{"result":163,"points":2,"place":1,"phase":1,"sequence":21,"prices":[174,186,163,212,181,187,176,166,153,209],"times":[879,927,1176],"next_num":3,"trial_type":"ticket-choose","trial_index":106,"time_elapsed":1206778,"internal_node_id":"0.0-106.0"},{"result":155,"points":2,"place":1,"phase":1,"sequence":22,"prices":[181,155,148,161,168,187,172,199,176,194],"times":[1290,1253],"next_num":2,"trial_type":"ticket-choose","trial_index":107,"time_elapsed":1211327,"internal_node_id":"0.0-107.0"},{"result":163,"points":2,"place":1,"phase":1,"sequence":23,"prices":[175,186,163,211,179,187,176,165,153,210],"times":[1128,894,1029],"next_num":3,"trial_type":"ticket-choose","trial_index":108,"time_elapsed":1216685,"internal_node_id":"0.0-108.0"},{"result":163,"points":2,"place":1,"phase":1,"sequence":24,"prices":[174,186,176,217,181,187,163,166,153,209],"times":[818,837,852,958,1005,942,1078],"next_num":7,"trial_type":"ticket-choose","trial_index":109,"time_elapsed":1226346,"internal_node_id":"0.0-109.0"},{"result":152,"points":3,"place":0,"phase":1,"sequence":25,"prices":[200,181,203,152,175,171,160,154,176,191],"times":[733,1051,1310,1314],"next_num":4,"trial_type":"ticket-choose","trial_index":110,"time_elapsed":1233805,"internal_node_id":"0.0-110.0"},{"result":163,"points":2,"place":1,"phase":1,"sequence":26,"prices":[175,187,176,209,180,188,163,165,154,208],"times":[1565,844,1039,1102,943,997,1051],"next_num":7,"trial_type":"ticket-choose","trial_index":111,"time_elapsed":1244732,"internal_node_id":"0.0-111.0"},{"result":186,"points":1,"place":4,"phase":1,"sequence":27,"prices":[168,192,171,178,188,217,172,195,197,186],"times":[1043,870,1107,1772,2616,2737,1401,1116,1020,2001],"next_num":10,"trial_type":"ticket-choose","trial_index":112,"time_elapsed":1275185,"internal_node_id":"0.0-112.0"},{"result":164,"points":3,"place":0,"phase":1,"sequence":28,"prices":[212,192,188,184,167,193,189,164,176,170],"times":[1430,908,1019,1004,1239,861,845,1023],"next_num":8,"trial_type":"ticket-choose","trial_index":113,"time_elapsed":1287095,"internal_node_id":"0.0-113.0"},{"result":168,"points":1,"place":2,"phase":1,"sequence":29,"prices":[168,199,196,198,185,195,227,163,177,166],"times":[1239],"next_num":1,"trial_type":"ticket-choose","trial_index":114,"time_elapsed":1290406,"internal_node_id":"0.0-114.0"},{"result":163,"points":2,"place":1,"phase":1,"sequence":30,"prices":[198,193,169,163,202,182,152,164,177,171],"times":[902,980,932,1038],"next_num":4,"trial_type":"ticket-choose","trial_index":115,"time_elapsed":1296832,"internal_node_id":"0.0-115.0"},{"result":158,"points":2,"place":1,"phase":1,"sequence":31,"prices":[176,187,158,210,181,187,177,165,208,153],"times":[1246,854,1000],"next_num":3,"trial_type":"ticket-choose","trial_index":116,"time_elapsed":1302268,"internal_node_id":"0.0-116.0"},{"result":147,"points":3,"place":0,"phase":1,"sequence":32,"prices":[181,215,169,147,182,193,177,184,176,179],"times":[941,1117,1046,1043],"next_num":4,"trial_type":"ticket-choose","trial_index":117,"time_elapsed":1309139,"internal_node_id":"0.0-117.0"},{"result":156,"points":3,"place":0,"phase":1,"sequence":33,"prices":[156,201,162,166,185,214,165,202,204,179],"times":[1393],"next_num":1,"trial_type":"ticket-choose","trial_index":118,"time_elapsed":1312660,"internal_node_id":"0.0-118.0"},{"result":158,"points":2,"place":1,"phase":1,"sequence":34,"prices":[175,186,177,221,180,187,158,166,209,153],"times":[1123,855,903,949,847,936,1035],"next_num":7,"trial_type":"ticket-choose","trial_index":119,"time_elapsed":1322646,"internal_node_id":"0.0-119.0"},{"result":167,"points":2,"place":1,"phase":1,"sequence":35,"prices":[174,186,178,217,181,188,167,168,208,156],"times":[949,925,1294,1007,946,934,1149],"next_num":7,"trial_type":"ticket-choose","trial_index":120,"time_elapsed":1333200,"internal_node_id":"0.0-120.0"},{"result":159,"points":3,"place":0,"phase":1,"sequence":36,"prices":[159,183,166,168,173,205,167,187,191,170],"times":[1355],"next_num":1,"trial_type":"ticket-choose","trial_index":121,"time_elapsed":1336611,"internal_node_id":"0.0-121.0"},{"result":161,"points":3,"place":0,"phase":1,"sequence":37,"prices":[161,193,167,187,190,224,174,194,195,188],"times":[1156],"next_num":1,"trial_type":"ticket-choose","trial_index":122,"time_elapsed":1339711,"internal_node_id":"0.0-122.0"},{"result":167,"points":2,"place":1,"phase":1,"sequence":38,"prices":[175,187,178,209,179,187,167,169,208,153],"times":[1202,829,821,982,898,854,1099],"next_num":7,"trial_type":"ticket-choose","trial_index":123,"time_elapsed":1349510,"internal_node_id":"0.0-123.0"},{"result":168,"points":1,"place":2,"phase":1,"sequence":39,"prices":[168,154,172,185,195,144,184,211,177,227],"times":[1534],"next_num":1,"trial_type":"ticket-choose","trial_index":124,"time_elapsed":1353021,"internal_node_id":"0.0-124.0"},{"result":148,"points":3,"place":0,"phase":1,"sequence":40,"prices":[148,171,150,163,167,220,162,186,187,165],"times":[1039],"next_num":1,"trial_type":"ticket-choose","trial_index":125,"time_elapsed":1356150,"internal_node_id":"0.0-125.0"},{"result":165,"points":3,"place":0,"phase":1,"sequence":41,"prices":[189,167,180,197,165,168,172,213,178,171],"times":[962,1536,882,916,1104],"next_num":5,"trial_type":"ticket-choose","trial_index":126,"time_elapsed":1364272,"internal_node_id":"0.0-126.0"},{"result":150,"points":3,"place":0,"phase":1,"sequence":42,"prices":[189,150,175,160,188,207,158,194,178,199],"times":[1138,1066],"next_num":2,"trial_type":"ticket-choose","trial_index":127,"time_elapsed":1368790,"internal_node_id":"0.0-127.0"},{"result":158,"points":2,"place":1,"phase":1,"sequence":43,"prices":[176,185,158,217,180,186,177,166,209,154],"times":[1874,2193,3081],"next_num":3,"trial_type":"ticket-choose","trial_index":128,"time_elapsed":1378910,"internal_node_id":"0.0-128.0"},{"result":150,"points":3,"place":0,"phase":1,"sequence":44,"prices":[150,185,154,161,173,199,155,188,191,168],"times":[1141],"next_num":1,"trial_type":"ticket-choose","trial_index":129,"time_elapsed":1382385,"internal_node_id":"0.0-129.0"},{"result":158,"points":2,"place":1,"phase":1,"sequence":45,"prices":[175,186,158,209,181,188,177,167,208,154],"times":[1021,975,1101],"next_num":3,"trial_type":"ticket-choose","trial_index":130,"time_elapsed":1387853,"internal_node_id":"0.0-130.0"},{"result":158,"points":3,"place":0,"phase":1,"sequence":46,"prices":[210,184,226,193,215,158,199,175,176,208],"times":[974,919,1012,918,997,1071],"next_num":6,"trial_type":"ticket-choose","trial_index":131,"time_elapsed":1396850,"internal_node_id":"0.0-131.0"},{"result":158,"points":2,"place":1,"phase":1,"sequence":47,"prices":[176,187,177,225,181,187,158,165,208,153],"times":[950,910,863,894,967,871,1092],"next_num":7,"trial_type":"ticket-choose","trial_index":132,"time_elapsed":1406742,"internal_node_id":"0.0-132.0"},{"result":167,"points":2,"place":1,"phase":1,"sequence":48,"prices":[174,186,167,211,181,188,178,168,208,156],"times":[1097,825,1008],"next_num":3,"trial_type":"ticket-choose","trial_index":133,"time_elapsed":1412077,"internal_node_id":"0.0-133.0"},{"result":163,"points":2,"place":1,"phase":1,"sequence":49,"prices":[175,186,176,224,179,187,163,165,153,210],"times":[1015,917,943,892,863,838,1322],"next_num":7,"trial_type":"ticket-choose","trial_index":134,"time_elapsed":1422207,"internal_node_id":"0.0-134.0"},{"responses":[{"value":1,"offby":1,"category":"$106 - $134","category_index":0},{"value":2,"offby":1,"category":"$135 - $150","category_index":1},{"value":4,"offby":1,"category":"$151 - $165","category_index":2},{"value":5,"offby":-1,"category":"$166 - $180","category_index":3},{"value":4,"offby":-2,"category":"$181 - $195","category_index":4},{"value":3,"offby":0,"category":"$196 - $210","category_index":5},{"value":1,"offby":0,"category":"$211 - $225","category_index":6}],"phase":1,"number":1,"trial_type":"bar-choose","trial_index":135,"time_elapsed":1451306,"internal_node_id":"0.0-135.0"},{"special_comment":"","trial_type":"special_sequence","trial_index":136,"time_elapsed":1453902,"internal_node_id":"0.0-136.0"},{"during":"Nothing","bonus":288,"trial_type":"final","trial_index":137,"time_elapsed":1483096,"internal_node_id":"0.0-137.0"}],"bonus":288}