{"start_time":"2017-02-16 15:38:55","end_time":"2017-02-16 16:03:44","points_phase0":106,"points_phase1":103,"phase_order":1,"age":30,"gender":"m","tries":1,"during":"Nothing","worker_id":"AW0MG225VXWCN","assignment_id":"382M9COHEI88FU1I8EQQ8L63Q12EUR","data":[{"rt":9907,"url":"\/tickets\/utils\/consent.html","trial_type":"html","trial_index":0,"time_elapsed":10365,"internal_node_id":"0.0-0.0"},{"age":30,"gender":"m","trial_type":"age","trial_index":1,"time_elapsed":16738,"internal_node_id":"0.0-1.0"},{"worker_id":"AW0MG225VXWCN","trial_type":"workerid","trial_index":2,"time_elapsed":33632,"internal_node_id":"0.0-2.0"},{"tries":1,"trial_type":"instructions_check","trial_index":3,"time_elapsed":103412,"internal_node_id":"0.0-3.0"},{"rt":13051,"url":"\/tickets\/utils\/start.html","trial_type":"html","trial_index":4,"time_elapsed":117837,"internal_node_id":"0.0-4.0"},{"trial_type":"number-animation","trial_index":5,"time_elapsed":166963,"internal_node_id":"0.0-5.0"},{"phase":0,"sequence":0,"avg":182,"response":192,"trial_type":"training_avg","trial_index":6,"time_elapsed":182080,"internal_node_id":"0.0-6.0"},{"trial_type":"number-animation","trial_index":7,"time_elapsed":212053,"internal_node_id":"0.0-7.0"},{"phase":0,"sequence":1,"avg":188,"response":177,"trial_type":"training_avg","trial_index":8,"time_elapsed":224053,"internal_node_id":"0.0-8.0"},{"trial_type":"number-animation","trial_index":9,"time_elapsed":266648,"internal_node_id":"0.0-9.0"},{"phase":0,"sequence":2,"avg":176,"response":175,"trial_type":"training_avg","trial_index":10,"time_elapsed":277968,"internal_node_id":"0.0-10.0"},{"trial_type":"number-animation","trial_index":11,"time_elapsed":301339,"internal_node_id":"0.0-11.0"},{"phase":0,"sequence":3,"avg":180,"response":181,"trial_type":"training_avg","trial_index":12,"time_elapsed":311888,"internal_node_id":"0.0-12.0"},{"trial_type":"number-animation","trial_index":13,"time_elapsed":330042,"internal_node_id":"0.0-13.0"},{"phase":0,"sequence":4,"avg":174,"response":168,"trial_type":"training_avg","trial_index":14,"time_elapsed":340627,"internal_node_id":"0.0-14.0"},{"responses":[{"value":0,"offby":-1,"category":"$90 - $120","category_index":0},{"value":3,"offby":0,"category":"$121 - $145","category_index":1},{"value":7,"offby":4,"category":"$146 - $170","category_index":2},{"value":7,"offby":1,"category":"$171 - $195","category_index":3},{"value":3,"offby":-1,"category":"$196 - $220","category_index":4},{"value":0,"offby":-2,"category":"$221 - $245","category_index":5},{"value":0,"offby":-1,"category":"$246 - $270","category_index":6}],"phase":0,"number":0,"trial_type":"bar-choose","trial_index":15,"time_elapsed":397517,"internal_node_id":"0.0-15.0"},{"rt":13643,"url":"\/tickets\/\/utils\/testing.html","trial_type":"html","trial_index":16,"time_elapsed":412577,"internal_node_id":"0.0-16.0"},{"phase":0,"order":[32,18,7,34,2,15,43,12,30,9,39,36,6,29,44,25,13,37,48,14,47,35,11,1,26,27,49,45,10,17,33,0,22,42,28,41,24,40,38,8,19,23,5,16,20,21,4,3,31,46],"trial_type":"store_order","trial_index":17,"time_elapsed":413578,"internal_node_id":"0.0-17.0"},{"result":126,"points":3,"place":0,"phase":0,"sequence":-1,"times":[4517,2419,2648,7687,1192,894,1098,1034,860,2349],"next_num":10,"trial_type":"ticket-choose","trial_index":18,"time_elapsed":444186,"internal_node_id":"0.0-18.0"},{"rt":15606,"url":"\/tickets\/utils\/testing_after.html","trial_type":"html","trial_index":19,"time_elapsed":461633,"internal_node_id":"0.0-19.0"},{"result":154,"points":2,"place":1,"phase":0,"sequence":0,"times":[4058,970,781,778,766,687,3363],"next_num":7,"trial_type":"ticket-choose","trial_index":20,"time_elapsed":478979,"internal_node_id":"0.0-20.0"},{"result":136,"points":2,"place":1,"phase":0,"sequence":1,"times":[5963,995,1178],"next_num":3,"trial_type":"ticket-choose","trial_index":21,"time_elapsed":490039,"internal_node_id":"0.0-21.0"},{"result":135,"points":3,"place":0,"phase":0,"sequence":2,"times":[890,599,915],"next_num":3,"trial_type":"ticket-choose","trial_index":22,"time_elapsed":495813,"internal_node_id":"0.0-22.0"},{"result":146,"points":2,"place":1,"phase":0,"sequence":3,"times":[790,536,925],"next_num":3,"trial_type":"ticket-choose","trial_index":23,"time_elapsed":500487,"internal_node_id":"0.0-23.0"},{"result":136,"points":2,"place":1,"phase":0,"sequence":4,"times":[1171,504,845,692,663,692,1026],"next_num":7,"trial_type":"ticket-choose","trial_index":24,"time_elapsed":509382,"internal_node_id":"0.0-24.0"},{"result":154,"points":2,"place":1,"phase":0,"sequence":5,"times":[1398,955,607,908,598,653,1026],"next_num":7,"trial_type":"ticket-choose","trial_index":25,"time_elapsed":519156,"internal_node_id":"0.0-25.0"},{"result":146,"points":2,"place":1,"phase":0,"sequence":6,"times":[828,2951,971],"next_num":3,"trial_type":"ticket-choose","trial_index":26,"time_elapsed":526356,"internal_node_id":"0.0-26.0"},{"result":150,"points":3,"place":0,"phase":0,"sequence":7,"times":[862,2349,480,535,1005],"next_num":5,"trial_type":"ticket-choose","trial_index":27,"time_elapsed":534764,"internal_node_id":"0.0-27.0"},{"result":154,"points":2,"place":1,"phase":0,"sequence":8,"times":[991,695,1907],"next_num":3,"trial_type":"ticket-choose","trial_index":28,"time_elapsed":540795,"internal_node_id":"0.0-28.0"},{"result":130,"points":2,"place":1,"phase":0,"sequence":9,"times":[1013,918],"next_num":2,"trial_type":"ticket-choose","trial_index":29,"time_elapsed":544932,"internal_node_id":"0.0-29.0"},{"result":135,"points":3,"place":0,"phase":0,"sequence":10,"times":[1466],"next_num":1,"trial_type":"ticket-choose","trial_index":30,"time_elapsed":548705,"internal_node_id":"0.0-30.0"},{"result":124,"points":3,"place":0,"phase":0,"sequence":11,"times":[1063],"next_num":1,"trial_type":"ticket-choose","trial_index":31,"time_elapsed":551707,"internal_node_id":"0.0-31.0"},{"result":136,"points":3,"place":0,"phase":0,"sequence":12,"times":[849,599,584,543,663,1073],"next_num":6,"trial_type":"ticket-choose","trial_index":32,"time_elapsed":559122,"internal_node_id":"0.0-32.0"},{"result":128,"points":3,"place":0,"phase":0,"sequence":13,"times":[11905,598,4313,505,536,694,654,1058],"next_num":8,"trial_type":"ticket-choose","trial_index":33,"time_elapsed":582779,"internal_node_id":"0.0-33.0"},{"result":158,"points":1,"place":2,"phase":0,"sequence":14,"times":[2065,527,458,519,844,607,630,1414],"next_num":8,"trial_type":"ticket-choose","trial_index":34,"time_elapsed":593602,"internal_node_id":"0.0-34.0"},{"result":117,"points":3,"place":0,"phase":0,"sequence":15,"times":[1200],"next_num":1,"trial_type":"ticket-choose","trial_index":35,"time_elapsed":596708,"internal_node_id":"0.0-35.0"},{"result":154,"points":2,"place":1,"phase":0,"sequence":16,"times":[796,599,513,560,639,527,924],"next_num":7,"trial_type":"ticket-choose","trial_index":36,"time_elapsed":604493,"internal_node_id":"0.0-36.0"},{"result":146,"points":2,"place":1,"phase":0,"sequence":17,"times":[1031,441,503,639,585,661,964],"next_num":7,"trial_type":"ticket-choose","trial_index":37,"time_elapsed":612457,"internal_node_id":"0.0-37.0"},{"result":158,"points":1,"place":3,"phase":0,"sequence":18,"times":[870,584,1090],"next_num":3,"trial_type":"ticket-choose","trial_index":38,"time_elapsed":617283,"internal_node_id":"0.0-38.0"},{"result":138,"points":1,"place":2,"phase":0,"sequence":19,"times":[678,837],"next_num":2,"trial_type":"ticket-choose","trial_index":39,"time_elapsed":620896,"internal_node_id":"0.0-39.0"},{"result":189,"points":1,"place":4,"phase":0,"sequence":20,"times":[2667,432,402,520,512,566,553,598,623,1399],"next_num":10,"trial_type":"ticket-choose","trial_index":40,"time_elapsed":633878,"internal_node_id":"0.0-40.0"},{"result":136,"points":2,"place":1,"phase":0,"sequence":21,"times":[1249,591,590,528,663,609,853],"next_num":7,"trial_type":"ticket-choose","trial_index":41,"time_elapsed":642098,"internal_node_id":"0.0-41.0"},{"result":136,"points":2,"place":1,"phase":0,"sequence":22,"times":[754,765,758],"next_num":3,"trial_type":"ticket-choose","trial_index":42,"time_elapsed":646672,"internal_node_id":"0.0-42.0"},{"result":154,"points":2,"place":1,"phase":0,"sequence":23,"times":[4331,464,939],"next_num":3,"trial_type":"ticket-choose","trial_index":43,"time_elapsed":655065,"internal_node_id":"0.0-43.0"},{"result":154,"points":2,"place":1,"phase":0,"sequence":24,"times":[1056,654,520,560,553,593,989],"next_num":7,"trial_type":"ticket-choose","trial_index":44,"time_elapsed":663190,"internal_node_id":"0.0-44.0"},{"result":154,"points":2,"place":1,"phase":0,"sequence":25,"times":[792,861,2138],"next_num":3,"trial_type":"ticket-choose","trial_index":45,"time_elapsed":669264,"internal_node_id":"0.0-45.0"},{"result":149,"points":1,"place":2,"phase":0,"sequence":26,"times":[851,553,432,392,497,543,535,1011],"next_num":8,"trial_type":"ticket-choose","trial_index":46,"time_elapsed":677633,"internal_node_id":"0.0-46.0"},{"result":146,"points":2,"place":1,"phase":0,"sequence":27,"times":[690,853,877,583,513,577,885],"next_num":7,"trial_type":"ticket-choose","trial_index":47,"time_elapsed":685781,"internal_node_id":"0.0-47.0"},{"result":159,"points":2,"place":1,"phase":0,"sequence":28,"times":[4676,471,932],"next_num":3,"trial_type":"ticket-choose","trial_index":48,"time_elapsed":694206,"internal_node_id":"0.0-48.0"},{"result":154,"points":2,"place":1,"phase":0,"sequence":29,"times":[737,433,431,433,774],"next_num":5,"trial_type":"ticket-choose","trial_index":49,"time_elapsed":699682,"internal_node_id":"0.0-49.0"},{"result":146,"points":2,"place":1,"phase":0,"sequence":30,"times":[761,670,615,358,519,584,900],"next_num":7,"trial_type":"ticket-choose","trial_index":50,"time_elapsed":707219,"internal_node_id":"0.0-50.0"},{"result":124,"points":3,"place":0,"phase":0,"sequence":31,"times":[939,496,717,2684],"next_num":4,"trial_type":"ticket-choose","trial_index":51,"time_elapsed":714543,"internal_node_id":"0.0-51.0"},{"result":146,"points":3,"place":0,"phase":0,"sequence":32,"times":[507,410,384,614,544,528,536,1820],"next_num":8,"trial_type":"ticket-choose","trial_index":52,"time_elapsed":723295,"internal_node_id":"0.0-52.0"},{"result":188,"points":1,"place":4,"phase":0,"sequence":33,"times":[1353,440,298,543,598,544,496,582,496,1012],"next_num":10,"trial_type":"ticket-choose","trial_index":53,"time_elapsed":733600,"internal_node_id":"0.0-53.0"},{"result":136,"points":2,"place":1,"phase":0,"sequence":34,"times":[900,496,797],"next_num":3,"trial_type":"ticket-choose","trial_index":54,"time_elapsed":738135,"internal_node_id":"0.0-54.0"},{"result":137,"points":3,"place":0,"phase":0,"sequence":35,"times":[908],"next_num":1,"trial_type":"ticket-choose","trial_index":55,"time_elapsed":740996,"internal_node_id":"0.0-55.0"},{"result":105,"points":3,"place":0,"phase":0,"sequence":36,"times":[3101,631,584,527,924],"next_num":5,"trial_type":"ticket-choose","trial_index":56,"time_elapsed":749508,"internal_node_id":"0.0-56.0"},{"result":157,"points":3,"place":0,"phase":0,"sequence":37,"times":[1211],"next_num":1,"trial_type":"ticket-choose","trial_index":57,"time_elapsed":752639,"internal_node_id":"0.0-57.0"},{"result":146,"points":2,"place":1,"phase":0,"sequence":38,"times":[731,576,434,528,678,615,797],"next_num":7,"trial_type":"ticket-choose","trial_index":58,"time_elapsed":760243,"internal_node_id":"0.0-58.0"},{"result":132,"points":3,"place":0,"phase":0,"sequence":39,"times":[1070],"next_num":1,"trial_type":"ticket-choose","trial_index":59,"time_elapsed":763098,"internal_node_id":"0.0-59.0"},{"result":146,"points":2,"place":1,"phase":0,"sequence":40,"times":[811,504,788],"next_num":3,"trial_type":"ticket-choose","trial_index":60,"time_elapsed":767435,"internal_node_id":"0.0-60.0"},{"result":136,"points":1,"place":3,"phase":0,"sequence":41,"times":[719,402,415,670],"next_num":4,"trial_type":"ticket-choose","trial_index":61,"time_elapsed":772199,"internal_node_id":"0.0-61.0"},{"result":136,"points":2,"place":1,"phase":0,"sequence":42,"times":[762,893,536,488,829,519,768],"next_num":7,"trial_type":"ticket-choose","trial_index":62,"time_elapsed":780197,"internal_node_id":"0.0-62.0"},{"result":136,"points":2,"place":1,"phase":0,"sequence":43,"times":[834,561,464,488,1162,543,861],"next_num":7,"trial_type":"ticket-choose","trial_index":63,"time_elapsed":788236,"internal_node_id":"0.0-63.0"},{"result":217,"points":0,"place":8,"phase":0,"sequence":44,"times":[913,503,457,536,536,583,592,567,496,1226],"next_num":10,"trial_type":"ticket-choose","trial_index":64,"time_elapsed":798399,"internal_node_id":"0.0-64.0"},{"result":146,"points":1,"place":2,"phase":0,"sequence":45,"times":[555,1248],"next_num":2,"trial_type":"ticket-choose","trial_index":65,"time_elapsed":802204,"internal_node_id":"0.0-65.0"},{"result":143,"points":3,"place":0,"phase":0,"sequence":46,"times":[985],"next_num":1,"trial_type":"ticket-choose","trial_index":66,"time_elapsed":805042,"internal_node_id":"0.0-66.0"},{"result":108,"points":3,"place":0,"phase":0,"sequence":47,"times":[963,353,490,590,601,742],"next_num":6,"trial_type":"ticket-choose","trial_index":67,"time_elapsed":811685,"internal_node_id":"0.0-67.0"},{"result":121,"points":3,"place":0,"phase":0,"sequence":48,"times":[1183],"next_num":1,"trial_type":"ticket-choose","trial_index":68,"time_elapsed":815386,"internal_node_id":"0.0-68.0"},{"result":136,"points":2,"place":1,"phase":0,"sequence":49,"times":[1208,567,758],"next_num":3,"trial_type":"ticket-choose","trial_index":69,"time_elapsed":820783,"internal_node_id":"0.0-69.0"},{"responses":[{"value":1,"offby":0,"category":"$90 - $120","category_index":0},{"value":3,"offby":0,"category":"$121 - $145","category_index":1},{"value":8,"offby":5,"category":"$146 - $170","category_index":2},{"value":4,"offby":-2,"category":"$171 - $195","category_index":3},{"value":4,"offby":0,"category":"$196 - $220","category_index":4},{"value":0,"offby":-2,"category":"$221 - $245","category_index":5},{"value":0,"offby":-1,"category":"$246 - $270","category_index":6}],"phase":0,"number":1,"trial_type":"bar-choose","trial_index":70,"time_elapsed":849644,"internal_node_id":"0.0-70.0"},{"rt":74214,"url":"\/tickets\/utils\/start2.html","trial_type":"html","trial_index":71,"time_elapsed":925291,"internal_node_id":"0.0-71.0"},{"trial_type":"number-animation","trial_index":72,"time_elapsed":935168,"internal_node_id":"0.0-72.0"},{"phase":1,"sequence":0,"avg":181,"response":173,"trial_type":"training_avg","trial_index":73,"time_elapsed":942066,"internal_node_id":"0.0-73.0"},{"trial_type":"number-animation","trial_index":74,"time_elapsed":952410,"internal_node_id":"0.0-74.0"},{"phase":1,"sequence":1,"avg":188,"response":182,"trial_type":"training_avg","trial_index":75,"time_elapsed":958659,"internal_node_id":"0.0-75.0"},{"trial_type":"number-animation","trial_index":76,"time_elapsed":966882,"internal_node_id":"0.0-76.0"},{"phase":1,"sequence":2,"avg":188,"response":187,"trial_type":"training_avg","trial_index":77,"time_elapsed":973139,"internal_node_id":"0.0-77.0"},{"trial_type":"number-animation","trial_index":78,"time_elapsed":981430,"internal_node_id":"0.0-78.0"},{"phase":1,"sequence":3,"avg":177,"response":182,"trial_type":"training_avg","trial_index":79,"time_elapsed":986577,"internal_node_id":"0.0-79.0"},{"trial_type":"number-animation","trial_index":80,"time_elapsed":994491,"internal_node_id":"0.0-80.0"},{"phase":1,"sequence":4,"avg":182,"response":174,"trial_type":"training_avg","trial_index":81,"time_elapsed":999653,"internal_node_id":"0.0-81.0"},{"responses":[{"value":0,"offby":0,"category":"$106 - $134","category_index":0},{"value":1,"offby":0,"category":"$135 - $150","category_index":1},{"value":4,"offby":1,"category":"$151 - $165","category_index":2},{"value":7,"offby":1,"category":"$166 - $180","category_index":3},{"value":6,"offby":0,"category":"$181 - $195","category_index":4},{"value":2,"offby":-1,"category":"$196 - $210","category_index":5},{"value":0,"offby":-1,"category":"$211 - $225","category_index":6}],"phase":1,"number":0,"trial_type":"bar-choose","trial_index":82,"time_elapsed":1026499,"internal_node_id":"0.0-82.0"},{"rt":21239,"url":"\/tickets\/utils\/testing2.html","trial_type":"html","trial_index":83,"time_elapsed":1052107,"internal_node_id":"0.0-83.0"},{"phase":1,"order":[13,17,43,2,21,14,1,39,8,34,30,26,46,36,11,31,12,7,37,44,28,20,19,9,15,10,3,4,48,45,6,47,38,24,18,33,42,27,5,25,0,41,23,22,40,49,32,35,29,16],"trial_type":"store_order","trial_index":84,"time_elapsed":1053112,"internal_node_id":"0.0-84.0"},{"result":188,"points":1,"place":4,"phase":1,"sequence":0,"times":[1230,606,694,543,471,584,623,710,519,1025],"next_num":10,"trial_type":"ticket-choose","trial_index":85,"time_elapsed":1064026,"internal_node_id":"0.0-85.0"},{"result":158,"points":2,"place":1,"phase":1,"sequence":1,"times":[1127,528,804],"next_num":3,"trial_type":"ticket-choose","trial_index":86,"time_elapsed":1069041,"internal_node_id":"0.0-86.0"},{"result":163,"points":2,"place":1,"phase":1,"sequence":2,"times":[603,511,535,607,504,923,805],"next_num":7,"trial_type":"ticket-choose","trial_index":87,"time_elapsed":1076762,"internal_node_id":"0.0-87.0"},{"result":155,"points":2,"place":1,"phase":1,"sequence":3,"times":[1695,743],"next_num":2,"trial_type":"ticket-choose","trial_index":88,"time_elapsed":1081175,"internal_node_id":"0.0-88.0"},{"result":163,"points":2,"place":1,"phase":1,"sequence":4,"times":[634,392,812],"next_num":3,"trial_type":"ticket-choose","trial_index":89,"time_elapsed":1085233,"internal_node_id":"0.0-89.0"},{"result":167,"points":2,"place":1,"phase":1,"sequence":5,"times":[494,448,607,671,608,877,1020],"next_num":7,"trial_type":"ticket-choose","trial_index":90,"time_elapsed":1093240,"internal_node_id":"0.0-90.0"},{"result":157,"points":3,"place":0,"phase":1,"sequence":6,"times":[19759,566,838],"next_num":3,"trial_type":"ticket-choose","trial_index":91,"time_elapsed":1116790,"internal_node_id":"0.0-91.0"},{"result":167,"points":2,"place":1,"phase":1,"sequence":7,"times":[1004,519,456,498,494,464,838],"next_num":7,"trial_type":"ticket-choose","trial_index":92,"time_elapsed":1124265,"internal_node_id":"0.0-92.0"},{"result":157,"points":3,"place":0,"phase":1,"sequence":8,"times":[1081],"next_num":1,"trial_type":"ticket-choose","trial_index":93,"time_elapsed":1127144,"internal_node_id":"0.0-93.0"},{"result":168,"points":1,"place":2,"phase":1,"sequence":9,"times":[713,497,614,656,599,568,544,806],"next_num":8,"trial_type":"ticket-choose","trial_index":94,"time_elapsed":1135468,"internal_node_id":"0.0-94.0"},{"result":167,"points":2,"place":1,"phase":1,"sequence":10,"times":[673,813],"next_num":2,"trial_type":"ticket-choose","trial_index":95,"time_elapsed":1138862,"internal_node_id":"0.0-95.0"},{"result":165,"points":2,"place":1,"phase":1,"sequence":11,"times":[874,592,741],"next_num":3,"trial_type":"ticket-choose","trial_index":96,"time_elapsed":1143327,"internal_node_id":"0.0-96.0"},{"result":163,"points":2,"place":1,"phase":1,"sequence":12,"times":[3127,417,537,472,520,472,939],"next_num":7,"trial_type":"ticket-choose","trial_index":97,"time_elapsed":1152959,"internal_node_id":"0.0-97.0"},{"result":150,"points":3,"place":0,"phase":1,"sequence":13,"times":[1072],"next_num":1,"trial_type":"ticket-choose","trial_index":98,"time_elapsed":1155861,"internal_node_id":"0.0-98.0"},{"result":159,"points":1,"place":2,"phase":1,"sequence":14,"times":[882,685],"next_num":2,"trial_type":"ticket-choose","trial_index":99,"time_elapsed":1159412,"internal_node_id":"0.0-99.0"},{"result":156,"points":3,"place":0,"phase":1,"sequence":15,"times":[793],"next_num":1,"trial_type":"ticket-choose","trial_index":100,"time_elapsed":1161933,"internal_node_id":"0.0-100.0"},{"result":167,"points":2,"place":1,"phase":1,"sequence":16,"times":[567,520,465,551,575,591,956],"next_num":7,"trial_type":"ticket-choose","trial_index":101,"time_elapsed":1169266,"internal_node_id":"0.0-101.0"},{"result":163,"points":2,"place":1,"phase":1,"sequence":17,"times":[666,536,465,862],"next_num":4,"trial_type":"ticket-choose","trial_index":102,"time_elapsed":1174236,"internal_node_id":"0.0-102.0"},{"result":147,"points":3,"place":0,"phase":1,"sequence":18,"times":[1498,558,432,799],"next_num":4,"trial_type":"ticket-choose","trial_index":103,"time_elapsed":1179975,"internal_node_id":"0.0-103.0"},{"result":167,"points":2,"place":1,"phase":1,"sequence":19,"times":[843,480,496,528,656,488,955],"next_num":7,"trial_type":"ticket-choose","trial_index":104,"time_elapsed":1187541,"internal_node_id":"0.0-104.0"},{"result":152,"points":3,"place":0,"phase":1,"sequence":20,"times":[777,425,502,783],"next_num":4,"trial_type":"ticket-choose","trial_index":105,"time_elapsed":1192417,"internal_node_id":"0.0-105.0"},{"result":154,"points":2,"place":1,"phase":1,"sequence":21,"times":[585,775],"next_num":2,"trial_type":"ticket-choose","trial_index":106,"time_elapsed":1195787,"internal_node_id":"0.0-106.0"},{"result":169,"points":1,"place":2,"phase":1,"sequence":22,"times":[645,512,1108,575,505,559,614,980],"next_num":8,"trial_type":"ticket-choose","trial_index":107,"time_elapsed":1204684,"internal_node_id":"0.0-107.0"},{"result":163,"points":2,"place":1,"phase":1,"sequence":23,"times":[818,496,829],"next_num":3,"trial_type":"ticket-choose","trial_index":108,"time_elapsed":1209141,"internal_node_id":"0.0-108.0"},{"result":152,"points":3,"place":0,"phase":1,"sequence":24,"times":[891],"next_num":1,"trial_type":"ticket-choose","trial_index":109,"time_elapsed":1211741,"internal_node_id":"0.0-109.0"},{"result":186,"points":1,"place":4,"phase":1,"sequence":25,"times":[1060,616,893,472,474,608,1282,567,585,1774],"next_num":10,"trial_type":"ticket-choose","trial_index":110,"time_elapsed":1224255,"internal_node_id":"0.0-110.0"},{"result":163,"points":1,"place":2,"phase":1,"sequence":26,"times":[626,759],"next_num":2,"trial_type":"ticket-choose","trial_index":111,"time_elapsed":1227666,"internal_node_id":"0.0-111.0"},{"result":167,"points":2,"place":1,"phase":1,"sequence":27,"times":[510,519,520,543,900],"next_num":5,"trial_type":"ticket-choose","trial_index":112,"time_elapsed":1233359,"internal_node_id":"0.0-112.0"},{"result":169,"points":1,"place":2,"phase":1,"sequence":28,"times":[661,520,949,505,526,498,497,1164],"next_num":8,"trial_type":"ticket-choose","trial_index":113,"time_elapsed":1241988,"internal_node_id":"0.0-113.0"},{"result":158,"points":2,"place":1,"phase":1,"sequence":29,"times":[989,462,735],"next_num":3,"trial_type":"ticket-choose","trial_index":114,"time_elapsed":1246372,"internal_node_id":"0.0-114.0"},{"result":159,"points":3,"place":0,"phase":1,"sequence":30,"times":[1157],"next_num":1,"trial_type":"ticket-choose","trial_index":115,"time_elapsed":1249339,"internal_node_id":"0.0-115.0"},{"result":163,"points":2,"place":1,"phase":1,"sequence":31,"times":[593,511,758],"next_num":3,"trial_type":"ticket-choose","trial_index":116,"time_elapsed":1253342,"internal_node_id":"0.0-116.0"},{"result":158,"points":2,"place":1,"phase":1,"sequence":32,"times":[651,442,448,536,513,497,798],"next_num":7,"trial_type":"ticket-choose","trial_index":117,"time_elapsed":1260323,"internal_node_id":"0.0-117.0"},{"result":173,"points":2,"place":1,"phase":1,"sequence":33,"times":[865,894],"next_num":2,"trial_type":"ticket-choose","trial_index":118,"time_elapsed":1264157,"internal_node_id":"0.0-118.0"},{"result":185,"points":1,"place":4,"phase":1,"sequence":34,"times":[2171,457,457,561,511,576,554,645,465,917],"next_num":11,"trial_type":"ticket-choose","trial_index":119,"time_elapsed":1276525,"internal_node_id":"0.0-119.0"},{"result":155,"points":2,"place":1,"phase":1,"sequence":35,"times":[771,672,885],"next_num":3,"trial_type":"ticket-choose","trial_index":120,"time_elapsed":1281070,"internal_node_id":"0.0-120.0"},{"result":161,"points":3,"place":0,"phase":1,"sequence":36,"times":[763],"next_num":1,"trial_type":"ticket-choose","trial_index":121,"time_elapsed":1283631,"internal_node_id":"0.0-121.0"},{"result":150,"points":3,"place":0,"phase":1,"sequence":37,"times":[1071,736],"next_num":2,"trial_type":"ticket-choose","trial_index":122,"time_elapsed":1287415,"internal_node_id":"0.0-122.0"},{"result":163,"points":3,"place":0,"phase":1,"sequence":38,"times":[993,472,481,487,472,543,583,773],"next_num":8,"trial_type":"ticket-choose","trial_index":123,"time_elapsed":1295452,"internal_node_id":"0.0-123.0"},{"result":167,"points":2,"place":1,"phase":1,"sequence":39,"times":[1561,442,821],"next_num":3,"trial_type":"ticket-choose","trial_index":124,"time_elapsed":1300456,"internal_node_id":"0.0-124.0"},{"result":166,"points":1,"place":2,"phase":1,"sequence":40,"times":[983,521,400,1068,584,472,693,822],"next_num":8,"trial_type":"ticket-choose","trial_index":125,"time_elapsed":1309431,"internal_node_id":"0.0-125.0"},{"result":158,"points":2,"place":1,"phase":1,"sequence":41,"times":[16153,514,497,534,807,472,782],"next_num":7,"trial_type":"ticket-choose","trial_index":126,"time_elapsed":1332188,"internal_node_id":"0.0-126.0"},{"result":163,"points":2,"place":1,"phase":1,"sequence":42,"times":[915,474,456,583,490,464,695],"next_num":7,"trial_type":"ticket-choose","trial_index":127,"time_elapsed":1339208,"internal_node_id":"0.0-127.0"},{"result":166,"points":1,"place":2,"phase":1,"sequence":43,"times":[705,378,394,409,466,582,695,735],"next_num":8,"trial_type":"ticket-choose","trial_index":128,"time_elapsed":1346813,"internal_node_id":"0.0-128.0"},{"result":158,"points":2,"place":1,"phase":1,"sequence":44,"times":[731,552,463,433,528,639,752],"next_num":7,"trial_type":"ticket-choose","trial_index":129,"time_elapsed":1353933,"internal_node_id":"0.0-129.0"},{"result":158,"points":2,"place":1,"phase":1,"sequence":45,"times":[1012,537,449,489,482,465,735],"next_num":7,"trial_type":"ticket-choose","trial_index":130,"time_elapsed":1361326,"internal_node_id":"0.0-130.0"},{"result":163,"points":2,"place":1,"phase":1,"sequence":46,"times":[592,544,450,513,537,487,934],"next_num":7,"trial_type":"ticket-choose","trial_index":131,"time_elapsed":1368391,"internal_node_id":"0.0-131.0"},{"result":163,"points":2,"place":1,"phase":1,"sequence":47,"times":[685,427,805],"next_num":3,"trial_type":"ticket-choose","trial_index":132,"time_elapsed":1372476,"internal_node_id":"0.0-132.0"},{"result":148,"points":3,"place":0,"phase":1,"sequence":48,"times":[812],"next_num":1,"trial_type":"ticket-choose","trial_index":133,"time_elapsed":1374942,"internal_node_id":"0.0-133.0"},{"result":158,"points":3,"place":0,"phase":1,"sequence":49,"times":[825,630,522,569,481,839],"next_num":6,"trial_type":"ticket-choose","trial_index":134,"time_elapsed":1382131,"internal_node_id":"0.0-134.0"},{"responses":[{"value":0,"offby":0,"category":"$106 - $134","category_index":0},{"value":0,"offby":-1,"category":"$135 - $150","category_index":1},{"value":5,"offby":2,"category":"$151 - $165","category_index":2},{"value":5,"offby":-1,"category":"$166 - $180","category_index":3},{"value":7,"offby":1,"category":"$181 - $195","category_index":4},{"value":3,"offby":0,"category":"$196 - $210","category_index":5},{"value":0,"offby":-1,"category":"$211 - $225","category_index":6}],"phase":1,"number":1,"trial_type":"bar-choose","trial_index":135,"time_elapsed":1443513,"internal_node_id":"0.0-135.0"},{"special_comment":"no","trial_type":"special_sequence","trial_index":136,"time_elapsed":1470304,"internal_node_id":"0.0-136.0"},{"during":"Nothing","bonus":280,"trial_type":"final","trial_index":137,"time_elapsed":1487498,"internal_node_id":"0.0-137.0"}],"bonus":280}