{"start_time":"2017-02-21 11:20:21","end_time":"2017-02-21 11:43:10","points_phase0":116,"points_phase1":105,"phase_order":1,"age":44,"gender":"f","tries":1,"during":"Nothing","worker_id":"AY7WPVKHVNBLG","assignment_id":"3WJ1OXY92B97RKDTP6NZGAYN9CPA8O","data":[{"rt":11172,"url":"\/tickets\/utils\/consent.html","trial_type":"html","trial_index":0,"time_elapsed":11262,"internal_node_id":"0.0-0.0"},{"age":44,"gender":"f","trial_type":"age","trial_index":1,"time_elapsed":16950,"internal_node_id":"0.0-1.0"},{"worker_id":"AY7WPVKHVNBLG","trial_type":"workerid","trial_index":2,"time_elapsed":25845,"internal_node_id":"0.0-2.0"},{"tries":1,"trial_type":"instructions_check","trial_index":3,"time_elapsed":57158,"internal_node_id":"0.0-3.0"},{"rt":21008,"url":"\/tickets\/utils\/start.html","trial_type":"html","trial_index":4,"time_elapsed":79278,"internal_node_id":"0.0-4.0"},{"trial_type":"number-animation","trial_index":5,"time_elapsed":98110,"internal_node_id":"0.0-5.0"},{"phase":0,"sequence":0,"avg":182,"response":170,"trial_type":"training_avg","trial_index":6,"time_elapsed":107630,"internal_node_id":"0.0-6.0"},{"trial_type":"number-animation","trial_index":7,"time_elapsed":121069,"internal_node_id":"0.0-7.0"},{"phase":0,"sequence":1,"avg":188,"response":179,"trial_type":"training_avg","trial_index":8,"time_elapsed":128134,"internal_node_id":"0.0-8.0"},{"trial_type":"number-animation","trial_index":9,"time_elapsed":140190,"internal_node_id":"0.0-9.0"},{"phase":0,"sequence":2,"avg":176,"response":181,"trial_type":"training_avg","trial_index":10,"time_elapsed":146685,"internal_node_id":"0.0-10.0"},{"trial_type":"number-animation","trial_index":11,"time_elapsed":156854,"internal_node_id":"0.0-11.0"},{"phase":0,"sequence":3,"avg":180,"response":175,"trial_type":"training_avg","trial_index":12,"time_elapsed":165038,"internal_node_id":"0.0-12.0"},{"trial_type":"number-animation","trial_index":13,"time_elapsed":176253,"internal_node_id":"0.0-13.0"},{"phase":0,"sequence":4,"avg":174,"response":174,"trial_type":"training_avg","trial_index":14,"time_elapsed":183414,"internal_node_id":"0.0-14.0"},{"responses":[{"value":0,"offby":-1,"category":"$90 - $120","category_index":0},{"value":2,"offby":-1,"category":"$121 - $145","category_index":1},{"value":5,"offby":2,"category":"$146 - $170","category_index":2},{"value":6,"offby":0,"category":"$171 - $195","category_index":3},{"value":5,"offby":1,"category":"$196 - $220","category_index":4},{"value":2,"offby":0,"category":"$221 - $245","category_index":5},{"value":0,"offby":-1,"category":"$246 - $270","category_index":6}],"phase":0,"number":0,"trial_type":"bar-choose","trial_index":15,"time_elapsed":260037,"internal_node_id":"0.0-15.0"},{"rt":34987,"url":"\/tickets\/\/utils\/testing.html","trial_type":"html","trial_index":16,"time_elapsed":296118,"internal_node_id":"0.0-16.0"},{"phase":0,"order":[45,2,21,18,17,8,6,12,24,46,33,35,23,27,7,30,38,4,3,28,43,31,5,25,16,41,37,29,49,48,14,40,42,20,1,26,36,47,11,0,19,34,22,9,13,10,32,44,39,15],"trial_type":"store_order","trial_index":17,"time_elapsed":297119,"internal_node_id":"0.0-17.0"},{"result":165,"points":2,"place":1,"phase":0,"sequence":-1,"prices":[184,180,224,165,181,199,185,193,218,126],"times":[2814,1493,1111,2253],"next_num":4,"trial_type":"ticket-choose","trial_index":18,"time_elapsed":307957,"internal_node_id":"0.0-18.0"},{"rt":22354,"url":"\/tickets\/utils\/testing_after.html","trial_type":"html","trial_index":19,"time_elapsed":331414,"internal_node_id":"0.0-19.0"},{"result":154,"points":2,"place":1,"phase":0,"sequence":0,"prices":[170,193,176,245,178,194,154,159,236,126],"times":[2760,967,1206,940,1710,2070,1229],"next_num":7,"trial_type":"ticket-choose","trial_index":20,"time_elapsed":346885,"internal_node_id":"0.0-20.0"},{"result":154,"points":2,"place":1,"phase":0,"sequence":1,"prices":[169,193,154,255,178,194,176,158,239,126],"times":[1608,670,3111],"next_num":3,"trial_type":"ticket-choose","trial_index":21,"time_elapsed":354949,"internal_node_id":"0.0-21.0"},{"result":149,"points":2,"place":1,"phase":0,"sequence":2,"prices":[196,221,149,164,216,167,175,128,176,181],"times":[1206,559,1031],"next_num":3,"trial_type":"ticket-choose","trial_index":22,"time_elapsed":360997,"internal_node_id":"0.0-22.0"},{"result":124,"points":3,"place":0,"phase":0,"sequence":3,"prices":[124,220,136,165,185,234,143,225,228,179],"times":[1397],"next_num":1,"trial_type":"ticket-choose","trial_index":23,"time_elapsed":366053,"internal_node_id":"0.0-23.0"},{"result":146,"points":2,"place":1,"phase":0,"sequence":4,"prices":[171,195,172,242,179,196,146,150,128,235],"times":[1501,639,551,702,710,759,1134],"next_num":7,"trial_type":"ticket-choose","trial_index":24,"time_elapsed":375621,"internal_node_id":"0.0-24.0"},{"result":136,"points":2,"place":1,"phase":0,"sequence":5,"prices":[171,192,136,243,182,195,174,154,236,128],"times":[2545,559,975],"next_num":3,"trial_type":"ticket-choose","trial_index":25,"time_elapsed":382318,"internal_node_id":"0.0-25.0"},{"result":129,"points":2,"place":1,"phase":0,"sequence":6,"prices":[155,129,164,189,210,108,187,241,174,275],"times":[1883,942],"next_num":2,"trial_type":"ticket-choose","trial_index":26,"time_elapsed":387357,"internal_node_id":"0.0-26.0"},{"result":170,"points":1,"place":3,"phase":0,"sequence":7,"prices":[170,192,174,242,181,196,136,153,236,128],"times":[1185],"next_num":1,"trial_type":"ticket-choose","trial_index":27,"time_elapsed":392197,"internal_node_id":"0.0-27.0"},{"result":136,"points":3,"place":0,"phase":0,"sequence":8,"prices":[240,188,273,207,250,136,217,170,171,236],"times":[834,527,542,567,631,1029],"next_num":6,"trial_type":"ticket-choose","trial_index":28,"time_elapsed":400021,"internal_node_id":"0.0-28.0"},{"result":136,"points":2,"place":1,"phase":0,"sequence":9,"prices":[172,190,136,270,179,192,174,152,237,129],"times":[968,502,982],"next_num":3,"trial_type":"ticket-choose","trial_index":29,"time_elapsed":405037,"internal_node_id":"0.0-29.0"},{"result":136,"points":2,"place":1,"phase":0,"sequence":10,"prices":[169,192,174,246,180,195,136,152,238,126],"times":[1161,687,582,599,526,623,1023],"next_num":7,"trial_type":"ticket-choose","trial_index":30,"time_elapsed":413677,"internal_node_id":"0.0-30.0"},{"result":116,"points":3,"place":0,"phase":0,"sequence":11,"prices":[181,130,116,142,157,193,165,218,173,207],"times":[1933,1175,1079],"next_num":3,"trial_type":"ticket-choose","trial_index":31,"time_elapsed":420686,"internal_node_id":"0.0-31.0"},{"result":125,"points":3,"place":0,"phase":0,"sequence":12,"prices":[169,192,176,244,178,194,154,159,237,125],"times":[806,710,591,590,655,575,1020,1398,879,1374],"next_num":10,"trial_type":"ticket-choose","trial_index":32,"time_elapsed":434093,"internal_node_id":"0.0-32.0"},{"result":126,"points":3,"place":0,"phase":0,"sequence":13,"prices":[173,191,146,242,178,194,172,152,126,235],"times":[1071,574,1014,615,728,814,1143,1909,1063],"next_num":9,"trial_type":"ticket-choose","trial_index":33,"time_elapsed":446917,"internal_node_id":"0.0-33.0"},{"result":118,"points":2,"place":1,"phase":0,"sequence":14,"prices":[181,138,118,170,190,101,146,169,175,233],"times":[1161,1373,1086],"next_num":3,"trial_type":"ticket-choose","trial_index":34,"time_elapsed":453277,"internal_node_id":"0.0-34.0"},{"result":129,"points":3,"place":0,"phase":0,"sequence":15,"prices":[169,193,146,237,180,196,172,150,129,236],"times":[942,935,759,567,575,550,688,1087,967],"next_num":9,"trial_type":"ticket-choose","trial_index":35,"time_elapsed":465189,"internal_node_id":"0.0-35.0"},{"result":127,"points":3,"place":0,"phase":0,"sequence":16,"prices":[171,192,136,265,180,194,174,152,239,127],"times":[873,591,1006,502,551,591,686,1124,791,871],"next_num":10,"trial_type":"ticket-choose","trial_index":36,"time_elapsed":477780,"internal_node_id":"0.0-36.0"},{"result":149,"points":1,"place":2,"phase":0,"sequence":17,"prices":[170,193,146,268,178,195,172,149,126,241],"times":[974,600,838,614,718,661,1302,2878],"next_num":8,"trial_type":"ticket-choose","trial_index":37,"time_elapsed":490029,"internal_node_id":"0.0-37.0"},{"result":124,"points":3,"place":0,"phase":0,"sequence":18,"prices":[219,183,227,124,176,161,140,129,171,201],"times":[900,509,526,1005],"next_num":4,"trial_type":"ticket-choose","trial_index":38,"time_elapsed":495796,"internal_node_id":"0.0-38.0"},{"result":131,"points":2,"place":1,"phase":0,"sequence":19,"prices":[221,234,131,136,132,149,154,90,176,173],"times":[931,495,1333],"next_num":3,"trial_type":"ticket-choose","trial_index":39,"time_elapsed":500900,"internal_node_id":"0.0-39.0"},{"result":126,"points":3,"place":0,"phase":0,"sequence":20,"prices":[168,191,146,252,183,193,172,153,126,238],"times":[929,543,556,527,608,557,1144,1446,927],"next_num":9,"trial_type":"ticket-choose","trial_index":40,"time_elapsed":511765,"internal_node_id":"0.0-40.0"},{"result":124,"points":3,"place":0,"phase":0,"sequence":21,"prices":[216,206,158,145,224,185,124,149,175,162],"times":[1879,558,503,687,590,646,919],"next_num":7,"trial_type":"ticket-choose","trial_index":41,"time_elapsed":521092,"internal_node_id":"0.0-41.0"},{"result":119,"points":3,"place":0,"phase":0,"sequence":22,"prices":[198,119,169,141,195,233,136,208,177,217],"times":[985,1239],"next_num":2,"trial_type":"ticket-choose","trial_index":42,"time_elapsed":525508,"internal_node_id":"0.0-42.0"},{"result":127,"points":3,"place":0,"phase":0,"sequence":23,"prices":[169,194,154,271,178,201,176,158,236,127],"times":[691,502,519,589,774,927,638,998,662,866],"next_num":10,"trial_type":"ticket-choose","trial_index":43,"time_elapsed":537068,"internal_node_id":"0.0-43.0"},{"result":135,"points":3,"place":0,"phase":0,"sequence":24,"prices":[221,193,135,188,217,179,196,190,175,159],"times":[1220,1779,1454],"next_num":3,"trial_type":"ticket-choose","trial_index":44,"time_elapsed":543987,"internal_node_id":"0.0-44.0"},{"result":136,"points":2,"place":1,"phase":0,"sequence":25,"prices":[173,191,174,270,180,193,136,153,239,129],"times":[767,510,534,910,613,654,887],"next_num":7,"trial_type":"ticket-choose","trial_index":45,"time_elapsed":552020,"internal_node_id":"0.0-45.0"},{"result":192,"points":1,"place":4,"phase":0,"sequence":26,"prices":[157,205,161,175,197,254,165,210,214,192],"times":[767,718,508,510,535,654,864,623,630,1286],"next_num":10,"trial_type":"ticket-choose","trial_index":46,"time_elapsed":563819,"internal_node_id":"0.0-46.0"},{"result":117,"points":3,"place":0,"phase":0,"sequence":27,"prices":[117,161,120,147,153,259,144,191,195,149],"times":[1431],"next_num":1,"trial_type":"ticket-choose","trial_index":47,"time_elapsed":567195,"internal_node_id":"0.0-47.0"},{"result":136,"points":2,"place":1,"phase":0,"sequence":28,"prices":[172,194,174,243,182,193,136,150,237,126],"times":[804,424,485,582,607,559,861],"next_num":7,"trial_type":"ticket-choose","trial_index":48,"time_elapsed":574659,"internal_node_id":"0.0-48.0"},{"result":132,"points":3,"place":0,"phase":0,"sequence":29,"prices":[168,192,176,242,183,197,154,156,237,132],"times":[688,543,446,511,406,478,590,526,822,807],"next_num":10,"trial_type":"ticket-choose","trial_index":49,"time_elapsed":584380,"internal_node_id":"0.0-49.0"},{"result":152,"points":2,"place":1,"phase":0,"sequence":30,"prices":[156,218,212,216,191,210,275,146,174,152],"times":[770,415,391,390,431,463,487,1894,566,806],"next_num":10,"trial_type":"ticket-choose","trial_index":50,"time_elapsed":595203,"internal_node_id":"0.0-50.0"},{"result":116,"points":3,"place":0,"phase":0,"sequence":31,"prices":[186,146,191,179,152,116,140,201,172,187],"times":[894,391,406,439,559,893],"next_num":6,"trial_type":"ticket-choose","trial_index":51,"time_elapsed":601700,"internal_node_id":"0.0-51.0"},{"result":131,"points":3,"place":0,"phase":0,"sequence":32,"prices":[170,190,176,251,183,192,154,157,236,131],"times":[792,431,382,687,503,623,1247,663,1407,750],"next_num":10,"trial_type":"ticket-choose","trial_index":52,"time_elapsed":613052,"internal_node_id":"0.0-52.0"},{"result":188,"points":1,"place":4,"phase":0,"sequence":33,"prices":[142,207,171,182,190,269,180,218,256,188],"times":[1017,462,502,472,542,631,567,726,551,936],"next_num":10,"trial_type":"ticket-choose","trial_index":53,"time_elapsed":623508,"internal_node_id":"0.0-53.0"},{"result":105,"points":3,"place":0,"phase":0,"sequence":34,"prices":[263,165,224,214,105,230,215,185,177,193],"times":[921,431,583,533,903],"next_num":5,"trial_type":"ticket-choose","trial_index":54,"time_elapsed":629748,"internal_node_id":"0.0-54.0"},{"result":137,"points":3,"place":0,"phase":0,"sequence":35,"prices":[137,187,152,156,166,231,155,194,202,160],"times":[1460],"next_num":1,"trial_type":"ticket-choose","trial_index":55,"time_elapsed":633204,"internal_node_id":"0.0-55.0"},{"result":135,"points":3,"place":0,"phase":0,"sequence":36,"prices":[135,202,150,169,183,225,160,211,220,172],"times":[910],"next_num":1,"trial_type":"ticket-choose","trial_index":56,"time_elapsed":636300,"internal_node_id":"0.0-56.0"},{"result":133,"points":3,"place":0,"phase":0,"sequence":37,"prices":[168,192,154,237,182,196,176,156,235,133],"times":[1211,560,422,590,629,566,575,1910,639,814],"next_num":10,"trial_type":"ticket-choose","trial_index":57,"time_elapsed":647908,"internal_node_id":"0.0-57.0"},{"result":162,"points":1,"place":3,"phase":0,"sequence":38,"prices":[197,153,181,215,150,155,164,247,177,162],"times":[773,1215,430,470,791,526,662,846,694,1142],"next_num":10,"trial_type":"ticket-choose","trial_index":58,"time_elapsed":659684,"internal_node_id":"0.0-58.0"},{"result":132,"points":3,"place":0,"phase":0,"sequence":39,"prices":[132,222,144,153,190,248,151,224,228,179],"times":[1312],"next_num":1,"trial_type":"ticket-choose","trial_index":59,"time_elapsed":662804,"internal_node_id":"0.0-59.0"},{"result":136,"points":2,"place":1,"phase":0,"sequence":40,"prices":[173,194,136,239,182,200,174,150,236,127],"times":[954,567,895],"next_num":3,"trial_type":"ticket-choose","trial_index":60,"time_elapsed":667500,"internal_node_id":"0.0-60.0"},{"result":146,"points":2,"place":1,"phase":0,"sequence":41,"prices":[171,191,172,268,179,194,146,150,127,239],"times":[707,446,486,574,565,727,943],"next_num":7,"trial_type":"ticket-choose","trial_index":61,"time_elapsed":675083,"internal_node_id":"0.0-61.0"},{"result":196,"points":1,"place":4,"phase":0,"sequence":42,"prices":[143,206,153,194,201,267,168,208,210,196],"times":[736,454,486,583,1141,527,659,823,623,1207],"next_num":10,"trial_type":"ticket-choose","trial_index":62,"time_elapsed":686188,"internal_node_id":"0.0-62.0"},{"result":155,"points":1,"place":2,"phase":0,"sequence":43,"prices":[169,191,154,268,183,197,176,155,236,133],"times":[1128,437,415,583,631,519,893,911],"next_num":8,"trial_type":"ticket-choose","trial_index":63,"time_elapsed":695020,"internal_node_id":"0.0-63.0"},{"result":154,"points":2,"place":1,"phase":0,"sequence":44,"prices":[244,203,196,189,154,206,197,149,171,159],"times":[881,454,422,758,927],"next_num":5,"trial_type":"ticket-choose","trial_index":64,"time_elapsed":701221,"internal_node_id":"0.0-64.0"},{"result":114,"points":3,"place":0,"phase":0,"sequence":45,"prices":[182,249,159,114,184,205,175,189,172,178],"times":[691,406,447,894],"next_num":4,"trial_type":"ticket-choose","trial_index":65,"time_elapsed":706132,"internal_node_id":"0.0-65.0"},{"result":146,"points":2,"place":1,"phase":0,"sequence":46,"prices":[168,191,172,240,183,193,146,151,125,238],"times":[889,438,502,623,567,1008,973],"next_num":7,"trial_type":"ticket-choose","trial_index":66,"time_elapsed":714332,"internal_node_id":"0.0-66.0"},{"result":189,"points":1,"place":4,"phase":0,"sequence":47,"prices":[157,213,159,187,194,242,161,222,225,189],"times":[1457,463,470,621,535,551,943,575,1031,807],"next_num":10,"trial_type":"ticket-choose","trial_index":67,"time_elapsed":725691,"internal_node_id":"0.0-67.0"},{"result":146,"points":2,"place":1,"phase":0,"sequence":48,"prices":[172,191,176,272,179,194,146,152,126,235],"times":[833,479,438,591,574,685,846],"next_num":7,"trial_type":"ticket-choose","trial_index":68,"time_elapsed":733220,"internal_node_id":"0.0-68.0"},{"result":121,"points":3,"place":0,"phase":0,"sequence":49,"prices":[121,191,128,141,166,217,129,196,202,157],"times":[1623],"next_num":1,"trial_type":"ticket-choose","trial_index":69,"time_elapsed":736692,"internal_node_id":"0.0-69.0"},{"responses":[{"value":0,"offby":-1,"category":"$90 - $120","category_index":0},{"value":2,"offby":-1,"category":"$121 - $145","category_index":1},{"value":5,"offby":2,"category":"$146 - $170","category_index":2},{"value":6,"offby":0,"category":"$171 - $195","category_index":3},{"value":5,"offby":1,"category":"$196 - $220","category_index":4},{"value":1,"offby":-1,"category":"$221 - $245","category_index":5},{"value":0,"offby":-1,"category":"$246 - $270","category_index":6}],"phase":0,"number":1,"trial_type":"bar-choose","trial_index":70,"time_elapsed":785109,"internal_node_id":"0.0-70.0"},{"rt":5012,"url":"\/tickets\/utils\/start2.html","trial_type":"html","trial_index":71,"time_elapsed":791228,"internal_node_id":"0.0-71.0"},{"trial_type":"number-animation","trial_index":72,"time_elapsed":800867,"internal_node_id":"0.0-72.0"},{"phase":1,"sequence":0,"avg":181,"response":170,"trial_type":"training_avg","trial_index":73,"time_elapsed":806300,"internal_node_id":"0.0-73.0"},{"trial_type":"number-animation","trial_index":74,"time_elapsed":814443,"internal_node_id":"0.0-74.0"},{"phase":1,"sequence":1,"avg":188,"response":176,"trial_type":"training_avg","trial_index":75,"time_elapsed":821708,"internal_node_id":"0.0-75.0"},{"trial_type":"number-animation","trial_index":76,"time_elapsed":832731,"internal_node_id":"0.0-76.0"},{"phase":1,"sequence":2,"avg":188,"response":184,"trial_type":"training_avg","trial_index":77,"time_elapsed":837868,"internal_node_id":"0.0-77.0"},{"trial_type":"number-animation","trial_index":78,"time_elapsed":846091,"internal_node_id":"0.0-78.0"},{"phase":1,"sequence":3,"avg":177,"response":175,"trial_type":"training_avg","trial_index":79,"time_elapsed":851035,"internal_node_id":"0.0-79.0"},{"trial_type":"number-animation","trial_index":80,"time_elapsed":858995,"internal_node_id":"0.0-80.0"},{"phase":1,"sequence":4,"avg":182,"response":181,"trial_type":"training_avg","trial_index":81,"time_elapsed":865364,"internal_node_id":"0.0-81.0"},{"responses":[{"value":0,"offby":0,"category":"$106 - $134","category_index":0},{"value":3,"offby":2,"category":"$135 - $150","category_index":1},{"value":4,"offby":1,"category":"$151 - $165","category_index":2},{"value":5,"offby":-1,"category":"$166 - $180","category_index":3},{"value":5,"offby":-1,"category":"$181 - $195","category_index":4},{"value":3,"offby":0,"category":"$196 - $210","category_index":5},{"value":0,"offby":-1,"category":"$211 - $225","category_index":6}],"phase":1,"number":0,"trial_type":"bar-choose","trial_index":82,"time_elapsed":897380,"internal_node_id":"0.0-82.0"},{"rt":8725,"url":"\/tickets\/utils\/testing2.html","trial_type":"html","trial_index":83,"time_elapsed":907219,"internal_node_id":"0.0-83.0"},{"phase":1,"order":[15,10,36,26,5,17,35,21,46,19,20,34,14,0,44,1,16,3,47,41,2,37,40,11,43,23,27,31,22,12,38,49,13,24,42,33,30,8,39,25,18,7,32,9,45,48,6,28,4,29],"trial_type":"store_order","trial_index":84,"time_elapsed":908221,"internal_node_id":"0.0-84.0"},{"result":164,"points":3,"place":0,"phase":1,"sequence":0,"prices":[212,192,188,184,167,193,189,164,176,170],"times":[2430,447,414,454,446,479,526,830],"next_num":8,"trial_type":"ticket-choose","trial_index":85,"time_elapsed":917651,"internal_node_id":"0.0-85.0"},{"result":166,"points":1,"place":2,"phase":1,"sequence":1,"prices":[174,186,163,212,181,187,176,166,153,209],"times":[903,399,374,527,422,494,600,942],"next_num":8,"trial_type":"ticket-choose","trial_index":86,"time_elapsed":925762,"internal_node_id":"0.0-86.0"},{"result":154,"points":3,"place":0,"phase":1,"sequence":2,"prices":[175,186,177,209,181,188,158,167,208,154],"times":[774,382,359,422,1734,479,431,479,887,791],"next_num":10,"trial_type":"ticket-choose","trial_index":87,"time_elapsed":936602,"internal_node_id":"0.0-87.0"},{"result":153,"points":3,"place":0,"phase":1,"sequence":3,"prices":[176,187,158,210,181,187,177,165,208,153],"times":[971,367,399,470,461,477,718,998,552,743],"next_num":10,"trial_type":"ticket-choose","trial_index":88,"time_elapsed":946826,"internal_node_id":"0.0-88.0"},{"result":154,"points":3,"place":0,"phase":1,"sequence":4,"prices":[175,186,158,209,181,188,177,167,208,154],"times":[856,439,407,487,375,478,494,462,551,679],"next_num":10,"trial_type":"ticket-choose","trial_index":89,"time_elapsed":956258,"internal_node_id":"0.0-89.0"},{"result":156,"points":3,"place":0,"phase":1,"sequence":5,"prices":[174,186,167,211,181,188,178,168,208,156],"times":[815,383,422,326,423,415,544,1407,606,807],"next_num":10,"trial_type":"ticket-choose","trial_index":90,"time_elapsed":966322,"internal_node_id":"0.0-90.0"},{"result":209,"points":0,"place":8,"phase":1,"sequence":6,"prices":[174,186,176,217,181,187,163,166,153,209],"times":[802,247,295,341,351,302,344,542,391,1014],"next_num":10,"trial_type":"ticket-choose","trial_index":91,"time_elapsed":974835,"internal_node_id":"0.0-91.0"},{"result":168,"points":1,"place":2,"phase":1,"sequence":7,"prices":[174,186,178,217,181,188,167,168,208,156],"times":[973,374,367,408,437,655,519,2007],"next_num":8,"trial_type":"ticket-choose","trial_index":92,"time_elapsed":983875,"internal_node_id":"0.0-92.0"},{"result":184,"points":1,"place":4,"phase":1,"sequence":8,"prices":[161,193,175,181,185,224,180,199,218,184],"times":[1179,414,375,328,550,472,647,630,679,911],"next_num":10,"trial_type":"ticket-choose","trial_index":93,"time_elapsed":994259,"internal_node_id":"0.0-93.0"},{"result":158,"points":3,"place":0,"phase":1,"sequence":9,"prices":[210,184,226,193,215,158,199,175,176,208],"times":[848,359,398,519,598,919],"next_num":6,"trial_type":"ticket-choose","trial_index":94,"time_elapsed":1000755,"internal_node_id":"0.0-94.0"},{"result":159,"points":3,"place":0,"phase":1,"sequence":10,"prices":[159,183,166,168,173,205,167,187,191,170],"times":[1014],"next_num":1,"trial_type":"ticket-choose","trial_index":95,"time_elapsed":1003643,"internal_node_id":"0.0-95.0"},{"result":154,"points":2,"place":1,"phase":1,"sequence":11,"prices":[168,154,172,185,195,144,184,211,177,227],"times":[765,823],"next_num":2,"trial_type":"ticket-choose","trial_index":96,"time_elapsed":1007235,"internal_node_id":"0.0-96.0"},{"result":158,"points":2,"place":1,"phase":1,"sequence":12,"prices":[176,185,177,218,180,186,158,166,209,154],"times":[689,600,462,517,615,527,854],"next_num":7,"trial_type":"ticket-choose","trial_index":97,"time_elapsed":1014587,"internal_node_id":"0.0-97.0"},{"result":186,"points":1,"place":4,"phase":1,"sequence":13,"prices":[168,192,171,178,188,217,172,195,197,186],"times":[482,382,351,399,462,430,583,887,572,694],"next_num":10,"trial_type":"ticket-choose","trial_index":98,"time_elapsed":1023691,"internal_node_id":"0.0-98.0"},{"result":163,"points":2,"place":1,"phase":1,"sequence":14,"prices":[175,186,176,224,179,187,163,165,153,210],"times":[723,422,464,542,487,535,919],"next_num":7,"trial_type":"ticket-choose","trial_index":99,"time_elapsed":1030738,"internal_node_id":"0.0-99.0"},{"result":157,"points":3,"place":0,"phase":1,"sequence":15,"prices":[157,191,165,175,182,203,170,195,200,176],"times":[1043],"next_num":1,"trial_type":"ticket-choose","trial_index":100,"time_elapsed":1033531,"internal_node_id":"0.0-100.0"},{"result":168,"points":1,"place":2,"phase":1,"sequence":16,"prices":[168,199,196,198,185,195,227,163,177,166],"times":[1152],"next_num":1,"trial_type":"ticket-choose","trial_index":101,"time_elapsed":1036346,"internal_node_id":"0.0-101.0"},{"result":163,"points":2,"place":1,"phase":1,"sequence":17,"prices":[176,186,176,210,179,187,163,166,153,208],"times":[731,470,429,583,645,462,911],"next_num":7,"trial_type":"ticket-choose","trial_index":102,"time_elapsed":1043530,"internal_node_id":"0.0-102.0"},{"result":165,"points":1,"place":2,"phase":1,"sequence":18,"prices":[175,186,163,211,179,187,176,165,153,210],"times":[683,423,357,343,368,511,558,847],"next_num":8,"trial_type":"ticket-choose","trial_index":103,"time_elapsed":1050858,"internal_node_id":"0.0-103.0"},{"result":185,"points":1,"place":4,"phase":1,"sequence":19,"prices":[169,196,170,184,187,211,171,201,202,185],"times":[844,415,477,439,535,517,479,541,1063,662],"next_num":10,"trial_type":"ticket-choose","trial_index":104,"time_elapsed":1061203,"internal_node_id":"0.0-104.0"},{"result":170,"points":2,"place":1,"phase":1,"sequence":20,"prices":[201,187,157,184,198,179,188,185,178,170],"times":[837,374,272,463,352,472,669,630,696,677],"next_num":10,"trial_type":"ticket-choose","trial_index":105,"time_elapsed":1070595,"internal_node_id":"0.0-105.0"},{"result":148,"points":3,"place":0,"phase":1,"sequence":21,"prices":[148,171,150,163,167,220,162,186,187,165],"times":[910],"next_num":1,"trial_type":"ticket-choose","trial_index":106,"time_elapsed":1073275,"internal_node_id":"0.0-106.0"},{"result":163,"points":2,"place":1,"phase":1,"sequence":22,"prices":[175,187,176,209,180,188,163,165,154,208],"times":[1505,421,447,455,526,600,828],"next_num":7,"trial_type":"ticket-choose","trial_index":107,"time_elapsed":1081042,"internal_node_id":"0.0-107.0"},{"result":165,"points":1,"place":2,"phase":1,"sequence":23,"prices":[156,201,162,166,185,214,165,202,204,179],"times":[993,439,375,518,599,615,1223],"next_num":7,"trial_type":"ticket-choose","trial_index":108,"time_elapsed":1088924,"internal_node_id":"0.0-108.0"},{"result":153,"points":3,"place":0,"phase":1,"sequence":24,"prices":[175,186,158,211,180,187,177,166,209,153],"times":[813,542,456,414,399,455,455,646,678,712],"next_num":10,"trial_type":"ticket-choose","trial_index":109,"time_elapsed":1098763,"internal_node_id":"0.0-109.0"},{"result":156,"points":1,"place":2,"phase":1,"sequence":25,"prices":[201,207,155,158,156,165,167,135,178,177],"times":[768,504,398,454,807],"next_num":5,"trial_type":"ticket-choose","trial_index":110,"time_elapsed":1104298,"internal_node_id":"0.0-110.0"},{"result":152,"points":3,"place":0,"phase":1,"sequence":26,"prices":[198,193,169,163,202,182,152,164,177,171],"times":[849,559,703,533,598,613,870],"next_num":7,"trial_type":"ticket-choose","trial_index":111,"time_elapsed":1112114,"internal_node_id":"0.0-111.0"},{"result":150,"points":3,"place":0,"phase":1,"sequence":27,"prices":[150,185,154,161,173,199,155,188,191,168],"times":[921],"next_num":1,"trial_type":"ticket-choose","trial_index":112,"time_elapsed":1114875,"internal_node_id":"0.0-112.0"},{"result":163,"points":1,"place":2,"phase":1,"sequence":28,"prices":[183,163,185,180,166,148,160,186,176,184],"times":[761,902],"next_num":2,"trial_type":"ticket-choose","trial_index":113,"time_elapsed":1118546,"internal_node_id":"0.0-113.0"},{"result":179,"points":1,"place":4,"phase":1,"sequence":29,"prices":[181,215,169,147,182,193,177,184,176,179],"times":[681,718,846,472,597,566,735,590,1175,717],"next_num":10,"trial_type":"ticket-choose","trial_index":114,"time_elapsed":1129419,"internal_node_id":"0.0-114.0"},{"result":153,"points":3,"place":0,"phase":1,"sequence":30,"prices":[175,186,178,212,179,187,167,169,209,153],"times":[1020,702,735,694,767,742,991,982,726,703],"next_num":10,"trial_type":"ticket-choose","trial_index":115,"time_elapsed":1141298,"internal_node_id":"0.0-115.0"},{"result":150,"points":3,"place":0,"phase":1,"sequence":31,"prices":[189,150,175,160,188,207,158,194,178,199],"times":[761,831],"next_num":2,"trial_type":"ticket-choose","trial_index":116,"time_elapsed":1144890,"internal_node_id":"0.0-116.0"},{"result":143,"points":3,"place":0,"phase":1,"sequence":32,"prices":[222,173,202,197,143,205,198,183,178,186],"times":[704,638,598,791,839],"next_num":5,"trial_type":"ticket-choose","trial_index":117,"time_elapsed":1151058,"internal_node_id":"0.0-117.0"},{"result":158,"points":2,"place":1,"phase":1,"sequence":33,"prices":[175,186,177,221,180,187,158,166,209,153],"times":[619,543,565,663,678,566,854],"next_num":7,"trial_type":"ticket-choose","trial_index":118,"time_elapsed":1158842,"internal_node_id":"0.0-118.0"},{"result":165,"points":1,"place":2,"phase":1,"sequence":34,"prices":[175,187,163,209,180,188,176,165,154,208],"times":[655,469,822,614,711,591,959,1303],"next_num":8,"trial_type":"ticket-choose","trial_index":119,"time_elapsed":1168234,"internal_node_id":"0.0-119.0"},{"result":152,"points":3,"place":0,"phase":1,"sequence":35,"prices":[152,200,158,173,182,207,161,202,204,180],"times":[906],"next_num":1,"trial_type":"ticket-choose","trial_index":120,"time_elapsed":1170866,"internal_node_id":"0.0-120.0"},{"result":154,"points":3,"place":0,"phase":1,"sequence":36,"prices":[188,200,165,172,198,174,177,154,177,180],"times":[848,504,550,726,590,807,990,837],"next_num":8,"trial_type":"ticket-choose","trial_index":121,"time_elapsed":1179915,"internal_node_id":"0.0-121.0"},{"result":152,"points":3,"place":0,"phase":1,"sequence":37,"prices":[200,181,203,152,175,171,160,154,176,191],"times":[684,423,479,774],"next_num":4,"trial_type":"ticket-choose","trial_index":122,"time_elapsed":1184658,"internal_node_id":"0.0-122.0"},{"result":153,"points":3,"place":0,"phase":1,"sequence":38,"prices":[175,187,167,212,179,187,178,169,208,153],"times":[571,654,494,561,548,590,575,807,686,718],"next_num":10,"trial_type":"ticket-choose","trial_index":123,"time_elapsed":1194546,"internal_node_id":"0.0-123.0"},{"result":153,"points":3,"place":0,"phase":1,"sequence":39,"prices":[176,186,163,214,179,187,176,166,153,208],"times":[702,462,456,1743,445,558,534,1910,854],"next_num":9,"trial_type":"ticket-choose","trial_index":124,"time_elapsed":1205586,"internal_node_id":"0.0-124.0"},{"result":158,"points":2,"place":1,"phase":1,"sequence":40,"prices":[176,185,158,217,180,186,177,166,209,154],"times":[612,630,855],"next_num":3,"trial_type":"ticket-choose","trial_index":125,"time_elapsed":1209913,"internal_node_id":"0.0-125.0"},{"result":194,"points":0,"place":8,"phase":1,"sequence":41,"prices":[181,155,148,161,168,187,172,199,176,194],"times":[569,405,431,815,535,558,783,775,902,870],"next_num":10,"trial_type":"ticket-choose","trial_index":126,"time_elapsed":1220521,"internal_node_id":"0.0-126.0"},{"result":158,"points":2,"place":1,"phase":1,"sequence":42,"prices":[176,187,177,225,181,187,158,165,208,153],"times":[1049,558,646,711,774,607,999],"next_num":7,"trial_type":"ticket-choose","trial_index":127,"time_elapsed":1228921,"internal_node_id":"0.0-127.0"},{"result":156,"points":3,"place":0,"phase":1,"sequence":43,"prices":[175,185,167,224,181,186,178,168,208,156],"times":[587,487,893,767,575,631,678,591,960,719],"next_num":10,"trial_type":"ticket-choose","trial_index":128,"time_elapsed":1239625,"internal_node_id":"0.0-128.0"},{"result":156,"points":3,"place":0,"phase":1,"sequence":44,"prices":[175,185,178,215,181,186,167,168,208,156],"times":[870,630,607,678,551,567,1215,942,653,632],"next_num":10,"trial_type":"ticket-choose","trial_index":129,"time_elapsed":1250713,"internal_node_id":"0.0-129.0"},{"result":153,"points":3,"place":0,"phase":1,"sequence":45,"prices":[175,186,167,225,179,187,178,169,209,153],"times":[936,598,998,575,798,807,647,1581,592,742],"next_num":10,"trial_type":"ticket-choose","trial_index":130,"time_elapsed":1262721,"internal_node_id":"0.0-130.0"},{"result":188,"points":1,"place":4,"phase":1,"sequence":46,"prices":[161,193,167,187,190,224,174,194,195,188],"times":[764,542,526,583,598,647,599,679,759,790],"next_num":10,"trial_type":"ticket-choose","trial_index":131,"time_elapsed":1273066,"internal_node_id":"0.0-131.0"},{"result":159,"points":1,"place":2,"phase":1,"sequence":47,"prices":[180,159,149,175,185,141,163,174,178,207],"times":[7475,1303],"next_num":2,"trial_type":"ticket-choose","trial_index":132,"time_elapsed":1283890,"internal_node_id":"0.0-132.0"},{"result":171,"points":1,"place":3,"phase":1,"sequence":48,"prices":[189,167,180,197,165,168,172,213,178,171],"times":[951,677,471,574,630,566,663,830,837,727],"next_num":10,"trial_type":"ticket-choose","trial_index":133,"time_elapsed":1294515,"internal_node_id":"0.0-133.0"},{"result":153,"points":3,"place":0,"phase":1,"sequence":49,"prices":[175,187,178,209,179,187,167,169,208,153],"times":[759,615,719,598,776,726,1564,935,879,703],"next_num":10,"trial_type":"ticket-choose","trial_index":134,"time_elapsed":1306418,"internal_node_id":"0.0-134.0"},{"responses":[{"value":0,"offby":0,"category":"$106 - $134","category_index":0},{"value":3,"offby":2,"category":"$135 - $150","category_index":1},{"value":4,"offby":1,"category":"$151 - $165","category_index":2},{"value":5,"offby":-1,"category":"$166 - $180","category_index":3},{"value":5,"offby":-1,"category":"$181 - $195","category_index":4},{"value":3,"offby":0,"category":"$196 - $210","category_index":5},{"value":0,"offby":-1,"category":"$211 - $225","category_index":6}],"phase":1,"number":1,"trial_type":"bar-choose","trial_index":135,"time_elapsed":1334460,"internal_node_id":"0.0-135.0"},{"special_comment":"No","trial_type":"special_sequence","trial_index":136,"time_elapsed":1339954,"internal_node_id":"0.0-136.0"},{"during":"Nothing","bonus":296,"trial_type":"final","trial_index":137,"time_elapsed":1367347,"internal_node_id":"0.0-137.0"}],"bonus":296}