{"start_time":"2017-02-22 11:39:33","end_time":"2017-02-22 12:20:56","points_phase0":99,"points_phase1":100,"phase_order":1,"age":26,"gender":"m","tries":1,"during":"Nothing","worker_id":"AY7WOX4UCIBU2","assignment_id":"3LOZAJ85YE681IJXKZ6CQRWIO2TX29","data":[{"rt":68033,"url":"\/tickets\/utils\/consent.html","trial_type":"html","trial_index":0,"time_elapsed":68131,"internal_node_id":"0.0-0.0"},{"age":26,"gender":"m","trial_type":"age","trial_index":1,"time_elapsed":72896,"internal_node_id":"0.0-1.0"},{"worker_id":"AY7WOX4UCIBU2","trial_type":"workerid","trial_index":2,"time_elapsed":77461,"internal_node_id":"0.0-2.0"},{"tries":1,"trial_type":"instructions_check","trial_index":3,"time_elapsed":121078,"internal_node_id":"0.0-3.0"},{"rt":13148,"url":"\/tickets\/utils\/start.html","trial_type":"html","trial_index":4,"time_elapsed":135332,"internal_node_id":"0.0-4.0"},{"trial_type":"number-animation","trial_index":5,"time_elapsed":147194,"internal_node_id":"0.0-5.0"},{"phase":0,"sequence":0,"avg":182,"response":188,"trial_type":"training_avg","trial_index":6,"time_elapsed":156343,"internal_node_id":"0.0-6.0"},{"trial_type":"number-animation","trial_index":7,"time_elapsed":184722,"internal_node_id":"0.0-7.0"},{"phase":0,"sequence":1,"avg":188,"response":200,"trial_type":"training_avg","trial_index":8,"time_elapsed":193255,"internal_node_id":"0.0-8.0"},{"trial_type":"number-animation","trial_index":9,"time_elapsed":200962,"internal_node_id":"0.0-9.0"},{"phase":0,"sequence":2,"avg":176,"response":165,"trial_type":"training_avg","trial_index":10,"time_elapsed":262633,"internal_node_id":"0.0-10.0"},{"trial_type":"number-animation","trial_index":11,"time_elapsed":269608,"internal_node_id":"0.0-11.0"},{"phase":0,"sequence":3,"avg":180,"response":179,"trial_type":"training_avg","trial_index":12,"time_elapsed":277370,"internal_node_id":"0.0-12.0"},{"trial_type":"number-animation","trial_index":13,"time_elapsed":285329,"internal_node_id":"0.0-13.0"},{"phase":0,"sequence":4,"avg":174,"response":174,"trial_type":"training_avg","trial_index":14,"time_elapsed":298132,"internal_node_id":"0.0-14.0"},{"responses":[{"value":0,"offby":-1,"category":"$90 - $120","category_index":0},{"value":0,"offby":-3,"category":"$121 - $145","category_index":1},{"value":5,"offby":2,"category":"$146 - $170","category_index":2},{"value":10,"offby":4,"category":"$171 - $195","category_index":3},{"value":5,"offby":1,"category":"$196 - $220","category_index":4},{"value":0,"offby":-2,"category":"$221 - $245","category_index":5},{"value":0,"offby":-1,"category":"$246 - $270","category_index":6}],"phase":0,"number":0,"trial_type":"bar-choose","trial_index":15,"time_elapsed":337762,"internal_node_id":"0.0-15.0"},{"rt":1266839,"url":"\/tickets\/\/utils\/testing.html","trial_type":"html","trial_index":16,"time_elapsed":1605709,"internal_node_id":"0.0-16.0"},{"phase":0,"order":[36,40,7,14,6,39,38,27,30,2,47,44,22,0,48,33,21,19,23,34,25,26,20,13,11,45,35,28,1,29,8,12,4,18,31,24,46,42,32,37,17,10,15,43,16,41,5,3,49,9],"trial_type":"store_order","trial_index":17,"time_elapsed":1606710,"internal_node_id":"0.0-17.0"},{"result":165,"points":2,"place":1,"phase":0,"sequence":-1,"prices":[184,180,224,165,181,199,185,193,218,126],"times":[2205,868,583,1842],"next_num":4,"trial_type":"ticket-choose","trial_index":18,"time_elapsed":1616408,"internal_node_id":"0.0-18.0"},{"rt":8820,"url":"\/tickets\/utils\/testing_after.html","trial_type":"html","trial_index":19,"time_elapsed":1626350,"internal_node_id":"0.0-19.0"},{"result":136,"points":3,"place":0,"phase":0,"sequence":0,"prices":[240,188,273,207,250,136,217,170,171,236],"times":[1005,525,470,478,566,1302],"next_num":6,"trial_type":"ticket-choose","trial_index":20,"time_elapsed":1635756,"internal_node_id":"0.0-20.0"},{"result":151,"points":1,"place":2,"phase":0,"sequence":1,"prices":[132,222,144,153,190,248,151,224,228,179],"times":[635,453,631,636,582,510,1677],"next_num":7,"trial_type":"ticket-choose","trial_index":21,"time_elapsed":1644067,"internal_node_id":"0.0-21.0"},{"result":150,"points":2,"place":1,"phase":0,"sequence":2,"prices":[135,202,150,169,183,225,160,211,220,172],"times":[759,535,8719],"next_num":3,"trial_type":"ticket-choose","trial_index":22,"time_elapsed":1656683,"internal_node_id":"0.0-22.0"},{"result":159,"points":2,"place":1,"phase":0,"sequence":3,"prices":[157,213,159,187,194,242,161,222,225,189],"times":[768,663,1334],"next_num":3,"trial_type":"ticket-choose","trial_index":23,"time_elapsed":1662025,"internal_node_id":"0.0-23.0"},{"result":146,"points":2,"place":1,"phase":0,"sequence":4,"prices":[171,195,172,242,179,196,146,150,128,235],"times":[976,535,572,519,838,694,957],"next_num":7,"trial_type":"ticket-choose","trial_index":24,"time_elapsed":1670373,"internal_node_id":"0.0-24.0"},{"result":142,"points":3,"place":0,"phase":0,"sequence":5,"prices":[142,207,171,182,190,269,180,218,256,188],"times":[1275],"next_num":1,"trial_type":"ticket-choose","trial_index":25,"time_elapsed":1674328,"internal_node_id":"0.0-25.0"},{"result":154,"points":2,"place":1,"phase":0,"sequence":6,"prices":[244,203,196,189,154,206,197,149,171,159],"times":[641,479,620,1017,920],"next_num":5,"trial_type":"ticket-choose","trial_index":26,"time_elapsed":1680669,"internal_node_id":"0.0-26.0"},{"result":136,"points":2,"place":1,"phase":0,"sequence":7,"prices":[173,194,136,239,182,200,174,150,236,127],"times":[1582,510,852],"next_num":3,"trial_type":"ticket-choose","trial_index":27,"time_elapsed":1686020,"internal_node_id":"0.0-27.0"},{"result":154,"points":2,"place":1,"phase":0,"sequence":8,"prices":[170,190,176,251,183,192,154,157,236,131],"times":[518,519,734,598,616,540,822],"next_num":7,"trial_type":"ticket-choose","trial_index":28,"time_elapsed":1693404,"internal_node_id":"0.0-28.0"},{"result":153,"points":2,"place":1,"phase":0,"sequence":9,"prices":[197,153,181,215,150,155,164,247,177,162],"times":[822,906],"next_num":2,"trial_type":"ticket-choose","trial_index":29,"time_elapsed":1697100,"internal_node_id":"0.0-29.0"},{"result":154,"points":2,"place":1,"phase":0,"sequence":10,"prices":[169,193,154,255,178,194,176,158,239,126],"times":[619,1254,853],"next_num":3,"trial_type":"ticket-choose","trial_index":30,"time_elapsed":1701996,"internal_node_id":"0.0-30.0"},{"result":136,"points":2,"place":1,"phase":0,"sequence":11,"prices":[170,192,174,242,181,196,136,153,236,128],"times":[480,494,519,470,455,470,806],"next_num":7,"trial_type":"ticket-choose","trial_index":31,"time_elapsed":1708852,"internal_node_id":"0.0-31.0"},{"result":146,"points":2,"place":1,"phase":0,"sequence":12,"prices":[168,191,146,252,183,193,172,153,126,238],"times":[519,406,1280],"next_num":3,"trial_type":"ticket-choose","trial_index":32,"time_elapsed":1713420,"internal_node_id":"0.0-32.0"},{"result":146,"points":2,"place":1,"phase":0,"sequence":13,"prices":[171,191,172,268,179,194,146,150,127,239],"times":[440,478,479,790,662,598,825],"next_num":7,"trial_type":"ticket-choose","trial_index":33,"time_elapsed":1720636,"internal_node_id":"0.0-33.0"},{"result":196,"points":1,"place":4,"phase":0,"sequence":14,"prices":[143,206,153,194,201,267,168,208,210,196],"times":[574,967,550,535,543,638,1351,526,590,615],"next_num":11,"trial_type":"ticket-choose","trial_index":34,"time_elapsed":1731571,"internal_node_id":"0.0-34.0"},{"result":156,"points":1,"place":2,"phase":0,"sequence":15,"prices":[156,218,212,216,191,210,275,146,174,152],"times":[1455],"next_num":1,"trial_type":"ticket-choose","trial_index":35,"time_elapsed":1734828,"internal_node_id":"0.0-35.0"},{"result":156,"points":1,"place":2,"phase":0,"sequence":16,"prices":[168,192,176,242,183,197,154,156,237,132],"times":[769,492,495,477,462,470,486,1413],"next_num":8,"trial_type":"ticket-choose","trial_index":36,"time_elapsed":1743123,"internal_node_id":"0.0-36.0"},{"result":119,"points":3,"place":0,"phase":0,"sequence":17,"prices":[198,119,169,141,195,233,136,208,177,217],"times":[734,929],"next_num":2,"trial_type":"ticket-choose","trial_index":37,"time_elapsed":1746867,"internal_node_id":"0.0-37.0"},{"result":154,"points":2,"place":1,"phase":0,"sequence":18,"prices":[169,192,176,244,178,194,154,159,237,125],"times":[726,535,925,478,542,581,915],"next_num":7,"trial_type":"ticket-choose","trial_index":38,"time_elapsed":1754547,"internal_node_id":"0.0-38.0"},{"result":136,"points":2,"place":1,"phase":0,"sequence":19,"prices":[169,192,174,246,180,195,136,152,238,126],"times":[697,491,422,430,605,518,954],"next_num":7,"trial_type":"ticket-choose","trial_index":39,"time_elapsed":1761851,"internal_node_id":"0.0-39.0"},{"result":192,"points":1,"place":4,"phase":0,"sequence":20,"prices":[157,205,161,175,197,254,165,210,214,192],"times":[438,382,663,527,518,575,1222,575,583,615],"next_num":11,"trial_type":"ticket-choose","trial_index":40,"time_elapsed":1772130,"internal_node_id":"0.0-40.0"},{"result":131,"points":2,"place":1,"phase":0,"sequence":21,"prices":[221,234,131,136,132,149,154,90,176,173],"times":[631,512,995],"next_num":3,"trial_type":"ticket-choose","trial_index":41,"time_elapsed":1776499,"internal_node_id":"0.0-41.0"},{"result":120,"points":2,"place":1,"phase":0,"sequence":22,"prices":[117,161,120,147,153,259,144,191,195,149],"times":[486,973,869],"next_num":3,"trial_type":"ticket-choose","trial_index":42,"time_elapsed":1780963,"internal_node_id":"0.0-42.0"},{"result":146,"points":2,"place":1,"phase":0,"sequence":23,"prices":[172,191,176,272,179,194,146,152,126,235],"times":[519,542,559,504,518,535,925],"next_num":7,"trial_type":"ticket-choose","trial_index":43,"time_elapsed":1788060,"internal_node_id":"0.0-43.0"},{"result":128,"points":2,"place":1,"phase":0,"sequence":24,"prices":[121,191,128,141,166,217,129,196,202,157],"times":[646,839,720],"next_num":3,"trial_type":"ticket-choose","trial_index":44,"time_elapsed":1792419,"internal_node_id":"0.0-44.0"},{"result":146,"points":2,"place":1,"phase":0,"sequence":25,"prices":[169,193,146,237,180,196,172,150,129,236],"times":[457,550,864],"next_num":3,"trial_type":"ticket-choose","trial_index":45,"time_elapsed":1796452,"internal_node_id":"0.0-45.0"},{"result":146,"points":2,"place":1,"phase":0,"sequence":26,"prices":[170,193,146,268,178,195,172,149,126,241],"times":[2144,2964,853],"next_num":3,"trial_type":"ticket-choose","trial_index":46,"time_elapsed":1804532,"internal_node_id":"0.0-46.0"},{"result":138,"points":1,"place":2,"phase":0,"sequence":27,"prices":[181,138,118,170,190,101,146,169,175,233],"times":[632,901],"next_num":2,"trial_type":"ticket-choose","trial_index":47,"time_elapsed":1807972,"internal_node_id":"0.0-47.0"},{"result":124,"points":3,"place":0,"phase":0,"sequence":28,"prices":[124,220,136,165,185,234,143,225,228,179],"times":[775],"next_num":1,"trial_type":"ticket-choose","trial_index":48,"time_elapsed":1810540,"internal_node_id":"0.0-48.0"},{"result":146,"points":2,"place":1,"phase":0,"sequence":29,"prices":[168,191,172,240,183,193,146,151,125,238],"times":[933,494,534,517,558,470,695],"next_num":7,"trial_type":"ticket-choose","trial_index":49,"time_elapsed":1817795,"internal_node_id":"0.0-49.0"},{"result":155,"points":1,"place":2,"phase":0,"sequence":30,"prices":[169,191,154,268,183,197,176,155,236,133],"times":[543,455,741,470,478,446,453,784],"next_num":8,"trial_type":"ticket-choose","trial_index":50,"time_elapsed":1825268,"internal_node_id":"0.0-50.0"},{"result":130,"points":2,"place":1,"phase":0,"sequence":31,"prices":[181,130,116,142,157,193,165,218,173,207],"times":[405,846],"next_num":2,"trial_type":"ticket-choose","trial_index":51,"time_elapsed":1828603,"internal_node_id":"0.0-51.0"},{"result":154,"points":2,"place":1,"phase":0,"sequence":32,"prices":[168,192,154,237,182,196,176,156,235,133],"times":[585,485,1100],"next_num":3,"trial_type":"ticket-choose","trial_index":52,"time_elapsed":1832956,"internal_node_id":"0.0-52.0"},{"result":136,"points":2,"place":1,"phase":0,"sequence":33,"prices":[171,192,136,265,180,194,174,152,239,127],"times":[693,479,878],"next_num":3,"trial_type":"ticket-choose","trial_index":53,"time_elapsed":1837900,"internal_node_id":"0.0-53.0"},{"result":136,"points":2,"place":1,"phase":0,"sequence":34,"prices":[172,190,136,270,179,192,174,152,237,129],"times":[439,478,999],"next_num":3,"trial_type":"ticket-choose","trial_index":54,"time_elapsed":1841931,"internal_node_id":"0.0-54.0"},{"result":136,"points":2,"place":1,"phase":0,"sequence":35,"prices":[172,194,174,243,182,193,136,150,237,126],"times":[455,454,494,478,454,502,810],"next_num":7,"trial_type":"ticket-choose","trial_index":55,"time_elapsed":1848540,"internal_node_id":"0.0-55.0"},{"result":136,"points":2,"place":1,"phase":0,"sequence":36,"prices":[173,191,174,270,180,193,136,153,239,129],"times":[519,487,439,453,678,517,737],"next_num":7,"trial_type":"ticket-choose","trial_index":56,"time_elapsed":1855531,"internal_node_id":"0.0-56.0"},{"result":137,"points":3,"place":0,"phase":0,"sequence":37,"prices":[137,187,152,156,166,231,155,194,202,160],"times":[891],"next_num":1,"trial_type":"ticket-choose","trial_index":57,"time_elapsed":1858131,"internal_node_id":"0.0-57.0"},{"result":155,"points":1,"place":2,"phase":0,"sequence":38,"prices":[155,129,164,189,210,108,187,241,174,275],"times":[1305],"next_num":1,"trial_type":"ticket-choose","trial_index":58,"time_elapsed":1861188,"internal_node_id":"0.0-58.0"},{"result":149,"points":2,"place":1,"phase":0,"sequence":39,"prices":[196,221,149,164,216,167,175,128,176,181],"times":[576,509,938],"next_num":3,"trial_type":"ticket-choose","trial_index":59,"time_elapsed":1865340,"internal_node_id":"0.0-59.0"},{"result":154,"points":2,"place":1,"phase":0,"sequence":40,"prices":[169,194,154,271,178,201,176,158,236,127],"times":[684,478,1006],"next_num":3,"trial_type":"ticket-choose","trial_index":60,"time_elapsed":1869651,"internal_node_id":"0.0-60.0"},{"result":140,"points":1,"place":2,"phase":0,"sequence":41,"prices":[219,183,227,124,176,161,140,129,171,201],"times":[503,543,462,488,694,662,782],"next_num":7,"trial_type":"ticket-choose","trial_index":61,"time_elapsed":1876763,"internal_node_id":"0.0-61.0"},{"result":154,"points":2,"place":1,"phase":0,"sequence":42,"prices":[170,193,176,245,178,194,154,159,236,126],"times":[480,527,638,526,590,942,1275],"next_num":7,"trial_type":"ticket-choose","trial_index":62,"time_elapsed":1884619,"internal_node_id":"0.0-62.0"},{"result":154,"points":1,"place":2,"phase":0,"sequence":43,"prices":[171,192,136,243,182,195,174,154,236,128],"times":[560,430,430,494,599,526,839,991],"next_num":8,"trial_type":"ticket-choose","trial_index":63,"time_elapsed":1892651,"internal_node_id":"0.0-63.0"},{"result":124,"points":3,"place":0,"phase":0,"sequence":44,"prices":[216,206,158,145,224,185,124,149,175,162],"times":[576,677,670,511,471,486,763],"next_num":7,"trial_type":"ticket-choose","trial_index":64,"time_elapsed":1901163,"internal_node_id":"0.0-64.0"},{"result":105,"points":3,"place":0,"phase":0,"sequence":45,"prices":[263,165,224,214,105,230,215,185,177,193],"times":[1025,1037,465,461,1348],"next_num":5,"trial_type":"ticket-choose","trial_index":65,"time_elapsed":1908228,"internal_node_id":"0.0-65.0"},{"result":152,"points":1,"place":2,"phase":0,"sequence":46,"prices":[173,191,146,242,178,194,172,152,126,235],"times":[770,511,550,461,470,526,613,800],"next_num":8,"trial_type":"ticket-choose","trial_index":66,"time_elapsed":1916260,"internal_node_id":"0.0-66.0"},{"result":116,"points":3,"place":0,"phase":0,"sequence":47,"prices":[186,146,191,179,152,116,140,201,172,187],"times":[383,254,526,485,449,888],"next_num":6,"trial_type":"ticket-choose","trial_index":67,"time_elapsed":1922620,"internal_node_id":"0.0-67.0"},{"result":135,"points":3,"place":0,"phase":0,"sequence":48,"prices":[221,193,135,188,217,179,196,190,175,159],"times":[1827,543,1055],"next_num":3,"trial_type":"ticket-choose","trial_index":68,"time_elapsed":1928427,"internal_node_id":"0.0-68.0"},{"result":114,"points":3,"place":0,"phase":0,"sequence":49,"prices":[182,249,159,114,184,205,175,189,172,178],"times":[584,540,454,805],"next_num":4,"trial_type":"ticket-choose","trial_index":69,"time_elapsed":1934058,"internal_node_id":"0.0-69.0"},{"responses":[{"value":2,"offby":1,"category":"$90 - $120","category_index":0},{"value":5,"offby":2,"category":"$121 - $145","category_index":1},{"value":5,"offby":2,"category":"$146 - $170","category_index":2},{"value":3,"offby":-3,"category":"$171 - $195","category_index":3},{"value":3,"offby":-1,"category":"$196 - $220","category_index":4},{"value":2,"offby":0,"category":"$221 - $245","category_index":5},{"value":0,"offby":-1,"category":"$246 - $270","category_index":6}],"phase":0,"number":1,"trial_type":"bar-choose","trial_index":70,"time_elapsed":1967861,"internal_node_id":"0.0-70.0"},{"rt":6630,"url":"\/tickets\/utils\/start2.html","trial_type":"html","trial_index":71,"time_elapsed":1975599,"internal_node_id":"0.0-71.0"},{"trial_type":"number-animation","trial_index":72,"time_elapsed":1984371,"internal_node_id":"0.0-72.0"},{"phase":1,"sequence":0,"avg":181,"response":178,"trial_type":"training_avg","trial_index":73,"time_elapsed":1991620,"internal_node_id":"0.0-73.0"},{"trial_type":"number-animation","trial_index":74,"time_elapsed":2011715,"internal_node_id":"0.0-74.0"},{"phase":1,"sequence":1,"avg":188,"response":178,"trial_type":"training_avg","trial_index":75,"time_elapsed":2018162,"internal_node_id":"0.0-75.0"},{"trial_type":"number-animation","trial_index":76,"time_elapsed":2025339,"internal_node_id":"0.0-76.0"},{"phase":1,"sequence":2,"avg":188,"response":180,"trial_type":"training_avg","trial_index":77,"time_elapsed":2031231,"internal_node_id":"0.0-77.0"},{"trial_type":"number-animation","trial_index":78,"time_elapsed":2037962,"internal_node_id":"0.0-78.0"},{"phase":1,"sequence":3,"avg":177,"response":180,"trial_type":"training_avg","trial_index":79,"time_elapsed":2043294,"internal_node_id":"0.0-79.0"},{"trial_type":"number-animation","trial_index":80,"time_elapsed":2049938,"internal_node_id":"0.0-80.0"},{"phase":1,"sequence":4,"avg":182,"response":170,"trial_type":"training_avg","trial_index":81,"time_elapsed":2055706,"internal_node_id":"0.0-81.0"},{"responses":[{"value":1,"offby":1,"category":"$106 - $134","category_index":0},{"value":2,"offby":1,"category":"$135 - $150","category_index":1},{"value":3,"offby":0,"category":"$151 - $165","category_index":2},{"value":8,"offby":2,"category":"$166 - $180","category_index":3},{"value":3,"offby":-3,"category":"$181 - $195","category_index":4},{"value":2,"offby":-1,"category":"$196 - $210","category_index":5},{"value":1,"offby":0,"category":"$211 - $225","category_index":6}],"phase":1,"number":0,"trial_type":"bar-choose","trial_index":82,"time_elapsed":2078656,"internal_node_id":"0.0-82.0"},{"rt":42677,"url":"\/tickets\/utils\/testing2.html","trial_type":"html","trial_index":83,"time_elapsed":2122444,"internal_node_id":"0.0-83.0"},{"phase":1,"order":[46,25,30,28,5,24,45,18,13,39,10,21,2,7,32,38,12,40,14,20,27,41,31,4,29,1,3,44,26,6,9,34,8,16,19,22,23,33,35,36,11,47,15,17,37,42,0,49,43,48],"trial_type":"store_order","trial_index":84,"time_elapsed":2123446,"internal_node_id":"0.0-84.0"},{"result":165,"points":2,"place":1,"phase":1,"sequence":0,"prices":[188,200,165,172,198,174,177,154,177,180],"times":[3692,550,1219],"next_num":3,"trial_type":"ticket-choose","trial_index":85,"time_elapsed":2131485,"internal_node_id":"0.0-85.0"},{"result":150,"points":3,"place":0,"phase":1,"sequence":1,"prices":[189,150,175,160,188,207,158,194,178,199],"times":[621,1052],"next_num":2,"trial_type":"ticket-choose","trial_index":86,"time_elapsed":2135861,"internal_node_id":"0.0-86.0"},{"result":163,"points":2,"place":1,"phase":1,"sequence":2,"prices":[175,186,176,224,179,187,163,165,153,210],"times":[227,333,382,534,478,766,752],"next_num":7,"trial_type":"ticket-choose","trial_index":87,"time_elapsed":2142419,"internal_node_id":"0.0-87.0"},{"result":167,"points":2,"place":1,"phase":1,"sequence":3,"prices":[175,186,178,212,179,187,167,169,209,153],"times":[805,484,319,503,606,567,780],"next_num":7,"trial_type":"ticket-choose","trial_index":88,"time_elapsed":2149498,"internal_node_id":"0.0-88.0"},{"result":176,"points":1,"place":4,"phase":1,"sequence":4,"prices":[174,186,176,217,181,187,163,166,153,209],"times":[551,438,877],"next_num":3,"trial_type":"ticket-choose","trial_index":89,"time_elapsed":2153523,"internal_node_id":"0.0-89.0"},{"result":165,"points":3,"place":0,"phase":1,"sequence":5,"prices":[189,167,180,197,165,168,172,213,178,171],"times":[409,213,638,525,846],"next_num":5,"trial_type":"ticket-choose","trial_index":90,"time_elapsed":2158787,"internal_node_id":"0.0-90.0"},{"result":163,"points":3,"place":0,"phase":1,"sequence":6,"prices":[168,199,196,198,185,195,227,163,177,166],"times":[423,375,542,439,694,527,574,753],"next_num":8,"trial_type":"ticket-choose","trial_index":91,"time_elapsed":2166210,"internal_node_id":"0.0-91.0"},{"result":172,"points":1,"place":2,"phase":1,"sequence":7,"prices":[168,192,171,178,188,217,172,195,197,186],"times":[1311,334,254,661,462,567,1378],"next_num":7,"trial_type":"ticket-choose","trial_index":92,"time_elapsed":2174027,"internal_node_id":"0.0-92.0"},{"result":165,"points":2,"place":1,"phase":1,"sequence":8,"prices":[157,191,165,175,182,203,170,195,200,176],"times":[389,551,1093],"next_num":3,"trial_type":"ticket-choose","trial_index":93,"time_elapsed":2178098,"internal_node_id":"0.0-93.0"},{"result":166,"points":1,"place":2,"phase":1,"sequence":9,"prices":[174,186,163,212,181,187,176,166,153,209],"times":[431,510,551,535,534,486,590,911],"next_num":8,"trial_type":"ticket-choose","trial_index":94,"time_elapsed":2185754,"internal_node_id":"0.0-94.0"},{"result":160,"points":1,"place":2,"phase":1,"sequence":10,"prices":[200,181,203,152,175,171,160,154,176,191],"times":[561,437,240,278,558,518,912],"next_num":7,"trial_type":"ticket-choose","trial_index":95,"time_elapsed":2192074,"internal_node_id":"0.0-95.0"},{"result":149,"points":2,"place":1,"phase":1,"sequence":11,"prices":[180,159,149,175,185,141,163,174,178,207],"times":[421,543,764],"next_num":3,"trial_type":"ticket-choose","trial_index":96,"time_elapsed":2195882,"internal_node_id":"0.0-96.0"},{"result":158,"points":2,"place":1,"phase":1,"sequence":12,"prices":[176,187,177,225,181,187,158,165,208,153],"times":[473,413,334,439,494,494,735],"next_num":7,"trial_type":"ticket-choose","trial_index":97,"time_elapsed":2202122,"internal_node_id":"0.0-97.0"},{"result":166,"points":1,"place":2,"phase":1,"sequence":13,"prices":[176,186,163,214,179,187,176,166,153,208],"times":[414,694,366,398,502,439,463,719],"next_num":8,"trial_type":"ticket-choose","trial_index":98,"time_elapsed":2209194,"internal_node_id":"0.0-98.0"},{"result":147,"points":3,"place":0,"phase":1,"sequence":14,"prices":[181,215,169,147,182,193,177,184,176,179],"times":[310,287,255,836],"next_num":4,"trial_type":"ticket-choose","trial_index":99,"time_elapsed":2213147,"internal_node_id":"0.0-99.0"},{"result":170,"points":1,"place":4,"phase":1,"sequence":15,"prices":[159,183,166,168,173,205,167,187,191,170],"times":[406,726,502,519,511,632,1245,518,766,909],"next_num":10,"trial_type":"ticket-choose","trial_index":100,"time_elapsed":2223530,"internal_node_id":"0.0-100.0"},{"result":167,"points":1,"place":2,"phase":1,"sequence":16,"prices":[175,186,177,209,181,188,158,167,208,154],"times":[406,1039,508,494,517,495,518,1603],"next_num":8,"trial_type":"ticket-choose","trial_index":101,"time_elapsed":2232259,"internal_node_id":"0.0-101.0"},{"result":166,"points":1,"place":2,"phase":1,"sequence":17,"prices":[176,185,158,217,180,186,177,166,209,154],"times":[351,510,398,502,439,486,511,714],"next_num":8,"trial_type":"ticket-choose","trial_index":102,"time_elapsed":2239251,"internal_node_id":"0.0-102.0"},{"result":166,"points":1,"place":2,"phase":1,"sequence":18,"prices":[176,185,177,218,180,186,158,166,209,154],"times":[566,270,238,519,431,486,390,958],"next_num":8,"trial_type":"ticket-choose","trial_index":103,"time_elapsed":2246130,"internal_node_id":"0.0-103.0"},{"result":155,"points":2,"place":1,"phase":1,"sequence":19,"prices":[181,155,148,161,168,187,172,199,176,194],"times":[368,861],"next_num":2,"trial_type":"ticket-choose","trial_index":104,"time_elapsed":2249250,"internal_node_id":"0.0-104.0"},{"result":156,"points":3,"place":0,"phase":1,"sequence":20,"prices":[156,201,162,166,185,214,165,202,204,179],"times":[903],"next_num":1,"trial_type":"ticket-choose","trial_index":105,"time_elapsed":2251882,"internal_node_id":"0.0-105.0"},{"result":152,"points":3,"place":0,"phase":1,"sequence":21,"prices":[152,200,158,173,182,207,161,202,204,180],"times":[901],"next_num":1,"trial_type":"ticket-choose","trial_index":106,"time_elapsed":2254778,"internal_node_id":"0.0-106.0"},{"result":158,"points":2,"place":1,"phase":1,"sequence":22,"prices":[175,186,177,221,180,187,158,166,209,153],"times":[518,454,470,462,462,445,717],"next_num":7,"trial_type":"ticket-choose","trial_index":107,"time_elapsed":2261627,"internal_node_id":"0.0-107.0"},{"result":167,"points":2,"place":1,"phase":1,"sequence":23,"prices":[175,185,178,215,181,186,167,168,208,156],"times":[654,367,446,494,598,431,848],"next_num":7,"trial_type":"ticket-choose","trial_index":108,"time_elapsed":2268290,"internal_node_id":"0.0-108.0"},{"result":169,"points":1,"place":2,"phase":1,"sequence":24,"prices":[175,187,167,212,179,187,178,169,208,153],"times":[462,590,423,543,581,502,726,845],"next_num":8,"trial_type":"ticket-choose","trial_index":109,"time_elapsed":2276050,"internal_node_id":"0.0-109.0"},{"result":167,"points":2,"place":1,"phase":1,"sequence":25,"prices":[212,192,188,184,167,193,189,164,176,170],"times":[446,415,230,446,872],"next_num":5,"trial_type":"ticket-choose","trial_index":110,"time_elapsed":2280938,"internal_node_id":"0.0-110.0"},{"result":144,"points":3,"place":0,"phase":1,"sequence":26,"prices":[168,154,172,185,195,144,184,211,177,227],"times":[337,318,631,478,438,822],"next_num":6,"trial_type":"ticket-choose","trial_index":111,"time_elapsed":2286732,"internal_node_id":"0.0-111.0"},{"result":185,"points":1,"place":4,"phase":1,"sequence":27,"prices":[169,196,170,184,187,211,171,201,202,185],"times":[2146,1646,238,528,436,534,390,442,429,405],"next_num":11,"trial_type":"ticket-choose","trial_index":112,"time_elapsed":2298893,"internal_node_id":"0.0-112.0"},{"result":163,"points":2,"place":1,"phase":1,"sequence":28,"prices":[175,187,163,209,180,188,176,165,154,208],"times":[690,423,1070],"next_num":3,"trial_type":"ticket-choose","trial_index":113,"time_elapsed":2303099,"internal_node_id":"0.0-113.0"},{"result":154,"points":2,"place":1,"phase":1,"sequence":29,"prices":[150,185,154,161,173,199,155,188,191,168],"times":[366,470,758],"next_num":3,"trial_type":"ticket-choose","trial_index":114,"time_elapsed":2306731,"internal_node_id":"0.0-114.0"},{"result":156,"points":3,"place":0,"phase":1,"sequence":30,"prices":[174,186,167,211,181,188,178,168,208,156],"times":[498,558,567,478,479,471,470,447,614,889],"next_num":10,"trial_type":"ticket-choose","trial_index":115,"time_elapsed":2315794,"internal_node_id":"0.0-115.0"},{"result":167,"points":2,"place":1,"phase":1,"sequence":31,"prices":[174,186,178,217,181,188,167,168,208,156],"times":[484,567,446,478,463,454,1148],"next_num":7,"trial_type":"ticket-choose","trial_index":116,"time_elapsed":2322730,"internal_node_id":"0.0-116.0"},{"result":163,"points":2,"place":1,"phase":1,"sequence":32,"prices":[176,186,176,210,179,187,163,166,153,208],"times":[808,381,247,486,438,454,767],"next_num":7,"trial_type":"ticket-choose","trial_index":117,"time_elapsed":2329114,"internal_node_id":"0.0-117.0"},{"result":165,"points":1,"place":2,"phase":1,"sequence":33,"prices":[176,187,158,210,181,187,177,165,208,153],"times":[415,359,455,447,519,447,1080,681],"next_num":8,"trial_type":"ticket-choose","trial_index":118,"time_elapsed":2336642,"internal_node_id":"0.0-118.0"},{"result":148,"points":3,"place":0,"phase":1,"sequence":34,"prices":[148,171,150,163,167,220,162,186,187,165],"times":[814],"next_num":1,"trial_type":"ticket-choose","trial_index":119,"time_elapsed":2339041,"internal_node_id":"0.0-119.0"},{"result":184,"points":1,"place":4,"phase":1,"sequence":35,"prices":[161,193,175,181,185,224,180,199,218,184],"times":[1119,566,559,502,527,504,903,707,471,471],"next_num":11,"trial_type":"ticket-choose","trial_index":120,"time_elapsed":2349073,"internal_node_id":"0.0-120.0"},{"result":158,"points":3,"place":0,"phase":1,"sequence":36,"prices":[210,184,226,193,215,158,199,175,176,208],"times":[647,686,477,510,455,948],"next_num":6,"trial_type":"ticket-choose","trial_index":121,"time_elapsed":2355473,"internal_node_id":"0.0-121.0"},{"result":143,"points":3,"place":0,"phase":1,"sequence":37,"prices":[222,173,202,197,143,205,198,183,178,186],"times":[448,573,414,518,947],"next_num":5,"trial_type":"ticket-choose","trial_index":122,"time_elapsed":2360889,"internal_node_id":"0.0-122.0"},{"result":161,"points":3,"place":0,"phase":1,"sequence":38,"prices":[161,193,167,187,190,224,174,194,195,188],"times":[889],"next_num":1,"trial_type":"ticket-choose","trial_index":123,"time_elapsed":2363418,"internal_node_id":"0.0-123.0"},{"result":163,"points":2,"place":1,"phase":1,"sequence":39,"prices":[198,193,169,163,202,182,152,164,177,171],"times":[541,479,662,704],"next_num":4,"trial_type":"ticket-choose","trial_index":124,"time_elapsed":2368057,"internal_node_id":"0.0-124.0"},{"result":158,"points":2,"place":1,"phase":1,"sequence":40,"prices":[175,186,158,209,181,188,177,167,208,154],"times":[502,262,676],"next_num":3,"trial_type":"ticket-choose","trial_index":125,"time_elapsed":2371481,"internal_node_id":"0.0-125.0"},{"result":169,"points":1,"place":2,"phase":1,"sequence":41,"prices":[175,186,167,225,179,187,178,169,209,153],"times":[558,359,422,855,639,711,440,666],"next_num":8,"trial_type":"ticket-choose","trial_index":126,"time_elapsed":2379161,"internal_node_id":"0.0-126.0"},{"result":167,"points":2,"place":1,"phase":1,"sequence":42,"prices":[175,187,178,209,179,187,167,169,208,153],"times":[567,422,454,472,782,492,668],"next_num":7,"trial_type":"ticket-choose","trial_index":127,"time_elapsed":2385840,"internal_node_id":"0.0-127.0"},{"result":157,"points":3,"place":0,"phase":1,"sequence":43,"prices":[201,187,157,184,198,179,188,185,178,170],"times":[496,455,722],"next_num":3,"trial_type":"ticket-choose","trial_index":128,"time_elapsed":2389561,"internal_node_id":"0.0-128.0"},{"result":158,"points":2,"place":1,"phase":1,"sequence":44,"prices":[175,186,158,211,180,187,177,166,209,153],"times":[487,279,787],"next_num":3,"trial_type":"ticket-choose","trial_index":129,"time_elapsed":2393229,"internal_node_id":"0.0-129.0"},{"result":155,"points":2,"place":1,"phase":1,"sequence":45,"prices":[201,207,155,158,156,165,167,135,178,177],"times":[1179,407,992],"next_num":3,"trial_type":"ticket-choose","trial_index":130,"time_elapsed":2398674,"internal_node_id":"0.0-130.0"},{"result":154,"points":3,"place":0,"phase":1,"sequence":46,"prices":[175,187,176,209,180,188,163,165,154,208],"times":[486,447,295,436,421,421,701,583,857],"next_num":9,"trial_type":"ticket-choose","trial_index":131,"time_elapsed":2406746,"internal_node_id":"0.0-131.0"},{"result":165,"points":1,"place":2,"phase":1,"sequence":47,"prices":[175,186,163,211,179,187,176,165,153,210],"times":[1456,2774,734,662,646,1030,487,1639],"next_num":8,"trial_type":"ticket-choose","trial_index":132,"time_elapsed":2419699,"internal_node_id":"0.0-132.0"},{"result":148,"points":3,"place":0,"phase":1,"sequence":48,"prices":[183,163,185,180,166,148,160,186,176,184],"times":[981,606,493,463,839,782],"next_num":6,"trial_type":"ticket-choose","trial_index":133,"time_elapsed":2427114,"internal_node_id":"0.0-133.0"},{"result":167,"points":2,"place":1,"phase":1,"sequence":49,"prices":[175,185,167,224,181,186,178,168,208,156],"times":[725,486,993],"next_num":3,"trial_type":"ticket-choose","trial_index":134,"time_elapsed":2431986,"internal_node_id":"0.0-134.0"},{"responses":[{"value":0,"offby":0,"category":"$106 - $134","category_index":0},{"value":0,"offby":-1,"category":"$135 - $150","category_index":1},{"value":5,"offby":2,"category":"$151 - $165","category_index":2},{"value":10,"offby":4,"category":"$166 - $180","category_index":3},{"value":5,"offby":-1,"category":"$181 - $195","category_index":4},{"value":0,"offby":-3,"category":"$196 - $210","category_index":5},{"value":0,"offby":-1,"category":"$211 - $225","category_index":6}],"phase":1,"number":1,"trial_type":"bar-choose","trial_index":135,"time_elapsed":2444733,"internal_node_id":"0.0-135.0"},{"special_comment":"none","trial_type":"special_sequence","trial_index":136,"time_elapsed":2451698,"internal_node_id":"0.0-136.0"},{"during":"Nothing","bonus":264,"trial_type":"final","trial_index":137,"time_elapsed":2481569,"internal_node_id":"0.0-137.0"}],"bonus":264}