{"start_time":"2017-02-16 15:33:02","end_time":"2017-02-16 15:56:30","points_phase0":97,"points_phase1":102,"phase_order":1,"age":34,"gender":"m","tries":1,"during":"Nothing","worker_id":"AYDILOZLKOAS8","assignment_id":"3K9FOBBF2IC9QAR1SZ187L4TR2ALNT","data":[{"rt":58855,"url":"\/tickets\/utils\/consent.html","trial_type":"html","trial_index":0,"time_elapsed":58958,"internal_node_id":"0.0-0.0"},{"age":34,"gender":"m","trial_type":"age","trial_index":1,"time_elapsed":64441,"internal_node_id":"0.0-1.0"},{"worker_id":"AYDILOZLKOAS8","trial_type":"workerid","trial_index":2,"time_elapsed":75927,"internal_node_id":"0.0-2.0"},{"tries":1,"trial_type":"instructions_check","trial_index":3,"time_elapsed":129168,"internal_node_id":"0.0-3.0"},{"rt":11462,"url":"\/tickets\/utils\/start.html","trial_type":"html","trial_index":4,"time_elapsed":141739,"internal_node_id":"0.0-4.0"},{"trial_type":"number-animation","trial_index":5,"time_elapsed":167830,"internal_node_id":"0.0-5.0"},{"phase":0,"sequence":0,"avg":182,"response":188,"trial_type":"training_avg","trial_index":6,"time_elapsed":182652,"internal_node_id":"0.0-6.0"},{"trial_type":"number-animation","trial_index":7,"time_elapsed":241671,"internal_node_id":"0.0-7.0"},{"phase":0,"sequence":1,"avg":188,"response":188,"trial_type":"training_avg","trial_index":8,"time_elapsed":252448,"internal_node_id":"0.0-8.0"},{"trial_type":"number-animation","trial_index":9,"time_elapsed":292682,"internal_node_id":"0.0-9.0"},{"phase":0,"sequence":2,"avg":176,"response":175,"trial_type":"training_avg","trial_index":10,"time_elapsed":301485,"internal_node_id":"0.0-10.0"},{"trial_type":"number-animation","trial_index":11,"time_elapsed":353432,"internal_node_id":"0.0-11.0"},{"phase":0,"sequence":3,"avg":180,"response":179,"trial_type":"training_avg","trial_index":12,"time_elapsed":360487,"internal_node_id":"0.0-12.0"},{"trial_type":"number-animation","trial_index":13,"time_elapsed":405956,"internal_node_id":"0.0-13.0"},{"phase":0,"sequence":4,"avg":174,"response":171,"trial_type":"training_avg","trial_index":14,"time_elapsed":412942,"internal_node_id":"0.0-14.0"},{"responses":[{"value":0,"offby":-1,"category":"$90 - $120","category_index":0},{"value":1,"offby":-2,"category":"$121 - $145","category_index":1},{"value":3,"offby":0,"category":"$146 - $170","category_index":2},{"value":8,"offby":2,"category":"$171 - $195","category_index":3},{"value":5,"offby":1,"category":"$196 - $220","category_index":4},{"value":3,"offby":1,"category":"$221 - $245","category_index":5},{"value":0,"offby":-1,"category":"$246 - $270","category_index":6}],"phase":0,"number":0,"trial_type":"bar-choose","trial_index":15,"time_elapsed":474561,"internal_node_id":"0.0-15.0"},{"rt":14718,"url":"\/tickets\/\/utils\/testing.html","trial_type":"html","trial_index":16,"time_elapsed":490390,"internal_node_id":"0.0-16.0"},{"phase":0,"order":[15,20,48,44,3,30,35,27,22,4,9,21,10,41,24,47,42,33,18,29,49,25,45,11,32,7,0,5,12,1,17,37,19,13,14,46,39,40,34,6,26,8,23,2,43,16,38,28,36,31],"trial_type":"store_order","trial_index":17,"time_elapsed":491391,"internal_node_id":"0.0-17.0"},{"result":126,"points":3,"place":0,"phase":0,"sequence":-1,"times":[2007,1126,913,1366,624,751,585,742,625,1221],"next_num":10,"trial_type":"ticket-choose","trial_index":18,"time_elapsed":505880,"internal_node_id":"0.0-18.0"},{"rt":14269,"url":"\/tickets\/utils\/testing_after.html","trial_type":"html","trial_index":19,"time_elapsed":521259,"internal_node_id":"0.0-19.0"},{"result":136,"points":2,"place":1,"phase":0,"sequence":0,"times":[1839,573,1115],"next_num":3,"trial_type":"ticket-choose","trial_index":20,"time_elapsed":527741,"internal_node_id":"0.0-20.0"},{"result":136,"points":2,"place":1,"phase":0,"sequence":1,"times":[1130,514,514,529,585,560,908],"next_num":7,"trial_type":"ticket-choose","trial_index":21,"time_elapsed":535819,"internal_node_id":"0.0-21.0"},{"result":188,"points":1,"place":4,"phase":0,"sequence":2,"times":[1257,443,303,499,536,521,570,530,600,1837],"next_num":10,"trial_type":"ticket-choose","trial_index":22,"time_elapsed":547193,"internal_node_id":"0.0-22.0"},{"result":172,"points":1,"place":2,"phase":0,"sequence":3,"times":[1399,523,1938,444,1041,546,617,552,1332],"next_num":9,"trial_type":"ticket-choose","trial_index":23,"time_elapsed":560172,"internal_node_id":"0.0-23.0"},{"result":136,"points":2,"place":1,"phase":0,"sequence":4,"times":[984,482,647,609,939,561,941],"next_num":7,"trial_type":"ticket-choose","trial_index":24,"time_elapsed":569061,"internal_node_id":"0.0-24.0"},{"result":135,"points":3,"place":0,"phase":0,"sequence":5,"times":[1722],"next_num":1,"trial_type":"ticket-choose","trial_index":25,"time_elapsed":573363,"internal_node_id":"0.0-25.0"},{"result":108,"points":3,"place":0,"phase":0,"sequence":6,"times":[944,497,694,1103,554,1024],"next_num":6,"trial_type":"ticket-choose","trial_index":26,"time_elapsed":581127,"internal_node_id":"0.0-26.0"},{"result":136,"points":2,"place":1,"phase":0,"sequence":7,"times":[811,764,1452],"next_num":3,"trial_type":"ticket-choose","trial_index":27,"time_elapsed":586632,"internal_node_id":"0.0-27.0"},{"result":196,"points":1,"place":4,"phase":0,"sequence":8,"times":[918,497,940,561,570,607,884,545,592,2214],"next_num":11,"trial_type":"ticket-choose","trial_index":28,"time_elapsed":599503,"internal_node_id":"0.0-28.0"},{"result":138,"points":1,"place":2,"phase":0,"sequence":9,"times":[1122,1192],"next_num":2,"trial_type":"ticket-choose","trial_index":29,"time_elapsed":604513,"internal_node_id":"0.0-29.0"},{"result":152,"points":1,"place":2,"phase":0,"sequence":10,"times":[715,498,1427,363,924,527,721,1465],"next_num":8,"trial_type":"ticket-choose","trial_index":30,"time_elapsed":614637,"internal_node_id":"0.0-30.0"},{"result":146,"points":2,"place":1,"phase":0,"sequence":11,"times":[852,475,679,523,569,505,1135],"next_num":7,"trial_type":"ticket-choose","trial_index":31,"time_elapsed":622541,"internal_node_id":"0.0-31.0"},{"result":146,"points":2,"place":1,"phase":0,"sequence":12,"times":[637,506,507,547,545,561,1088],"next_num":7,"trial_type":"ticket-choose","trial_index":32,"time_elapsed":630179,"internal_node_id":"0.0-32.0"},{"result":153,"points":1,"place":2,"phase":0,"sequence":13,"times":[1856,460,461,474,522,621,1184,1088],"next_num":8,"trial_type":"ticket-choose","trial_index":33,"time_elapsed":640106,"internal_node_id":"0.0-33.0"},{"result":128,"points":2,"place":1,"phase":0,"sequence":14,"times":[456,476,1017],"next_num":3,"trial_type":"ticket-choose","trial_index":34,"time_elapsed":644339,"internal_node_id":"0.0-34.0"},{"result":136,"points":3,"place":0,"phase":0,"sequence":15,"times":[699,515,530,513,577,1426],"next_num":6,"trial_type":"ticket-choose","trial_index":35,"time_elapsed":651624,"internal_node_id":"0.0-35.0"},{"result":154,"points":2,"place":1,"phase":0,"sequence":16,"times":[841,515,535,530,599,568,2165],"next_num":7,"trial_type":"ticket-choose","trial_index":36,"time_elapsed":660825,"internal_node_id":"0.0-36.0"},{"result":130,"points":2,"place":1,"phase":0,"sequence":17,"times":[464,1827],"next_num":2,"trial_type":"ticket-choose","trial_index":37,"time_elapsed":665420,"internal_node_id":"0.0-37.0"},{"result":192,"points":1,"place":4,"phase":0,"sequence":18,"times":[620,431,905,505,513,679,845,496,702,863],"next_num":10,"trial_type":"ticket-choose","trial_index":38,"time_elapsed":675729,"internal_node_id":"0.0-38.0"},{"result":158,"points":1,"place":2,"phase":0,"sequence":19,"times":[412,295,927,452,985,489,546,768],"next_num":8,"trial_type":"ticket-choose","trial_index":39,"time_elapsed":683833,"internal_node_id":"0.0-39.0"},{"result":150,"points":3,"place":0,"phase":0,"sequence":20,"times":[454,728,370,514,795],"next_num":5,"trial_type":"ticket-choose","trial_index":40,"time_elapsed":689486,"internal_node_id":"0.0-40.0"},{"result":146,"points":2,"place":1,"phase":0,"sequence":21,"times":[537,512,1093],"next_num":3,"trial_type":"ticket-choose","trial_index":41,"time_elapsed":693959,"internal_node_id":"0.0-41.0"},{"result":149,"points":2,"place":1,"phase":0,"sequence":22,"times":[383,508,1097],"next_num":3,"trial_type":"ticket-choose","trial_index":42,"time_elapsed":698314,"internal_node_id":"0.0-42.0"},{"result":136,"points":2,"place":1,"phase":0,"sequence":23,"times":[395,426,849],"next_num":3,"trial_type":"ticket-choose","trial_index":43,"time_elapsed":702443,"internal_node_id":"0.0-43.0"},{"result":154,"points":2,"place":1,"phase":0,"sequence":24,"times":[502,474,485,480,542,515,1420],"next_num":7,"trial_type":"ticket-choose","trial_index":44,"time_elapsed":710130,"internal_node_id":"0.0-44.0"},{"result":136,"points":2,"place":1,"phase":0,"sequence":25,"times":[428,517,739],"next_num":3,"trial_type":"ticket-choose","trial_index":45,"time_elapsed":714056,"internal_node_id":"0.0-45.0"},{"result":146,"points":2,"place":1,"phase":0,"sequence":26,"times":[379,451,1621],"next_num":3,"trial_type":"ticket-choose","trial_index":46,"time_elapsed":718781,"internal_node_id":"0.0-46.0"},{"result":154,"points":2,"place":1,"phase":0,"sequence":27,"times":[556,445,1107],"next_num":3,"trial_type":"ticket-choose","trial_index":47,"time_elapsed":723076,"internal_node_id":"0.0-47.0"},{"result":161,"points":1,"place":2,"phase":0,"sequence":28,"times":[454,466,676,480,511,509,981],"next_num":7,"trial_type":"ticket-choose","trial_index":48,"time_elapsed":730190,"internal_node_id":"0.0-48.0"},{"result":155,"points":1,"place":2,"phase":0,"sequence":29,"times":[539,444,733,477,625,694,877,688],"next_num":8,"trial_type":"ticket-choose","trial_index":49,"time_elapsed":738441,"internal_node_id":"0.0-49.0"},{"result":144,"points":2,"place":1,"phase":0,"sequence":30,"times":[443,441,779],"next_num":3,"trial_type":"ticket-choose","trial_index":50,"time_elapsed":742312,"internal_node_id":"0.0-50.0"},{"result":135,"points":3,"place":0,"phase":0,"sequence":31,"times":[528,506,730],"next_num":3,"trial_type":"ticket-choose","trial_index":51,"time_elapsed":746288,"internal_node_id":"0.0-51.0"},{"result":136,"points":2,"place":1,"phase":0,"sequence":32,"times":[538,459,492,530,663,516,988],"next_num":7,"trial_type":"ticket-choose","trial_index":52,"time_elapsed":753688,"internal_node_id":"0.0-52.0"},{"result":145,"points":2,"place":1,"phase":0,"sequence":33,"times":[542,446,613,883],"next_num":4,"trial_type":"ticket-choose","trial_index":53,"time_elapsed":758572,"internal_node_id":"0.0-53.0"},{"result":136,"points":2,"place":1,"phase":0,"sequence":34,"times":[737,506,749],"next_num":3,"trial_type":"ticket-choose","trial_index":54,"time_elapsed":762783,"internal_node_id":"0.0-54.0"},{"result":152,"points":1,"place":3,"phase":0,"sequence":35,"times":[489,1218,451,484,804],"next_num":5,"trial_type":"ticket-choose","trial_index":55,"time_elapsed":768863,"internal_node_id":"0.0-55.0"},{"result":154,"points":2,"place":1,"phase":0,"sequence":36,"times":[392,334,561,582,1026],"next_num":5,"trial_type":"ticket-choose","trial_index":56,"time_elapsed":774475,"internal_node_id":"0.0-56.0"},{"result":105,"points":3,"place":0,"phase":0,"sequence":37,"times":[867,915,469,503,886],"next_num":5,"trial_type":"ticket-choose","trial_index":57,"time_elapsed":780688,"internal_node_id":"0.0-57.0"},{"result":147,"points":1,"place":3,"phase":0,"sequence":38,"times":[535,546,409,1100],"next_num":4,"trial_type":"ticket-choose","trial_index":58,"time_elapsed":785738,"internal_node_id":"0.0-58.0"},{"result":158,"points":1,"place":2,"phase":0,"sequence":39,"times":[580,532,816,496,630,487,871,928],"next_num":8,"trial_type":"ticket-choose","trial_index":59,"time_elapsed":794255,"internal_node_id":"0.0-59.0"},{"result":131,"points":2,"place":1,"phase":0,"sequence":40,"times":[603,516,773],"next_num":3,"trial_type":"ticket-choose","trial_index":60,"time_elapsed":798257,"internal_node_id":"0.0-60.0"},{"result":137,"points":3,"place":0,"phase":0,"sequence":41,"times":[1079],"next_num":1,"trial_type":"ticket-choose","trial_index":61,"time_elapsed":801134,"internal_node_id":"0.0-61.0"},{"result":119,"points":3,"place":0,"phase":0,"sequence":42,"times":[537,1682],"next_num":2,"trial_type":"ticket-choose","trial_index":62,"time_elapsed":805289,"internal_node_id":"0.0-62.0"},{"result":146,"points":2,"place":1,"phase":0,"sequence":43,"times":[502,431,535,482,503,555,731],"next_num":7,"trial_type":"ticket-choose","trial_index":63,"time_elapsed":812023,"internal_node_id":"0.0-63.0"},{"result":154,"points":2,"place":1,"phase":0,"sequence":44,"times":[623,2841,488,482,584,517,839],"next_num":7,"trial_type":"ticket-choose","trial_index":64,"time_elapsed":821429,"internal_node_id":"0.0-64.0"},{"result":146,"points":2,"place":1,"phase":0,"sequence":45,"times":[1058,461,565,528,576,470,866],"next_num":7,"trial_type":"ticket-choose","trial_index":65,"time_elapsed":828950,"internal_node_id":"0.0-65.0"},{"result":146,"points":3,"place":0,"phase":0,"sequence":46,"times":[608,484,505,469,505,516,514,1164],"next_num":8,"trial_type":"ticket-choose","trial_index":66,"time_elapsed":837001,"internal_node_id":"0.0-66.0"},{"result":154,"points":2,"place":1,"phase":0,"sequence":47,"times":[491,492,642,515,531,513,1018],"next_num":7,"trial_type":"ticket-choose","trial_index":67,"time_elapsed":844329,"internal_node_id":"0.0-67.0"},{"result":124,"points":3,"place":0,"phase":0,"sequence":48,"times":[740,505,492,1117],"next_num":4,"trial_type":"ticket-choose","trial_index":68,"time_elapsed":849606,"internal_node_id":"0.0-68.0"},{"result":136,"points":2,"place":1,"phase":0,"sequence":49,"times":[816,810,466,468,531,507,849],"next_num":7,"trial_type":"ticket-choose","trial_index":69,"time_elapsed":857903,"internal_node_id":"0.0-69.0"},{"responses":[{"value":0,"offby":-1,"category":"$90 - $120","category_index":0},{"value":2,"offby":-1,"category":"$121 - $145","category_index":1},{"value":4,"offby":1,"category":"$146 - $170","category_index":2},{"value":8,"offby":2,"category":"$171 - $195","category_index":3},{"value":4,"offby":0,"category":"$196 - $220","category_index":4},{"value":1,"offby":-1,"category":"$221 - $245","category_index":5},{"value":1,"offby":0,"category":"$246 - $270","category_index":6}],"phase":0,"number":1,"trial_type":"bar-choose","trial_index":70,"time_elapsed":885416,"internal_node_id":"0.0-70.0"},{"rt":16564,"url":"\/tickets\/utils\/start2.html","trial_type":"html","trial_index":71,"time_elapsed":903089,"internal_node_id":"0.0-71.0"},{"trial_type":"number-animation","trial_index":72,"time_elapsed":910381,"internal_node_id":"0.0-72.0"},{"phase":1,"sequence":0,"avg":181,"response":188,"trial_type":"training_avg","trial_index":73,"time_elapsed":918009,"internal_node_id":"0.0-73.0"},{"trial_type":"number-animation","trial_index":74,"time_elapsed":924659,"internal_node_id":"0.0-74.0"},{"phase":1,"sequence":1,"avg":188,"response":194,"trial_type":"training_avg","trial_index":75,"time_elapsed":931208,"internal_node_id":"0.0-75.0"},{"trial_type":"number-animation","trial_index":76,"time_elapsed":938041,"internal_node_id":"0.0-76.0"},{"phase":1,"sequence":2,"avg":188,"response":191,"trial_type":"training_avg","trial_index":77,"time_elapsed":944469,"internal_node_id":"0.0-77.0"},{"trial_type":"number-animation","trial_index":78,"time_elapsed":951450,"internal_node_id":"0.0-78.0"},{"phase":1,"sequence":3,"avg":177,"response":179,"trial_type":"training_avg","trial_index":79,"time_elapsed":989538,"internal_node_id":"0.0-79.0"},{"trial_type":"number-animation","trial_index":80,"time_elapsed":996199,"internal_node_id":"0.0-80.0"},{"phase":1,"sequence":4,"avg":182,"response":185,"trial_type":"training_avg","trial_index":81,"time_elapsed":1001311,"internal_node_id":"0.0-81.0"},{"responses":[{"value":1,"offby":1,"category":"$106 - $134","category_index":0},{"value":2,"offby":1,"category":"$135 - $150","category_index":1},{"value":4,"offby":1,"category":"$151 - $165","category_index":2},{"value":6,"offby":0,"category":"$166 - $180","category_index":3},{"value":4,"offby":-2,"category":"$181 - $195","category_index":4},{"value":2,"offby":-1,"category":"$196 - $210","category_index":5},{"value":1,"offby":0,"category":"$211 - $225","category_index":6}],"phase":1,"number":0,"trial_type":"bar-choose","trial_index":82,"time_elapsed":1029806,"internal_node_id":"0.0-82.0"},{"rt":10085,"url":"\/tickets\/utils\/testing2.html","trial_type":"html","trial_index":83,"time_elapsed":1041005,"internal_node_id":"0.0-83.0"},{"phase":1,"order":[16,23,24,48,21,30,35,19,32,44,0,6,5,2,29,46,15,34,27,11,39,1,36,26,12,17,3,8,28,9,25,43,22,37,18,49,45,42,31,10,41,33,40,4,13,7,38,14,47,20],"trial_type":"store_order","trial_index":84,"time_elapsed":1042007,"internal_node_id":"0.0-84.0"},{"result":167,"points":2,"place":1,"phase":1,"sequence":0,"times":[2206,475,513,474,508,513,1061],"next_num":7,"trial_type":"ticket-choose","trial_index":85,"time_elapsed":1051631,"internal_node_id":"0.0-85.0"},{"result":158,"points":2,"place":1,"phase":1,"sequence":1,"times":[685,541,588,568,536,464,694],"next_num":7,"trial_type":"ticket-choose","trial_index":86,"time_elapsed":1059246,"internal_node_id":"0.0-86.0"},{"result":147,"points":3,"place":0,"phase":1,"sequence":2,"times":[539,499,1155,890],"next_num":4,"trial_type":"ticket-choose","trial_index":87,"time_elapsed":1065545,"internal_node_id":"0.0-87.0"},{"result":149,"points":2,"place":1,"phase":1,"sequence":3,"times":[716,1434,703],"next_num":3,"trial_type":"ticket-choose","trial_index":88,"time_elapsed":1070980,"internal_node_id":"0.0-88.0"},{"result":165,"points":1,"place":2,"phase":1,"sequence":4,"times":[501,500,708,483,588,504,641,893],"next_num":8,"trial_type":"ticket-choose","trial_index":89,"time_elapsed":1079323,"internal_node_id":"0.0-89.0"},{"result":176,"points":1,"place":4,"phase":1,"sequence":5,"times":[1408,454,597,617,542,527,799,496,526,920],"next_num":10,"trial_type":"ticket-choose","trial_index":90,"time_elapsed":1090608,"internal_node_id":"0.0-90.0"},{"result":154,"points":2,"place":1,"phase":1,"sequence":6,"times":[930,1472],"next_num":2,"trial_type":"ticket-choose","trial_index":91,"time_elapsed":1095186,"internal_node_id":"0.0-91.0"},{"result":186,"points":1,"place":4,"phase":1,"sequence":7,"times":[438,499,497,554,542,539,1210,471,487,610],"next_num":10,"trial_type":"ticket-choose","trial_index":92,"time_elapsed":1105223,"internal_node_id":"0.0-92.0"},{"result":158,"points":2,"place":1,"phase":1,"sequence":8,"times":[526,425,505,491,549,502,711],"next_num":7,"trial_type":"ticket-choose","trial_index":93,"time_elapsed":1112114,"internal_node_id":"0.0-93.0"},{"result":163,"points":2,"place":1,"phase":1,"sequence":9,"times":[614,372,528,462,929,468,947],"next_num":7,"trial_type":"ticket-choose","trial_index":94,"time_elapsed":1119638,"internal_node_id":"0.0-94.0"},{"result":167,"points":2,"place":1,"phase":1,"sequence":10,"times":[537,518,1203],"next_num":3,"trial_type":"ticket-choose","trial_index":95,"time_elapsed":1124364,"internal_node_id":"0.0-95.0"},{"result":158,"points":2,"place":1,"phase":1,"sequence":11,"times":[628,1409,544,474,506,585,762],"next_num":7,"trial_type":"ticket-choose","trial_index":96,"time_elapsed":1132520,"internal_node_id":"0.0-96.0"},{"result":169,"points":1,"place":2,"phase":1,"sequence":12,"times":[501,470,504,396,480,468,443,702],"next_num":8,"trial_type":"ticket-choose","trial_index":97,"time_elapsed":1139904,"internal_node_id":"0.0-97.0"},{"result":155,"points":2,"place":1,"phase":1,"sequence":13,"times":[465,435,1284],"next_num":3,"trial_type":"ticket-choose","trial_index":98,"time_elapsed":1144332,"internal_node_id":"0.0-98.0"},{"result":161,"points":3,"place":0,"phase":1,"sequence":14,"times":[1375],"next_num":1,"trial_type":"ticket-choose","trial_index":99,"time_elapsed":1147629,"internal_node_id":"0.0-99.0"},{"result":152,"points":3,"place":0,"phase":1,"sequence":15,"times":[570,569,459,1444],"next_num":4,"trial_type":"ticket-choose","trial_index":100,"time_elapsed":1153133,"internal_node_id":"0.0-100.0"},{"result":143,"points":3,"place":0,"phase":1,"sequence":16,"times":[836,889,430,463,755],"next_num":5,"trial_type":"ticket-choose","trial_index":101,"time_elapsed":1159362,"internal_node_id":"0.0-101.0"},{"result":170,"points":1,"place":4,"phase":1,"sequence":17,"times":[560,346,849,486,908,460,465,462,475,1053],"next_num":10,"trial_type":"ticket-choose","trial_index":102,"time_elapsed":1169131,"internal_node_id":"0.0-102.0"},{"result":158,"points":2,"place":1,"phase":1,"sequence":18,"times":[808,426,857],"next_num":3,"trial_type":"ticket-choose","trial_index":103,"time_elapsed":1173479,"internal_node_id":"0.0-103.0"},{"result":150,"points":3,"place":0,"phase":1,"sequence":19,"times":[2274],"next_num":1,"trial_type":"ticket-choose","trial_index":104,"time_elapsed":1177586,"internal_node_id":"0.0-104.0"},{"result":163,"points":1,"place":2,"phase":1,"sequence":20,"times":[541,1662],"next_num":2,"trial_type":"ticket-choose","trial_index":105,"time_elapsed":1181808,"internal_node_id":"0.0-105.0"},{"result":156,"points":3,"place":0,"phase":1,"sequence":21,"times":[1565],"next_num":1,"trial_type":"ticket-choose","trial_index":106,"time_elapsed":1185261,"internal_node_id":"0.0-106.0"},{"result":167,"points":2,"place":1,"phase":1,"sequence":22,"times":[514,531,646,457,701],"next_num":5,"trial_type":"ticket-choose","trial_index":107,"time_elapsed":1190853,"internal_node_id":"0.0-107.0"},{"result":169,"points":1,"place":2,"phase":1,"sequence":23,"times":[1089,643,534,537,469,468,476,790],"next_num":8,"trial_type":"ticket-choose","trial_index":108,"time_elapsed":1199134,"internal_node_id":"0.0-108.0"},{"result":161,"points":3,"place":0,"phase":1,"sequence":24,"times":[1796],"next_num":1,"trial_type":"ticket-choose","trial_index":109,"time_elapsed":1202838,"internal_node_id":"0.0-109.0"},{"result":163,"points":2,"place":1,"phase":1,"sequence":25,"times":[869,1306,587,486,766,483,888],"next_num":7,"trial_type":"ticket-choose","trial_index":110,"time_elapsed":1211395,"internal_node_id":"0.0-110.0"},{"result":163,"points":2,"place":1,"phase":1,"sequence":26,"times":[565,338,814],"next_num":3,"trial_type":"ticket-choose","trial_index":111,"time_elapsed":1215375,"internal_node_id":"0.0-111.0"},{"result":163,"points":2,"place":1,"phase":1,"sequence":27,"times":[752,429,601,476,1485,472,830],"next_num":7,"trial_type":"ticket-choose","trial_index":112,"time_elapsed":1223884,"internal_node_id":"0.0-112.0"},{"result":167,"points":2,"place":1,"phase":1,"sequence":28,"times":[571,425,443,486,493,459,1394],"next_num":7,"trial_type":"ticket-choose","trial_index":113,"time_elapsed":1231228,"internal_node_id":"0.0-113.0"},{"result":163,"points":2,"place":1,"phase":1,"sequence":29,"times":[484,366,1675],"next_num":3,"trial_type":"ticket-choose","trial_index":114,"time_elapsed":1236048,"internal_node_id":"0.0-114.0"},{"result":158,"points":2,"place":1,"phase":1,"sequence":30,"times":[773,608,824],"next_num":3,"trial_type":"ticket-choose","trial_index":115,"time_elapsed":1240454,"internal_node_id":"0.0-115.0"},{"result":163,"points":2,"place":1,"phase":1,"sequence":31,"times":[482,416,988,851],"next_num":4,"trial_type":"ticket-choose","trial_index":116,"time_elapsed":1245999,"internal_node_id":"0.0-116.0"},{"result":158,"points":2,"place":1,"phase":1,"sequence":32,"times":[481,291,1545],"next_num":3,"trial_type":"ticket-choose","trial_index":117,"time_elapsed":1250481,"internal_node_id":"0.0-117.0"},{"result":167,"points":2,"place":1,"phase":1,"sequence":33,"times":[463,433,450,476,465,624,612],"next_num":7,"trial_type":"ticket-choose","trial_index":118,"time_elapsed":1257079,"internal_node_id":"0.0-118.0"},{"result":167,"points":2,"place":1,"phase":1,"sequence":34,"times":[492,457,465,474,530,467,1186],"next_num":7,"trial_type":"ticket-choose","trial_index":119,"time_elapsed":1264377,"internal_node_id":"0.0-119.0"},{"result":158,"points":3,"place":0,"phase":1,"sequence":35,"times":[1085,553,468,481,507,742],"next_num":6,"trial_type":"ticket-choose","trial_index":120,"time_elapsed":1271015,"internal_node_id":"0.0-120.0"},{"result":165,"points":3,"place":0,"phase":1,"sequence":36,"times":[494,846,269,413,753],"next_num":5,"trial_type":"ticket-choose","trial_index":121,"time_elapsed":1276466,"internal_node_id":"0.0-121.0"},{"result":150,"points":3,"place":0,"phase":1,"sequence":37,"times":[427,1282],"next_num":2,"trial_type":"ticket-choose","trial_index":122,"time_elapsed":1280186,"internal_node_id":"0.0-122.0"},{"result":155,"points":2,"place":1,"phase":1,"sequence":38,"times":[479,1072],"next_num":2,"trial_type":"ticket-choose","trial_index":123,"time_elapsed":1284148,"internal_node_id":"0.0-123.0"},{"result":163,"points":2,"place":1,"phase":1,"sequence":39,"times":[487,452,453,451,463,397,720],"next_num":7,"trial_type":"ticket-choose","trial_index":124,"time_elapsed":1291510,"internal_node_id":"0.0-124.0"},{"result":152,"points":3,"place":0,"phase":1,"sequence":40,"times":[1413],"next_num":1,"trial_type":"ticket-choose","trial_index":125,"time_elapsed":1294709,"internal_node_id":"0.0-125.0"},{"result":168,"points":1,"place":2,"phase":1,"sequence":41,"times":[537,473,997,443,519,446,496,877],"next_num":8,"trial_type":"ticket-choose","trial_index":126,"time_elapsed":1302748,"internal_node_id":"0.0-126.0"},{"result":158,"points":2,"place":1,"phase":1,"sequence":42,"times":[489,338,476,396,585,501,682],"next_num":7,"trial_type":"ticket-choose","trial_index":127,"time_elapsed":1309346,"internal_node_id":"0.0-127.0"},{"result":166,"points":1,"place":2,"phase":1,"sequence":43,"times":[614,333,1418,221,452,462,558,965],"next_num":8,"trial_type":"ticket-choose","trial_index":128,"time_elapsed":1317556,"internal_node_id":"0.0-128.0"},{"result":157,"points":3,"place":0,"phase":1,"sequence":44,"times":[469,441,1021],"next_num":3,"trial_type":"ticket-choose","trial_index":129,"time_elapsed":1321715,"internal_node_id":"0.0-129.0"},{"result":158,"points":2,"place":1,"phase":1,"sequence":45,"times":[905,481,789],"next_num":3,"trial_type":"ticket-choose","trial_index":130,"time_elapsed":1326111,"internal_node_id":"0.0-130.0"},{"result":163,"points":3,"place":0,"phase":1,"sequence":46,"times":[629,291,648,495,492,537,474,660],"next_num":8,"trial_type":"ticket-choose","trial_index":131,"time_elapsed":1334046,"internal_node_id":"0.0-131.0"},{"result":185,"points":1,"place":4,"phase":1,"sequence":47,"times":[610,224,649,443,486,479,468,548,533,562],"next_num":10,"trial_type":"ticket-choose","trial_index":132,"time_elapsed":1342853,"internal_node_id":"0.0-132.0"},{"result":165,"points":2,"place":1,"phase":1,"sequence":48,"times":[433,366,853],"next_num":3,"trial_type":"ticket-choose","trial_index":133,"time_elapsed":1346896,"internal_node_id":"0.0-133.0"},{"result":163,"points":1,"place":3,"phase":1,"sequence":49,"times":[578,427,386,733],"next_num":4,"trial_type":"ticket-choose","trial_index":134,"time_elapsed":1351472,"internal_node_id":"0.0-134.0"},{"responses":[{"value":1,"offby":1,"category":"$106 - $134","category_index":0},{"value":2,"offby":1,"category":"$135 - $150","category_index":1},{"value":4,"offby":1,"category":"$151 - $165","category_index":2},{"value":6,"offby":0,"category":"$166 - $180","category_index":3},{"value":4,"offby":-2,"category":"$181 - $195","category_index":4},{"value":2,"offby":-1,"category":"$196 - $210","category_index":5},{"value":1,"offby":0,"category":"$211 - $225","category_index":6}],"phase":1,"number":1,"trial_type":"bar-choose","trial_index":135,"time_elapsed":1371463,"internal_node_id":"0.0-135.0"},{"special_comment":"notreally","trial_type":"special_sequence","trial_index":136,"time_elapsed":1379726,"internal_node_id":"0.0-136.0"},{"during":"Nothing","bonus":264,"trial_type":"final","trial_index":137,"time_elapsed":1405910,"internal_node_id":"0.0-137.0"}],"bonus":264}