{"start_time":"2017-02-24 16:11:39","end_time":"2017-02-24 17:00:22","points_phase0":100,"points_phase1":99,"phase_order":0,"age":45,"gender":"m","tries":1,"during":"Nothing","worker_id":"AYXIDCIGUA037","assignment_id":"3AZHRG4CU5DPPA95LNVA0NEZKMV308","data":[{"rt":488065,"url":"\/tickets\/utils\/consent.html","trial_type":"html","trial_index":0,"time_elapsed":488363,"internal_node_id":"0.0-0.0"},{"age":45,"gender":"m","trial_type":"age","trial_index":1,"time_elapsed":495089,"internal_node_id":"0.0-1.0"},{"worker_id":"AYXIDCIGUA037","trial_type":"workerid","trial_index":2,"time_elapsed":506250,"internal_node_id":"0.0-2.0"},{"tries":1,"trial_type":"instructions_check","trial_index":3,"time_elapsed":1335887,"internal_node_id":"0.0-3.0"},{"rt":9863,"url":"\/tickets\/utils\/start.html","trial_type":"html","trial_index":4,"time_elapsed":1347054,"internal_node_id":"0.0-4.0"},{"trial_type":"number-animation","trial_index":5,"time_elapsed":1364966,"internal_node_id":"0.0-5.0"},{"phase":0,"sequence":0,"avg":180,"response":182,"trial_type":"training_avg","trial_index":6,"time_elapsed":1374473,"internal_node_id":"0.0-6.0"},{"trial_type":"number-animation","trial_index":7,"time_elapsed":1385965,"internal_node_id":"0.0-7.0"},{"phase":0,"sequence":1,"avg":178,"response":177,"trial_type":"training_avg","trial_index":8,"time_elapsed":1394100,"internal_node_id":"0.0-8.0"},{"trial_type":"number-animation","trial_index":9,"time_elapsed":1406246,"internal_node_id":"0.0-9.0"},{"phase":0,"sequence":2,"avg":176,"response":179,"trial_type":"training_avg","trial_index":10,"time_elapsed":1413431,"internal_node_id":"0.0-10.0"},{"trial_type":"number-animation","trial_index":11,"time_elapsed":1427768,"internal_node_id":"0.0-11.0"},{"phase":0,"sequence":3,"avg":178,"response":176,"trial_type":"training_avg","trial_index":12,"time_elapsed":1434122,"internal_node_id":"0.0-12.0"},{"trial_type":"number-animation","trial_index":13,"time_elapsed":1445821,"internal_node_id":"0.0-13.0"},{"phase":0,"sequence":4,"avg":179,"response":180,"trial_type":"training_avg","trial_index":14,"time_elapsed":1451955,"internal_node_id":"0.0-14.0"},{"responses":[{"value":0,"offby":0,"category":"$140 - $250","category_index":0},{"value":0,"offby":0,"category":"$151 - $160","category_index":1},{"value":5,"offby":1,"category":"$161 - $170","category_index":2},{"value":12,"offby":6,"category":"$171 - $180","category_index":3},{"value":3,"offby":-4,"category":"$181 - $190","category_index":4},{"value":0,"offby":-3,"category":"$191 - $200","category_index":5},{"value":0,"offby":0,"category":"$201 - $210","category_index":6}],"phase":0,"number":0,"trial_type":"bar-choose","trial_index":15,"time_elapsed":1484301,"internal_node_id":"0.0-15.0"},{"rt":13854,"url":"\/tickets\/\/utils\/testing.html","trial_type":"html","trial_index":16,"time_elapsed":1499340,"internal_node_id":"0.0-16.0"},{"phase":0,"order":[35,32,40,21,9,22,42,24,10,45,8,6,17,41,48,29,39,44,1,27,11,18,19,14,16,7,46,5,2,49,23,43,4,31,28,38,0,15,26,13,34,37,47,20,3,36,33,25,30,12],"trial_type":"store_order","trial_index":17,"time_elapsed":1500369,"internal_node_id":"0.0-17.0"},{"result":165,"points":2,"place":1,"phase":0,"sequence":-1,"prices":[184,180,224,165,181,199,185,193,218,126],"times":[2346,1024,823,1941],"next_num":4,"trial_type":"ticket-choose","trial_index":18,"time_elapsed":1509861,"internal_node_id":"0.0-18.0"},{"rt":6613,"url":"\/tickets\/utils\/testing_after.html","trial_type":"html","trial_index":19,"time_elapsed":1517656,"internal_node_id":"0.0-19.0"},{"result":154,"points":3,"place":0,"phase":0,"sequence":0,"prices":[188,179,154,183,173,170,177,160,169,175],"times":[1732,927,2001],"next_num":3,"trial_type":"ticket-choose","trial_index":20,"time_elapsed":1526382,"internal_node_id":"0.0-20.0"},{"result":173,"points":1,"place":2,"phase":0,"sequence":1,"prices":[171,180,172,174,179,188,173,183,186,175],"times":[1180,705,656,619,672,994,1859],"next_num":7,"trial_type":"ticket-choose","trial_index":21,"time_elapsed":1537130,"internal_node_id":"0.0-21.0"},{"result":167,"points":3,"place":0,"phase":0,"sequence":2,"prices":[179,174,199,178,196,167,170,184,177,190],"times":[749,529,498,519,578,1375],"next_num":6,"trial_type":"ticket-choose","trial_index":22,"time_elapsed":1544792,"internal_node_id":"0.0-22.0"},{"result":168,"points":2,"place":1,"phase":0,"sequence":3,"prices":[174,178,176,192,177,181,168,171,163,182],"times":[970,552,503,2340,733,830,1171],"next_num":7,"trial_type":"ticket-choose","trial_index":23,"time_elapsed":1556212,"internal_node_id":"0.0-23.0"},{"result":165,"points":3,"place":0,"phase":0,"sequence":4,"prices":[176,180,170,194,179,183,178,173,165,184],"times":[1149,511,480,493,739,571,650,1024,1253],"next_num":9,"trial_type":"ticket-choose","trial_index":24,"time_elapsed":1567215,"internal_node_id":"0.0-24.0"},{"result":168,"points":2,"place":1,"phase":0,"sequence":5,"prices":[173,178,176,193,177,182,168,172,164,183],"times":[1900,495,659,439,533,602,1242],"next_num":7,"trial_type":"ticket-choose","trial_index":25,"time_elapsed":1577271,"internal_node_id":"0.0-25.0"},{"result":160,"points":3,"place":0,"phase":0,"sequence":6,"prices":[175,193,175,160,180,170,175,205,177,167],"times":[611,389,685,1519],"next_num":4,"trial_type":"ticket-choose","trial_index":26,"time_elapsed":1583911,"internal_node_id":"0.0-26.0"},{"result":176,"points":1,"place":4,"phase":0,"sequence":7,"prices":[161,180,170,174,178,198,173,182,188,176],"times":[699,557,529,542,559,594,949,608,646,1505],"next_num":10,"trial_type":"ticket-choose","trial_index":27,"time_elapsed":1595576,"internal_node_id":"0.0-27.0"},{"result":166,"points":3,"place":0,"phase":0,"sequence":8,"prices":[175,180,170,195,179,184,178,174,166,185],"times":[885,475,421,526,540,680,678,1198,2408],"next_num":9,"trial_type":"ticket-choose","trial_index":28,"time_elapsed":1608541,"internal_node_id":"0.0-28.0"},{"result":165,"points":2,"place":1,"phase":0,"sequence":9,"prices":[179,174,172,162,202,184,165,197,185,169],"times":[843,531,384,368,514,749,1375],"next_num":7,"trial_type":"ticket-choose","trial_index":29,"time_elapsed":1617032,"internal_node_id":"0.0-29.0"},{"result":173,"points":1,"place":2,"phase":0,"sequence":10,"prices":[176,180,170,194,179,183,178,173,165,184],"times":[1352,602,944,542,543,585,550,1424],"next_num":8,"trial_type":"ticket-choose","trial_index":30,"time_elapsed":1627715,"internal_node_id":"0.0-30.0"},{"result":169,"points":2,"place":1,"phase":0,"sequence":11,"prices":[174,179,177,194,178,183,169,173,165,184],"times":[843,443,547,676,660,609,1575],"next_num":7,"trial_type":"ticket-choose","trial_index":31,"time_elapsed":1636800,"internal_node_id":"0.0-31.0"},{"result":171,"points":1,"place":2,"phase":0,"sequence":12,"prices":[174,178,168,192,177,181,176,171,163,182],"times":[632,410,1206,485,554,530,703,1654],"next_num":8,"trial_type":"ticket-choose","trial_index":32,"time_elapsed":1646633,"internal_node_id":"0.0-32.0"},{"result":169,"points":2,"place":1,"phase":0,"sequence":13,"prices":[180,165,177,193,186,196,187,169,171,182],"times":[649,441,417,425,610,596,532,1293],"next_num":8,"trial_type":"ticket-choose","trial_index":33,"time_elapsed":1655191,"internal_node_id":"0.0-33.0"},{"result":171,"points":3,"place":0,"phase":0,"sequence":14,"prices":[193,173,175,182,179,198,181,171,176,187],"times":[744,411,337,500,531,550,737,1143],"next_num":8,"trial_type":"ticket-choose","trial_index":34,"time_elapsed":1664060,"internal_node_id":"0.0-34.0"},{"result":172,"points":1,"place":2,"phase":0,"sequence":15,"prices":[166,190,170,173,178,203,172,192,198,174],"times":[656,411,380,368,574,704,1646],"next_num":7,"trial_type":"ticket-choose","trial_index":35,"time_elapsed":1672379,"internal_node_id":"0.0-35.0"},{"result":171,"points":1,"place":2,"phase":0,"sequence":16,"prices":[195,177,197,179,171,173,175,156,163,204],"times":[698,4149,455,512,1203],"next_num":5,"trial_type":"ticket-choose","trial_index":36,"time_elapsed":1682856,"internal_node_id":"0.0-36.0"},{"result":150,"points":3,"place":0,"phase":0,"sequence":17,"prices":[175,150,164,155,171,199,158,180,184,196],"times":[604,1661],"next_num":2,"trial_type":"ticket-choose","trial_index":37,"time_elapsed":1687563,"internal_node_id":"0.0-37.0"},{"result":172,"points":1,"place":2,"phase":0,"sequence":18,"prices":[175,179,169,193,178,182,177,172,164,183],"times":[718,482,564,480,563,502,860,1295],"next_num":8,"trial_type":"ticket-choose","trial_index":38,"time_elapsed":1696627,"internal_node_id":"0.0-38.0"},{"result":183,"points":1,"place":4,"phase":0,"sequence":19,"prices":[168,188,171,181,184,196,180,194,195,183],"times":[900,477,755,563,513,584,996,630,894,1092],"next_num":10,"trial_type":"ticket-choose","trial_index":39,"time_elapsed":1709079,"internal_node_id":"0.0-39.0"},{"result":166,"points":3,"place":0,"phase":0,"sequence":20,"prices":[175,180,170,195,179,184,178,174,166,185],"times":[782,452,802,497,609,515,595,1016,1233],"next_num":9,"trial_type":"ticket-choose","trial_index":40,"time_elapsed":1719488,"internal_node_id":"0.0-40.0"},{"result":168,"points":2,"place":1,"phase":0,"sequence":21,"prices":[173,178,168,193,177,182,176,172,164,183],"times":[315,358,1934],"next_num":3,"trial_type":"ticket-choose","trial_index":41,"time_elapsed":1724685,"internal_node_id":"0.0-41.0"},{"result":168,"points":2,"place":1,"phase":0,"sequence":22,"prices":[173,178,168,193,177,182,176,172,164,183],"times":[465,491,1145],"next_num":3,"trial_type":"ticket-choose","trial_index":42,"time_elapsed":1729489,"internal_node_id":"0.0-42.0"},{"result":170,"points":2,"place":1,"phase":0,"sequence":23,"prices":[175,180,178,195,179,184,170,174,166,185],"times":[545,436,446,440,509,614,1336],"next_num":7,"trial_type":"ticket-choose","trial_index":43,"time_elapsed":1737854,"internal_node_id":"0.0-43.0"},{"result":168,"points":2,"place":1,"phase":0,"sequence":24,"prices":[174,178,168,192,177,181,176,171,163,182],"times":[859,417,1520],"next_num":3,"trial_type":"ticket-choose","trial_index":44,"time_elapsed":1743131,"internal_node_id":"0.0-44.0"},{"result":169,"points":2,"place":1,"phase":0,"sequence":25,"prices":[174,179,177,194,178,183,169,173,165,184],"times":[392,443,441,496,590,467,1588],"next_num":7,"trial_type":"ticket-choose","trial_index":45,"time_elapsed":1751017,"internal_node_id":"0.0-45.0"},{"result":166,"points":3,"place":0,"phase":0,"sequence":26,"prices":[179,186,197,201,166,187,188,193,190,177],"times":[537,381,367,512,1617],"next_num":5,"trial_type":"ticket-choose","trial_index":46,"time_elapsed":1757285,"internal_node_id":"0.0-46.0"},{"result":169,"points":2,"place":1,"phase":0,"sequence":27,"prices":[175,179,177,193,178,182,169,172,164,183],"times":[426,583,279,542,567,531,1313],"next_num":7,"trial_type":"ticket-choose","trial_index":47,"time_elapsed":1765138,"internal_node_id":"0.0-47.0"},{"result":173,"points":1,"place":2,"phase":0,"sequence":28,"prices":[174,179,169,194,178,183,177,173,165,184],"times":[414,349,426,352,473,485,608,1555],"next_num":8,"trial_type":"ticket-choose","trial_index":48,"time_elapsed":1773279,"internal_node_id":"0.0-48.0"},{"result":170,"points":2,"place":1,"phase":0,"sequence":29,"prices":[175,189,193,170,179,165,180,186,177,184],"times":[475,404,490,1630],"next_num":4,"trial_type":"ticket-choose","trial_index":49,"time_elapsed":1778896,"internal_node_id":"0.0-49.0"},{"result":168,"points":2,"place":1,"phase":0,"sequence":30,"prices":[173,178,176,193,177,182,168,172,164,183],"times":[372,376,487,582,694,623,1551],"next_num":7,"trial_type":"ticket-choose","trial_index":50,"time_elapsed":1787099,"internal_node_id":"0.0-50.0"},{"result":164,"points":1,"place":2,"phase":0,"sequence":31,"prices":[188,191,179,157,181,164,166,156,175,182],"times":[437,441,404,450,952,1517],"next_num":6,"trial_type":"ticket-choose","trial_index":51,"time_elapsed":1795268,"internal_node_id":"0.0-51.0"},{"result":169,"points":2,"place":1,"phase":0,"sequence":32,"prices":[175,179,177,193,178,182,169,172,164,183],"times":[821,434,610,564,590,590,1201],"next_num":7,"trial_type":"ticket-choose","trial_index":52,"time_elapsed":1803480,"internal_node_id":"0.0-52.0"},{"result":177,"points":1,"place":4,"phase":0,"sequence":33,"prices":[157,184,163,174,181,190,168,187,189,177],"times":[422,610,567,470,476,592,1333,575,565,1208],"next_num":10,"trial_type":"ticket-choose","trial_index":53,"time_elapsed":1815913,"internal_node_id":"0.0-53.0"},{"result":159,"points":3,"place":0,"phase":0,"sequence":34,"prices":[159,178,170,174,176,194,173,182,185,175],"times":[1784],"next_num":1,"trial_type":"ticket-choose","trial_index":54,"time_elapsed":1819856,"internal_node_id":"0.0-54.0"},{"result":170,"points":3,"place":0,"phase":0,"sequence":35,"prices":[181,179,199,188,170,172,178,187,191,177],"times":[855,651,504,485,1397],"next_num":5,"trial_type":"ticket-choose","trial_index":55,"time_elapsed":1827370,"internal_node_id":"0.0-55.0"},{"result":172,"points":1,"place":2,"phase":0,"sequence":36,"prices":[175,179,169,193,178,182,177,172,164,183],"times":[730,355,405,530,489,536,662,1197],"next_num":8,"trial_type":"ticket-choose","trial_index":56,"time_elapsed":1835793,"internal_node_id":"0.0-56.0"},{"result":170,"points":2,"place":1,"phase":0,"sequence":37,"prices":[175,180,178,195,179,184,170,174,166,185],"times":[372,469,544,499,577,600,1259],"next_num":7,"trial_type":"ticket-choose","trial_index":57,"time_elapsed":1843474,"internal_node_id":"0.0-57.0"},{"result":165,"points":3,"place":0,"phase":0,"sequence":38,"prices":[165,187,173,177,186,196,176,191,192,181],"times":[1266],"next_num":1,"trial_type":"ticket-choose","trial_index":58,"time_elapsed":1846800,"internal_node_id":"0.0-58.0"},{"result":170,"points":2,"place":1,"phase":0,"sequence":39,"prices":[176,180,178,194,179,183,170,173,165,184],"times":[737,459,617,676,1254,632,1469],"next_num":7,"trial_type":"ticket-choose","trial_index":59,"time_elapsed":1856329,"internal_node_id":"0.0-59.0"},{"result":165,"points":2,"place":1,"phase":0,"sequence":40,"prices":[181,180,191,186,165,197,159,167,194,185],"times":[611,501,495,555,1324],"next_num":5,"trial_type":"ticket-choose","trial_index":60,"time_elapsed":1862743,"internal_node_id":"0.0-60.0"},{"result":168,"points":2,"place":1,"phase":0,"sequence":41,"prices":[181,175,182,168,183,173,153,170,193,179],"times":[559,707,516,1199],"next_num":4,"trial_type":"ticket-choose","trial_index":61,"time_elapsed":1868383,"internal_node_id":"0.0-61.0"},{"result":174,"points":2,"place":1,"phase":0,"sequence":42,"prices":[180,175,173,177,191,190,184,196,174,181],"times":[673,856,1004,576,541,560,525,633,1309],"next_num":9,"trial_type":"ticket-choose","trial_index":62,"time_elapsed":1878827,"internal_node_id":"0.0-62.0"},{"result":168,"points":2,"place":1,"phase":0,"sequence":43,"prices":[174,178,176,192,177,181,168,171,163,182],"times":[488,436,616,533,517,521,1179],"next_num":7,"trial_type":"ticket-choose","trial_index":63,"time_elapsed":1887120,"internal_node_id":"0.0-63.0"},{"result":169,"points":2,"place":1,"phase":0,"sequence":44,"prices":[174,179,169,194,178,183,177,173,165,184],"times":[495,559,1695],"next_num":3,"trial_type":"ticket-choose","trial_index":64,"time_elapsed":1892400,"internal_node_id":"0.0-64.0"},{"result":169,"points":1,"place":2,"phase":0,"sequence":45,"prices":[189,185,169,168,167,171,180,173,174,188],"times":[580,573,1370],"next_num":3,"trial_type":"ticket-choose","trial_index":65,"time_elapsed":1897417,"internal_node_id":"0.0-65.0"},{"result":179,"points":1,"place":4,"phase":0,"sequence":46,"prices":[170,183,172,175,180,189,174,187,188,179],"times":[718,435,563,514,489,588,717,713,570,923],"next_num":11,"trial_type":"ticket-choose","trial_index":66,"time_elapsed":1908716,"internal_node_id":"0.0-66.0"},{"result":163,"points":3,"place":0,"phase":0,"sequence":47,"prices":[163,185,165,174,181,198,173,186,187,180],"times":[1732],"next_num":1,"trial_type":"ticket-choose","trial_index":67,"time_elapsed":1912762,"internal_node_id":"0.0-67.0"},{"result":160,"points":3,"place":0,"phase":0,"sequence":48,"prices":[160,185,170,174,182,196,173,186,194,177],"times":[1218],"next_num":1,"trial_type":"ticket-choose","trial_index":68,"time_elapsed":1916072,"internal_node_id":"0.0-68.0"},{"result":170,"points":2,"place":1,"phase":0,"sequence":49,"prices":[176,180,178,194,179,183,170,173,165,184],"times":[662,484,1164,559,632,598,1167],"next_num":7,"trial_type":"ticket-choose","trial_index":69,"time_elapsed":1924771,"internal_node_id":"0.0-69.0"},{"responses":[{"value":0,"offby":0,"category":"$140 - $250","category_index":0},{"value":0,"offby":0,"category":"$151 - $160","category_index":1},{"value":4,"offby":0,"category":"$161 - $170","category_index":2},{"value":10,"offby":4,"category":"$171 - $180","category_index":3},{"value":4,"offby":-3,"category":"$181 - $190","category_index":4},{"value":2,"offby":-1,"category":"$191 - $200","category_index":5},{"value":0,"offby":0,"category":"$201 - $210","category_index":6}],"phase":0,"number":1,"trial_type":"bar-choose","trial_index":70,"time_elapsed":1950029,"internal_node_id":"0.0-70.0"},{"rt":180078,"url":"\/tickets\/utils\/start2.html","trial_type":"html","trial_index":71,"time_elapsed":2131312,"internal_node_id":"0.0-71.0"},{"trial_type":"number-animation","trial_index":72,"time_elapsed":2144342,"internal_node_id":"0.0-72.0"},{"phase":1,"sequence":0,"avg":166,"response":130,"trial_type":"training_avg","trial_index":73,"time_elapsed":2150440,"internal_node_id":"0.0-73.0"},{"trial_type":"number-animation","trial_index":74,"time_elapsed":2165298,"internal_node_id":"0.0-74.0"},{"phase":1,"sequence":1,"avg":198,"response":203,"trial_type":"training_avg","trial_index":75,"time_elapsed":2177368,"internal_node_id":"0.0-75.0"},{"trial_type":"number-animation","trial_index":76,"time_elapsed":2188528,"internal_node_id":"0.0-76.0"},{"phase":1,"sequence":2,"avg":177,"response":173,"trial_type":"training_avg","trial_index":77,"time_elapsed":2195847,"internal_node_id":"0.0-77.0"},{"trial_type":"number-animation","trial_index":78,"time_elapsed":2205905,"internal_node_id":"0.0-78.0"},{"phase":1,"sequence":3,"avg":190,"response":177,"trial_type":"training_avg","trial_index":79,"time_elapsed":2213803,"internal_node_id":"0.0-79.0"},{"trial_type":"number-animation","trial_index":80,"time_elapsed":2225563,"internal_node_id":"0.0-80.0"},{"phase":1,"sequence":4,"avg":201,"response":210,"trial_type":"training_avg","trial_index":81,"time_elapsed":2233839,"internal_node_id":"0.0-81.0"},{"responses":[{"value":0,"offby":-1,"category":"$30 - $75","category_index":0},{"value":5,"offby":3,"category":"$76 - $120","category_index":1},{"value":2,"offby":-2,"category":"$121 - $165","category_index":2},{"value":9,"offby":3,"category":"$166 - $210","category_index":3},{"value":4,"offby":-2,"category":"$211 - $255","category_index":4},{"value":0,"offby":-1,"category":"$256 - $300","category_index":5},{"value":0,"offby":0,"category":"$301 - $345","category_index":6}],"phase":1,"number":0,"trial_type":"bar-choose","trial_index":82,"time_elapsed":2268550,"internal_node_id":"0.0-82.0"},{"rt":3935,"url":"\/tickets\/utils\/testing2.html","trial_type":"html","trial_index":83,"time_elapsed":2273688,"internal_node_id":"0.0-83.0"},{"phase":1,"order":[24,8,30,41,33,44,16,21,1,12,23,17,40,2,43,19,38,47,32,45,42,7,27,46,0,39,31,14,28,34,36,6,26,5,10,49,13,18,25,11,9,4,20,15,22,37,3,35,29,48],"trial_type":"store_order","trial_index":84,"time_elapsed":2274794,"internal_node_id":"0.0-84.0"},{"result":86,"points":3,"place":0,"phase":1,"sequence":0,"prices":[86,180,130,151,170,271,145,191,220,160],"times":[2399],"next_num":1,"trial_type":"ticket-choose","trial_index":85,"time_elapsed":2279450,"internal_node_id":"0.0-85.0"},{"result":161,"points":1,"place":3,"phase":1,"sequence":1,"prices":[161,180,131,251,175,196,171,146,105,201],"times":[2077],"next_num":1,"trial_type":"ticket-choose","trial_index":86,"time_elapsed":2284148,"internal_node_id":"0.0-86.0"},{"result":165,"points":1,"place":4,"phase":1,"sequence":2,"prices":[81,205,130,151,191,261,145,210,250,165],"times":[22650,531,473,471,469,474,494,682,714,1394],"next_num":10,"trial_type":"ticket-choose","trial_index":87,"time_elapsed":2316964,"internal_node_id":"0.0-87.0"},{"result":106,"points":3,"place":0,"phase":1,"sequence":3,"prices":[180,106,166,245,211,261,215,125,135,190],"times":[1079,1275],"next_num":2,"trial_type":"ticket-choose","trial_index":88,"time_elapsed":2321835,"internal_node_id":"0.0-88.0"},{"result":175,"points":1,"place":4,"phase":1,"sequence":4,"prices":[130,195,141,155,181,226,150,216,221,175],"times":[1056,506,572,548,608,647,978,752,649,1445],"next_num":10,"trial_type":"ticket-choose","trial_index":89,"time_elapsed":2333756,"internal_node_id":"0.0-89.0"},{"result":30,"points":3,"place":0,"phase":1,"sequence":5,"prices":[155,30,101,55,136,276,70,181,200,261],"times":[1224,1319],"next_num":2,"trial_type":"ticket-choose","trial_index":90,"time_elapsed":2338697,"internal_node_id":"0.0-90.0"},{"result":121,"points":2,"place":1,"phase":1,"sequence":6,"prices":[150,171,121,241,165,185,160,136,95,191],"times":[775,488,1337],"next_num":3,"trial_type":"ticket-choose","trial_index":91,"time_elapsed":2343826,"internal_node_id":"0.0-91.0"},{"result":120,"points":2,"place":1,"phase":1,"sequence":7,"prices":[150,170,160,241,166,186,120,136,96,191],"times":[860,502,702,524,933,506,1385],"next_num":7,"trial_type":"ticket-choose","trial_index":92,"time_elapsed":2352848,"internal_node_id":"0.0-92.0"},{"result":125,"points":2,"place":1,"phase":1,"sequence":8,"prices":[156,175,125,245,170,190,165,140,101,196],"times":[417,435,1220],"next_num":3,"trial_type":"ticket-choose","trial_index":93,"time_elapsed":2357894,"internal_node_id":"0.0-93.0"},{"result":131,"points":2,"place":1,"phase":1,"sequence":9,"prices":[161,180,171,250,176,195,131,146,105,201],"times":[397,341,366,384,494,602,1321],"next_num":7,"trial_type":"ticket-choose","trial_index":94,"time_elapsed":2365245,"internal_node_id":"0.0-94.0"},{"result":120,"points":2,"place":1,"phase":1,"sequence":10,"prices":[145,170,160,245,165,190,120,141,100,195],"times":[428,382,402,392,420,483,1260],"next_num":7,"trial_type":"ticket-choose","trial_index":95,"time_elapsed":2372462,"internal_node_id":"0.0-95.0"},{"result":120,"points":2,"place":1,"phase":1,"sequence":11,"prices":[150,171,120,241,165,185,160,135,96,190],"times":[377,496,1437],"next_num":3,"trial_type":"ticket-choose","trial_index":96,"time_elapsed":2377856,"internal_node_id":"0.0-96.0"},{"result":150,"points":1,"place":2,"phase":1,"sequence":12,"prices":[176,150,276,171,261,116,130,201,166,231],"times":[535,1369],"next_num":2,"trial_type":"ticket-choose","trial_index":97,"time_elapsed":2382104,"internal_node_id":"0.0-97.0"},{"result":126,"points":2,"place":1,"phase":1,"sequence":13,"prices":[151,176,126,251,170,196,165,145,105,201],"times":[534,478,1256],"next_num":3,"trial_type":"ticket-choose","trial_index":98,"time_elapsed":2386854,"internal_node_id":"0.0-98.0"},{"result":65,"points":2,"place":1,"phase":1,"sequence":14,"prices":[220,236,176,65,185,101,110,61,156,191],"times":[637,568,639,1315],"next_num":4,"trial_type":"ticket-choose","trial_index":99,"time_elapsed":2392714,"internal_node_id":"0.0-99.0"},{"result":121,"points":2,"place":1,"phase":1,"sequence":15,"prices":[146,170,121,245,166,190,161,141,100,195],"times":[675,497,1496],"next_num":3,"trial_type":"ticket-choose","trial_index":100,"time_elapsed":2397836,"internal_node_id":"0.0-100.0"},{"result":130,"points":3,"place":0,"phase":1,"sequence":16,"prices":[185,175,276,221,130,141,171,216,235,165],"times":[381,488,527,493,1221],"next_num":5,"trial_type":"ticket-choose","trial_index":101,"time_elapsed":2403971,"internal_node_id":"0.0-101.0"},{"result":150,"points":2,"place":1,"phase":1,"sequence":17,"prices":[181,156,145,165,236,231,201,260,150,185],"times":[505,444,653,493,552,657,551,646,1460],"next_num":9,"trial_type":"ticket-choose","trial_index":102,"time_elapsed":2413865,"internal_node_id":"0.0-102.0"},{"result":145,"points":1,"place":2,"phase":1,"sequence":18,"prices":[135,180,141,151,175,220,145,196,211,155],"times":[915,473,586,560,533,534,1434],"next_num":7,"trial_type":"ticket-choose","trial_index":103,"time_elapsed":2422114,"internal_node_id":"0.0-103.0"},{"result":141,"points":1,"place":3,"phase":1,"sequence":19,"prices":[176,150,141,91,290,201,106,266,206,126],"times":[596,577,1271],"next_num":3,"trial_type":"ticket-choose","trial_index":104,"time_elapsed":2427188,"internal_node_id":"0.0-104.0"},{"result":81,"points":3,"place":0,"phase":1,"sequence":20,"prices":[155,245,155,81,180,130,156,306,166,115],"times":[797,586,590,1777],"next_num":4,"trial_type":"ticket-choose","trial_index":105,"time_elapsed":2434567,"internal_node_id":"0.0-105.0"},{"result":126,"points":2,"place":1,"phase":1,"sequence":21,"prices":[151,175,166,251,170,195,126,146,105,201],"times":[526,534,682,397,562,480,1288],"next_num":7,"trial_type":"ticket-choose","trial_index":106,"time_elapsed":2442683,"internal_node_id":"0.0-106.0"},{"result":196,"points":1,"place":4,"phase":1,"sequence":22,"prices":[120,221,135,185,200,261,181,251,255,196],"times":[783,547,470,362,604,491,565,550,672,1548],"next_num":10,"trial_type":"ticket-choose","trial_index":107,"time_elapsed":2453915,"internal_node_id":"0.0-107.0"},{"result":111,"points":3,"place":0,"phase":1,"sequence":23,"prices":[175,211,266,286,111,216,220,245,230,165],"times":[905,642,587,497,1347],"next_num":5,"trial_type":"ticket-choose","trial_index":108,"time_elapsed":2461997,"internal_node_id":"0.0-108.0"},{"result":126,"points":2,"place":1,"phase":1,"sequence":24,"prices":[156,175,126,246,170,190,165,140,100,196],"times":[960,600,1712],"next_num":3,"trial_type":"ticket-choose","trial_index":109,"time_elapsed":2468817,"internal_node_id":"0.0-109.0"},{"result":166,"points":0,"place":5,"phase":1,"sequence":25,"prices":[255,166,266,175,136,145,155,61,96,301],"times":[202760,2024],"next_num":2,"trial_type":"ticket-choose","trial_index":110,"time_elapsed":2676140,"internal_node_id":"0.0-110.0"},{"result":66,"points":3,"place":0,"phase":1,"sequence":26,"prices":[66,201,96,150,185,230,121,216,225,165],"times":[3084],"next_num":1,"trial_type":"ticket-choose","trial_index":111,"time_elapsed":2681720,"internal_node_id":"0.0-111.0"},{"result":130,"points":2,"place":1,"phase":1,"sequence":27,"prices":[155,181,170,255,176,200,130,150,110,205],"times":[911,582,574,618,1116,579,1091],"next_num":7,"trial_type":"ticket-choose","trial_index":112,"time_elapsed":2690788,"internal_node_id":"0.0-112.0"},{"result":156,"points":1,"place":4,"phase":1,"sequence":28,"prices":[75,171,131,151,161,250,145,190,206,156],"times":[583,672,485,1413,798,752,3060,772,751,1483],"next_num":10,"trial_type":"ticket-choose","trial_index":113,"time_elapsed":2706127,"internal_node_id":"0.0-113.0"},{"result":106,"points":2,"place":1,"phase":1,"sequence":29,"prices":[185,180,235,210,106,266,76,115,250,205],"times":[997,592,648,603,1358],"next_num":5,"trial_type":"ticket-choose","trial_index":114,"time_elapsed":2713938,"internal_node_id":"0.0-114.0"},{"result":125,"points":1,"place":2,"phase":1,"sequence":30,"prices":[226,205,125,120,115,135,180,145,150,220],"times":[653,540,1560],"next_num":3,"trial_type":"ticket-choose","trial_index":115,"time_elapsed":2719210,"internal_node_id":"0.0-115.0"},{"result":126,"points":2,"place":1,"phase":1,"sequence":31,"prices":[150,175,166,251,170,196,126,145,105,201],"times":[796,485,551,523,529,634,1506],"next_num":7,"trial_type":"ticket-choose","trial_index":116,"time_elapsed":2727683,"internal_node_id":"0.0-116.0"},{"result":185,"points":1,"place":4,"phase":1,"sequence":32,"prices":[105,216,146,165,210,260,161,235,241,185],"times":[420,500,415,445,825,536,824,545,550,1498],"next_num":10,"trial_type":"ticket-choose","trial_index":117,"time_elapsed":2738698,"internal_node_id":"0.0-117.0"},{"result":126,"points":2,"place":1,"phase":1,"sequence":33,"prices":[156,176,165,246,171,190,126,141,101,196],"times":[598,478,473,587,606,467,1279],"next_num":7,"trial_type":"ticket-choose","trial_index":118,"time_elapsed":2746906,"internal_node_id":"0.0-118.0"},{"result":131,"points":2,"place":1,"phase":1,"sequence":34,"prices":[156,181,131,256,176,200,171,151,111,206],"times":[726,547,1389],"next_num":3,"trial_type":"ticket-choose","trial_index":119,"time_elapsed":2751976,"internal_node_id":"0.0-119.0"},{"result":130,"points":2,"place":1,"phase":1,"sequence":35,"prices":[155,225,245,130,176,106,180,211,165,200],"times":[581,466,485,1268],"next_num":4,"trial_type":"ticket-choose","trial_index":120,"time_elapsed":2757414,"internal_node_id":"0.0-120.0"},{"result":131,"points":2,"place":1,"phase":1,"sequence":36,"prices":[160,180,170,251,176,195,131,146,105,200],"times":[664,420,456,687,654,509,780],"next_num":7,"trial_type":"ticket-choose","trial_index":121,"time_elapsed":2764974,"internal_node_id":"0.0-121.0"},{"result":120,"points":2,"place":1,"phase":1,"sequence":37,"prices":[146,171,120,245,165,191,160,140,100,196],"times":[612,518,1326],"next_num":3,"trial_type":"ticket-choose","trial_index":122,"time_elapsed":2769918,"internal_node_id":"0.0-122.0"},{"result":95,"points":3,"place":0,"phase":1,"sequence":38,"prices":[95,205,106,151,186,271,145,210,215,181],"times":[1232],"next_num":1,"trial_type":"ticket-choose","trial_index":123,"time_elapsed":2773145,"internal_node_id":"0.0-123.0"},{"result":130,"points":2,"place":1,"phase":1,"sequence":39,"prices":[156,181,130,255,175,200,170,150,111,205],"times":[1047,605,1067],"next_num":3,"trial_type":"ticket-choose","trial_index":124,"time_elapsed":2778556,"internal_node_id":"0.0-124.0"},{"result":130,"points":2,"place":1,"phase":1,"sequence":40,"prices":[160,180,130,251,176,195,170,146,105,200],"times":[648,464,1305],"next_num":3,"trial_type":"ticket-choose","trial_index":125,"time_elapsed":2783295,"internal_node_id":"0.0-125.0"},{"result":125,"points":2,"place":1,"phase":1,"sequence":41,"prices":[155,175,166,245,171,190,125,140,101,196],"times":[537,529,582,499,581,594,1119],"next_num":7,"trial_type":"ticket-choose","trial_index":126,"time_elapsed":2790967,"internal_node_id":"0.0-126.0"},{"result":121,"points":2,"place":1,"phase":1,"sequence":42,"prices":[150,170,160,240,166,185,121,136,95,191],"times":[428,446,972,518,642,551,1246],"next_num":7,"trial_type":"ticket-choose","trial_index":127,"time_elapsed":2799043,"internal_node_id":"0.0-127.0"},{"result":131,"points":2,"place":1,"phase":1,"sequence":43,"prices":[156,181,171,256,175,200,131,150,110,206],"times":[659,766,575,511,581,784,1052],"next_num":7,"trial_type":"ticket-choose","trial_index":128,"time_elapsed":2807950,"internal_node_id":"0.0-128.0"},{"result":120,"points":2,"place":1,"phase":1,"sequence":44,"prices":[145,171,161,245,165,191,120,140,100,196],"times":[1159,547,637,508,498,501,1145],"next_num":7,"trial_type":"ticket-choose","trial_index":129,"time_elapsed":2816672,"internal_node_id":"0.0-129.0"},{"result":120,"points":2,"place":1,"phase":1,"sequence":45,"prices":[186,156,191,120,195,145,45,130,246,176],"times":[771,579,526,1305],"next_num":4,"trial_type":"ticket-choose","trial_index":130,"time_elapsed":2823118,"internal_node_id":"0.0-130.0"},{"result":126,"points":2,"place":1,"phase":1,"sequence":46,"prices":[150,176,126,251,171,195,165,145,105,200],"times":[949,449,1341],"next_num":3,"trial_type":"ticket-choose","trial_index":131,"time_elapsed":2828346,"internal_node_id":"0.0-131.0"},{"result":51,"points":3,"place":0,"phase":1,"sequence":47,"prices":[221,175,51,196,146,130,166,80,126,156],"times":[489,547,1816],"next_num":3,"trial_type":"ticket-choose","trial_index":132,"time_elapsed":2833635,"internal_node_id":"0.0-132.0"},{"result":111,"points":3,"place":0,"phase":1,"sequence":48,"prices":[111,231,131,146,171,295,141,241,271,150],"times":[2047],"next_num":1,"trial_type":"ticket-choose","trial_index":133,"time_elapsed":2837895,"internal_node_id":"0.0-133.0"},{"result":136,"points":3,"place":0,"phase":1,"sequence":49,"prices":[246,145,155,191,176,270,185,136,160,215],"times":[501,457,589,491,527,565,553,1055],"next_num":8,"trial_type":"ticket-choose","trial_index":134,"time_elapsed":2846368,"internal_node_id":"0.0-134.0"},{"responses":[{"value":2,"offby":1,"category":"$30 - $75","category_index":0},{"value":4,"offby":2,"category":"$76 - $120","category_index":1},{"value":5,"offby":1,"category":"$121 - $165","category_index":2},{"value":6,"offby":0,"category":"$166 - $210","category_index":3},{"value":3,"offby":-3,"category":"$211 - $255","category_index":4},{"value":0,"offby":-1,"category":"$256 - $300","category_index":5},{"value":0,"offby":0,"category":"$301 - $345","category_index":6}],"phase":1,"number":1,"trial_type":"bar-choose","trial_index":135,"time_elapsed":2881945,"internal_node_id":"0.0-135.0"},{"special_comment":"no","trial_type":"special_sequence","trial_index":136,"time_elapsed":2886218,"internal_node_id":"0.0-136.0"},{"during":"Nothing","bonus":264,"trial_type":"final","trial_index":137,"time_elapsed":2916306,"internal_node_id":"0.0-137.0"}],"bonus":264}