{"start_time":"2017-02-21 11:04:51","end_time":"2017-02-21 11:27:47","points_phase0":104,"points_phase1":110,"phase_order":0,"age":28,"gender":"m","tries":1,"during":"Nothing","worker_id":"AZIY6IFOS4CVC","assignment_id":"37TD41K0AI2D3JP0NIPV3WOCL9HCSS","data":[{"rt":15500,"url":"\/tickets\/utils\/consent.html","trial_type":"html","trial_index":0,"time_elapsed":15862,"internal_node_id":"0.0-0.0"},{"age":28,"gender":"m","trial_type":"age","trial_index":1,"time_elapsed":22571,"internal_node_id":"0.0-1.0"},{"worker_id":"AZIY6IFOS4CVC","trial_type":"workerid","trial_index":2,"time_elapsed":30437,"internal_node_id":"0.0-2.0"},{"tries":1,"trial_type":"instructions_check","trial_index":3,"time_elapsed":67776,"internal_node_id":"0.0-3.0"},{"rt":16178,"url":"\/tickets\/utils\/start.html","trial_type":"html","trial_index":4,"time_elapsed":85560,"internal_node_id":"0.0-4.0"},{"trial_type":"number-animation","trial_index":5,"time_elapsed":103242,"internal_node_id":"0.0-5.0"},{"phase":0,"sequence":0,"avg":181,"response":173,"trial_type":"training_avg","trial_index":6,"time_elapsed":117174,"internal_node_id":"0.0-6.0"},{"trial_type":"number-animation","trial_index":7,"time_elapsed":127430,"internal_node_id":"0.0-7.0"},{"phase":0,"sequence":1,"avg":188,"response":189,"trial_type":"training_avg","trial_index":8,"time_elapsed":141516,"internal_node_id":"0.0-8.0"},{"trial_type":"number-animation","trial_index":9,"time_elapsed":151759,"internal_node_id":"0.0-9.0"},{"phase":0,"sequence":2,"avg":188,"response":195,"trial_type":"training_avg","trial_index":10,"time_elapsed":163763,"internal_node_id":"0.0-10.0"},{"trial_type":"number-animation","trial_index":11,"time_elapsed":174486,"internal_node_id":"0.0-11.0"},{"phase":0,"sequence":3,"avg":177,"response":173,"trial_type":"training_avg","trial_index":12,"time_elapsed":183282,"internal_node_id":"0.0-12.0"},{"trial_type":"number-animation","trial_index":13,"time_elapsed":197635,"internal_node_id":"0.0-13.0"},{"phase":0,"sequence":4,"avg":182,"response":181,"trial_type":"training_avg","trial_index":14,"time_elapsed":206306,"internal_node_id":"0.0-14.0"},{"responses":[{"value":6,"offby":6,"category":"$106 - $134","category_index":0},{"value":5,"offby":4,"category":"$135 - $150","category_index":1},{"value":3,"offby":0,"category":"$151 - $165","category_index":2},{"value":3,"offby":-3,"category":"$166 - $180","category_index":3},{"value":2,"offby":-4,"category":"$181 - $195","category_index":4},{"value":1,"offby":-2,"category":"$196 - $210","category_index":5},{"value":0,"offby":-1,"category":"$211 - $225","category_index":6}],"phase":0,"number":0,"trial_type":"bar-choose","trial_index":15,"time_elapsed":327029,"internal_node_id":"0.0-15.0"},{"rt":39476,"url":"\/tickets\/\/utils\/testing.html","trial_type":"html","trial_index":16,"time_elapsed":367636,"internal_node_id":"0.0-16.0"},{"phase":0,"order":[1,49,12,33,3,0,26,6,44,43,2,29,14,27,11,5,31,4,15,13,47,28,8,45,34,7,39,40,35,16,9,42,17,37,32,36,30,19,22,23,21,20,48,46,10,25,24,38,41,18],"trial_type":"store_order","trial_index":17,"time_elapsed":368640,"internal_node_id":"0.0-17.0"},{"result":165,"points":2,"place":1,"phase":0,"sequence":-1,"prices":[184,180,224,165,181,199,185,193,218,126],"times":[3843,695,704,2173],"next_num":4,"trial_type":"ticket-choose","trial_index":18,"time_elapsed":379297,"internal_node_id":"0.0-18.0"},{"rt":20708,"url":"\/tickets\/utils\/testing_after.html","trial_type":"html","trial_index":19,"time_elapsed":401232,"internal_node_id":"0.0-19.0"},{"result":163,"points":2,"place":1,"phase":0,"sequence":0,"prices":[175,187,163,209,180,188,176,165,154,208],"times":[2454,701,1345],"next_num":3,"trial_type":"ticket-choose","trial_index":20,"time_elapsed":410734,"internal_node_id":"0.0-20.0"},{"result":163,"points":1,"place":2,"phase":0,"sequence":1,"prices":[183,163,185,180,166,148,160,186,176,184],"times":[859,932],"next_num":2,"trial_type":"ticket-choose","trial_index":21,"time_elapsed":415294,"internal_node_id":"0.0-21.0"},{"result":167,"points":2,"place":1,"phase":0,"sequence":2,"prices":[174,186,178,217,181,188,167,168,208,156],"times":[676,625,645,679,683,716,1059],"next_num":7,"trial_type":"ticket-choose","trial_index":22,"time_elapsed":424069,"internal_node_id":"0.0-22.0"},{"result":159,"points":3,"place":0,"phase":0,"sequence":3,"prices":[159,183,166,168,173,205,167,187,191,170],"times":[1357],"next_num":1,"trial_type":"ticket-choose","trial_index":23,"time_elapsed":428022,"internal_node_id":"0.0-23.0"},{"result":163,"points":2,"place":1,"phase":0,"sequence":4,"prices":[175,186,163,211,179,187,176,165,153,210],"times":[1009,672,1021],"next_num":3,"trial_type":"ticket-choose","trial_index":24,"time_elapsed":433194,"internal_node_id":"0.0-24.0"},{"result":163,"points":2,"place":1,"phase":0,"sequence":5,"prices":[176,186,163,214,179,187,176,166,153,208],"times":[1329,1091,941],"next_num":3,"trial_type":"ticket-choose","trial_index":25,"time_elapsed":439094,"internal_node_id":"0.0-25.0"},{"result":152,"points":3,"place":0,"phase":0,"sequence":6,"prices":[152,200,158,173,182,207,161,202,204,180],"times":[1116],"next_num":1,"trial_type":"ticket-choose","trial_index":26,"time_elapsed":442229,"internal_node_id":"0.0-26.0"},{"result":176,"points":1,"place":4,"phase":0,"sequence":7,"prices":[174,186,176,217,181,187,163,166,153,209],"times":[619,643,1435],"next_num":3,"trial_type":"ticket-choose","trial_index":27,"time_elapsed":447550,"internal_node_id":"0.0-27.0"},{"result":159,"points":1,"place":2,"phase":0,"sequence":8,"prices":[180,159,149,175,185,141,163,174,178,207],"times":[732,1021],"next_num":2,"trial_type":"ticket-choose","trial_index":28,"time_elapsed":451909,"internal_node_id":"0.0-28.0"},{"result":157,"points":3,"place":0,"phase":0,"sequence":9,"prices":[201,187,157,184,198,179,188,185,178,170],"times":[569,668,983],"next_num":3,"trial_type":"ticket-choose","trial_index":29,"time_elapsed":456790,"internal_node_id":"0.0-29.0"},{"result":163,"points":2,"place":1,"phase":0,"sequence":10,"prices":[174,186,163,212,181,187,176,166,153,209],"times":[666,671,1054],"next_num":3,"trial_type":"ticket-choose","trial_index":30,"time_elapsed":461638,"internal_node_id":"0.0-30.0"},{"result":150,"points":3,"place":0,"phase":0,"sequence":11,"prices":[150,185,154,161,173,199,155,188,191,168],"times":[949],"next_num":1,"trial_type":"ticket-choose","trial_index":31,"time_elapsed":465645,"internal_node_id":"0.0-31.0"},{"result":167,"points":2,"place":1,"phase":0,"sequence":12,"prices":[175,186,178,212,179,187,167,169,209,153],"times":[1556,986,763,803,765,676,982],"next_num":7,"trial_type":"ticket-choose","trial_index":32,"time_elapsed":493317,"internal_node_id":"0.0-32.0"},{"result":168,"points":3,"place":0,"phase":0,"sequence":13,"prices":[168,192,171,178,188,217,172,195,197,186],"times":[1395],"next_num":1,"trial_type":"ticket-choose","trial_index":33,"time_elapsed":497181,"internal_node_id":"0.0-33.0"},{"result":167,"points":2,"place":1,"phase":0,"sequence":14,"prices":[175,187,167,212,179,187,178,169,208,153],"times":[1857,956,1122],"next_num":3,"trial_type":"ticket-choose","trial_index":34,"time_elapsed":504357,"internal_node_id":"0.0-34.0"},{"result":163,"points":2,"place":1,"phase":0,"sequence":15,"prices":[175,187,176,209,180,188,163,165,154,208],"times":[950,915,726,766,686,715,1173],"next_num":7,"trial_type":"ticket-choose","trial_index":35,"time_elapsed":513881,"internal_node_id":"0.0-35.0"},{"result":148,"points":3,"place":0,"phase":0,"sequence":16,"prices":[148,171,150,163,167,220,162,186,187,165],"times":[1204],"next_num":1,"trial_type":"ticket-choose","trial_index":36,"time_elapsed":517376,"internal_node_id":"0.0-36.0"},{"result":163,"points":2,"place":1,"phase":0,"sequence":17,"prices":[176,186,176,210,179,187,163,166,153,208],"times":[11652,632,833,721,770,644,1131],"next_num":7,"trial_type":"ticket-choose","trial_index":37,"time_elapsed":537269,"internal_node_id":"0.0-37.0"},{"result":167,"points":2,"place":1,"phase":0,"sequence":18,"prices":[175,187,178,209,179,187,167,169,208,153],"times":[566,632,713,932,745,692,966],"next_num":7,"trial_type":"ticket-choose","trial_index":38,"time_elapsed":546037,"internal_node_id":"0.0-38.0"},{"result":167,"points":2,"place":1,"phase":0,"sequence":19,"prices":[175,185,178,215,181,186,167,168,208,156],"times":[2295,626,692,741,669,741,1332],"next_num":7,"trial_type":"ticket-choose","trial_index":39,"time_elapsed":556717,"internal_node_id":"0.0-39.0"},{"result":152,"points":3,"place":0,"phase":0,"sequence":20,"prices":[200,181,203,152,175,171,160,154,176,191],"times":[670,707,691,1262],"next_num":4,"trial_type":"ticket-choose","trial_index":40,"time_elapsed":587749,"internal_node_id":"0.0-40.0"},{"result":185,"points":1,"place":4,"phase":0,"sequence":21,"prices":[169,196,170,184,187,211,171,201,202,185],"times":[1827,620,634,690,700,662,677,684,781,899],"next_num":10,"trial_type":"ticket-choose","trial_index":41,"time_elapsed":599966,"internal_node_id":"0.0-41.0"},{"result":167,"points":2,"place":1,"phase":0,"sequence":22,"prices":[174,186,167,211,181,188,178,168,208,156],"times":[857,693,923],"next_num":3,"trial_type":"ticket-choose","trial_index":42,"time_elapsed":604854,"internal_node_id":"0.0-42.0"},{"result":167,"points":2,"place":1,"phase":0,"sequence":23,"prices":[212,192,188,184,167,193,189,164,176,170],"times":[922,891,660,656,878],"next_num":5,"trial_type":"ticket-choose","trial_index":43,"time_elapsed":612333,"internal_node_id":"0.0-43.0"},{"result":148,"points":3,"place":0,"phase":0,"sequence":24,"prices":[181,155,148,161,168,187,172,199,176,194],"times":[1136,1056,1016],"next_num":3,"trial_type":"ticket-choose","trial_index":44,"time_elapsed":618228,"internal_node_id":"0.0-44.0"},{"result":163,"points":2,"place":1,"phase":0,"sequence":25,"prices":[175,186,176,224,179,187,163,165,153,210],"times":[871,685,973,661,997,811,1533],"next_num":7,"trial_type":"ticket-choose","trial_index":45,"time_elapsed":628255,"internal_node_id":"0.0-45.0"},{"result":167,"points":2,"place":1,"phase":0,"sequence":26,"prices":[189,167,180,197,165,168,172,213,178,171],"times":[1065,949],"next_num":2,"trial_type":"ticket-choose","trial_index":46,"time_elapsed":632448,"internal_node_id":"0.0-46.0"},{"result":150,"points":3,"place":0,"phase":0,"sequence":27,"prices":[189,150,175,160,188,207,158,194,178,199],"times":[734,911],"next_num":2,"trial_type":"ticket-choose","trial_index":47,"time_elapsed":636337,"internal_node_id":"0.0-47.0"},{"result":154,"points":2,"place":1,"phase":0,"sequence":28,"prices":[168,154,172,185,195,144,184,211,177,227],"times":[592,1005],"next_num":2,"trial_type":"ticket-choose","trial_index":48,"time_elapsed":640094,"internal_node_id":"0.0-48.0"},{"result":158,"points":2,"place":1,"phase":0,"sequence":29,"prices":[175,186,158,211,180,187,177,166,209,153],"times":[832,781,1105],"next_num":3,"trial_type":"ticket-choose","trial_index":49,"time_elapsed":645434,"internal_node_id":"0.0-49.0"},{"result":167,"points":2,"place":1,"phase":0,"sequence":30,"prices":[175,185,167,224,181,186,178,168,208,156],"times":[954,731,1304],"next_num":3,"trial_type":"ticket-choose","trial_index":50,"time_elapsed":650981,"internal_node_id":"0.0-50.0"},{"result":143,"points":3,"place":0,"phase":0,"sequence":31,"prices":[222,173,202,197,143,205,198,183,178,186],"times":[1009,646,790,746,1036],"next_num":5,"trial_type":"ticket-choose","trial_index":51,"time_elapsed":658365,"internal_node_id":"0.0-51.0"},{"result":158,"points":2,"place":1,"phase":0,"sequence":32,"prices":[175,186,158,209,181,188,177,167,208,154],"times":[677,860,990],"next_num":3,"trial_type":"ticket-choose","trial_index":52,"time_elapsed":663397,"internal_node_id":"0.0-52.0"},{"result":169,"points":1,"place":3,"phase":0,"sequence":33,"prices":[198,193,169,163,202,182,152,164,177,171],"times":[827,724,1157],"next_num":3,"trial_type":"ticket-choose","trial_index":53,"time_elapsed":668774,"internal_node_id":"0.0-53.0"},{"result":188,"points":1,"place":4,"phase":0,"sequence":34,"prices":[161,193,167,187,190,224,174,194,195,188],"times":[774,723,714,629,669,725,676,732,827,710],"next_num":10,"trial_type":"ticket-choose","trial_index":54,"time_elapsed":680237,"internal_node_id":"0.0-54.0"},{"result":165,"points":2,"place":1,"phase":0,"sequence":35,"prices":[188,200,165,172,198,174,177,154,177,180],"times":[838,724,902],"next_num":3,"trial_type":"ticket-choose","trial_index":55,"time_elapsed":685218,"internal_node_id":"0.0-55.0"},{"result":157,"points":3,"place":0,"phase":0,"sequence":36,"prices":[157,191,165,175,182,203,170,195,200,176],"times":[995],"next_num":1,"trial_type":"ticket-choose","trial_index":56,"time_elapsed":688310,"internal_node_id":"0.0-56.0"},{"result":158,"points":2,"place":1,"phase":0,"sequence":37,"prices":[176,185,158,217,180,186,177,166,209,154],"times":[1873,732,935],"next_num":3,"trial_type":"ticket-choose","trial_index":57,"time_elapsed":694894,"internal_node_id":"0.0-57.0"},{"result":177,"points":1,"place":4,"phase":0,"sequence":38,"prices":[176,187,177,225,181,187,158,165,208,153],"times":[1281,962,1253],"next_num":3,"trial_type":"ticket-choose","trial_index":58,"time_elapsed":700806,"internal_node_id":"0.0-58.0"},{"result":158,"points":2,"place":1,"phase":0,"sequence":39,"prices":[176,185,177,218,180,186,158,166,209,154],"times":[1702,835,749,1411,798,637,1013],"next_num":7,"trial_type":"ticket-choose","trial_index":59,"time_elapsed":711293,"internal_node_id":"0.0-59.0"},{"result":158,"points":2,"place":1,"phase":0,"sequence":40,"prices":[175,186,177,209,181,188,158,167,208,154],"times":[1342,684,949,796,700,646,1078],"next_num":7,"trial_type":"ticket-choose","trial_index":60,"time_elapsed":720941,"internal_node_id":"0.0-60.0"},{"result":158,"points":2,"place":1,"phase":0,"sequence":41,"prices":[175,186,177,221,180,187,158,166,209,153],"times":[1410,638,661,716,635,624,950],"next_num":7,"trial_type":"ticket-choose","trial_index":61,"time_elapsed":730053,"internal_node_id":"0.0-61.0"},{"result":169,"points":2,"place":1,"phase":0,"sequence":42,"prices":[181,215,169,147,182,193,177,184,176,179],"times":[891,746,1033],"next_num":3,"trial_type":"ticket-choose","trial_index":62,"time_elapsed":735352,"internal_node_id":"0.0-62.0"},{"result":158,"points":3,"place":0,"phase":0,"sequence":43,"prices":[210,184,226,193,215,158,199,175,176,208],"times":[1276,860,673,622,682,1158],"next_num":6,"trial_type":"ticket-choose","trial_index":63,"time_elapsed":744381,"internal_node_id":"0.0-63.0"},{"result":167,"points":2,"place":1,"phase":0,"sequence":44,"prices":[175,186,167,225,179,187,178,169,209,153],"times":[953,667,852],"next_num":3,"trial_type":"ticket-choose","trial_index":64,"time_elapsed":749361,"internal_node_id":"0.0-64.0"},{"result":156,"points":3,"place":0,"phase":0,"sequence":45,"prices":[156,201,162,166,185,214,165,202,204,179],"times":[2005],"next_num":1,"trial_type":"ticket-choose","trial_index":65,"time_elapsed":753381,"internal_node_id":"0.0-65.0"},{"result":184,"points":1,"place":4,"phase":0,"sequence":46,"prices":[161,193,175,181,185,224,180,199,218,184],"times":[1220,702,687,654,644,670,639,652,1043,663],"next_num":10,"trial_type":"ticket-choose","trial_index":66,"time_elapsed":764999,"internal_node_id":"0.0-66.0"},{"result":168,"points":1,"place":2,"phase":0,"sequence":47,"prices":[168,199,196,198,185,195,227,163,177,166],"times":[857],"next_num":1,"trial_type":"ticket-choose","trial_index":67,"time_elapsed":767989,"internal_node_id":"0.0-67.0"},{"result":155,"points":2,"place":1,"phase":0,"sequence":48,"prices":[201,207,155,158,156,165,167,135,178,177],"times":[1080,669,965],"next_num":3,"trial_type":"ticket-choose","trial_index":68,"time_elapsed":773309,"internal_node_id":"0.0-68.0"},{"result":158,"points":2,"place":1,"phase":0,"sequence":49,"prices":[176,187,158,210,181,187,177,165,208,153],"times":[1984,630,1021],"next_num":3,"trial_type":"ticket-choose","trial_index":69,"time_elapsed":779533,"internal_node_id":"0.0-69.0"},{"responses":[{"value":0,"offby":0,"category":"$106 - $134","category_index":0},{"value":3,"offby":2,"category":"$135 - $150","category_index":1},{"value":6,"offby":3,"category":"$151 - $165","category_index":2},{"value":5,"offby":-1,"category":"$166 - $180","category_index":3},{"value":2,"offby":-4,"category":"$181 - $195","category_index":4},{"value":2,"offby":-1,"category":"$196 - $210","category_index":5},{"value":2,"offby":1,"category":"$211 - $225","category_index":6}],"phase":0,"number":1,"trial_type":"bar-choose","trial_index":70,"time_elapsed":821744,"internal_node_id":"0.0-70.0"},{"rt":15340,"url":"\/tickets\/utils\/start2.html","trial_type":"html","trial_index":71,"time_elapsed":838237,"internal_node_id":"0.0-71.0"},{"trial_type":"number-animation","trial_index":72,"time_elapsed":848679,"internal_node_id":"0.0-72.0"},{"phase":1,"sequence":0,"avg":182,"response":175,"trial_type":"training_avg","trial_index":73,"time_elapsed":856786,"internal_node_id":"0.0-73.0"},{"trial_type":"number-animation","trial_index":74,"time_elapsed":864711,"internal_node_id":"0.0-74.0"},{"phase":1,"sequence":1,"avg":188,"response":192,"trial_type":"training_avg","trial_index":75,"time_elapsed":876810,"internal_node_id":"0.0-75.0"},{"trial_type":"number-animation","trial_index":76,"time_elapsed":884523,"internal_node_id":"0.0-76.0"},{"phase":1,"sequence":2,"avg":176,"response":179,"trial_type":"training_avg","trial_index":77,"time_elapsed":892691,"internal_node_id":"0.0-77.0"},{"trial_type":"number-animation","trial_index":78,"time_elapsed":900232,"internal_node_id":"0.0-78.0"},{"phase":1,"sequence":3,"avg":180,"response":180,"trial_type":"training_avg","trial_index":79,"time_elapsed":909521,"internal_node_id":"0.0-79.0"},{"trial_type":"number-animation","trial_index":80,"time_elapsed":916870,"internal_node_id":"0.0-80.0"},{"phase":1,"sequence":4,"avg":174,"response":176,"trial_type":"training_avg","trial_index":81,"time_elapsed":925954,"internal_node_id":"0.0-81.0"},{"responses":[{"value":1,"offby":0,"category":"$90 - $120","category_index":0},{"value":1,"offby":-2,"category":"$121 - $145","category_index":1},{"value":3,"offby":0,"category":"$146 - $170","category_index":2},{"value":5,"offby":-1,"category":"$171 - $195","category_index":3},{"value":6,"offby":2,"category":"$196 - $220","category_index":4},{"value":3,"offby":1,"category":"$221 - $245","category_index":5},{"value":1,"offby":0,"category":"$246 - $270","category_index":6}],"phase":1,"number":0,"trial_type":"bar-choose","trial_index":82,"time_elapsed":960520,"internal_node_id":"0.0-82.0"},{"rt":23517,"url":"\/tickets\/utils\/testing2.html","trial_type":"html","trial_index":83,"time_elapsed":985181,"internal_node_id":"0.0-83.0"},{"phase":1,"order":[23,14,7,5,11,48,45,25,16,33,19,21,18,41,29,34,31,20,15,2,4,43,46,27,10,49,47,12,35,30,0,13,39,3,44,17,28,8,9,38,42,36,22,6,24,37,40,32,1,26],"trial_type":"store_order","trial_index":84,"time_elapsed":986198,"internal_node_id":"0.0-84.0"},{"result":136,"points":2,"place":1,"phase":1,"sequence":0,"prices":[173,191,174,270,180,193,136,153,239,129],"times":[2911,667,1116,669,749,661,1094],"next_num":7,"trial_type":"ticket-choose","trial_index":85,"time_elapsed":997570,"internal_node_id":"0.0-85.0"},{"result":154,"points":2,"place":1,"phase":1,"sequence":1,"prices":[169,192,176,244,178,194,154,159,237,125],"times":[1358,652,700,660,869,676,893],"next_num":7,"trial_type":"ticket-choose","trial_index":86,"time_elapsed":1006957,"internal_node_id":"0.0-86.0"},{"result":146,"points":2,"place":1,"phase":1,"sequence":2,"prices":[171,191,172,268,179,194,146,150,127,239],"times":[813,662,617,714,796,631,1125],"next_num":7,"trial_type":"ticket-choose","trial_index":87,"time_elapsed":1015531,"internal_node_id":"0.0-87.0"},{"result":146,"points":2,"place":1,"phase":1,"sequence":3,"prices":[171,195,172,242,179,196,146,150,128,235],"times":[1140,635,756,652,659,603,1045],"next_num":7,"trial_type":"ticket-choose","trial_index":88,"time_elapsed":1024344,"internal_node_id":"0.0-88.0"},{"result":154,"points":2,"place":1,"phase":1,"sequence":4,"prices":[169,194,154,271,178,201,176,158,236,127],"times":[652,687,2910],"next_num":3,"trial_type":"ticket-choose","trial_index":89,"time_elapsed":1030925,"internal_node_id":"0.0-89.0"},{"result":159,"points":2,"place":1,"phase":1,"sequence":5,"prices":[182,249,159,114,184,205,175,189,172,178],"times":[1184,731,1049],"next_num":3,"trial_type":"ticket-choose","trial_index":90,"time_elapsed":1036317,"internal_node_id":"0.0-90.0"},{"result":154,"points":2,"place":1,"phase":1,"sequence":6,"prices":[244,203,196,189,154,206,197,149,171,159],"times":[655,692,652,868,1038],"next_num":5,"trial_type":"ticket-choose","trial_index":91,"time_elapsed":1043037,"internal_node_id":"0.0-91.0"},{"result":132,"points":3,"place":0,"phase":1,"sequence":7,"prices":[132,222,144,153,190,248,151,224,228,179],"times":[988],"next_num":1,"trial_type":"ticket-choose","trial_index":92,"time_elapsed":1046030,"internal_node_id":"0.0-92.0"},{"result":136,"points":2,"place":1,"phase":1,"sequence":8,"prices":[171,192,136,265,180,194,174,152,239,127],"times":[743,851,1025],"next_num":3,"trial_type":"ticket-choose","trial_index":93,"time_elapsed":1051279,"internal_node_id":"0.0-93.0"},{"result":137,"points":3,"place":0,"phase":1,"sequence":9,"prices":[137,187,152,156,166,231,155,194,202,160],"times":[905],"next_num":1,"trial_type":"ticket-choose","trial_index":94,"time_elapsed":1054349,"internal_node_id":"0.0-94.0"},{"result":136,"points":2,"place":1,"phase":1,"sequence":10,"prices":[172,190,136,270,179,192,174,152,237,129],"times":[1033,715,945],"next_num":3,"trial_type":"ticket-choose","trial_index":95,"time_elapsed":1059700,"internal_node_id":"0.0-95.0"},{"result":136,"points":2,"place":1,"phase":1,"sequence":11,"prices":[170,192,174,242,181,196,136,153,236,128],"times":[857,763,1507,718,669,758,942],"next_num":7,"trial_type":"ticket-choose","trial_index":96,"time_elapsed":1069452,"internal_node_id":"0.0-96.0"},{"result":136,"points":2,"place":1,"phase":1,"sequence":12,"prices":[173,194,136,239,182,200,174,150,236,127],"times":[2847,620,932],"next_num":3,"trial_type":"ticket-choose","trial_index":97,"time_elapsed":1076175,"internal_node_id":"0.0-97.0"},{"result":131,"points":2,"place":1,"phase":1,"sequence":13,"prices":[221,234,131,136,132,149,154,90,176,173],"times":[637,1092,1077],"next_num":3,"trial_type":"ticket-choose","trial_index":98,"time_elapsed":1081604,"internal_node_id":"0.0-98.0"},{"result":121,"points":3,"place":0,"phase":1,"sequence":14,"prices":[121,191,128,141,166,217,129,196,202,157],"times":[1093],"next_num":1,"trial_type":"ticket-choose","trial_index":99,"time_elapsed":1084622,"internal_node_id":"0.0-99.0"},{"result":130,"points":2,"place":1,"phase":1,"sequence":15,"prices":[181,130,116,142,157,193,165,218,173,207],"times":[919,1123],"next_num":2,"trial_type":"ticket-choose","trial_index":100,"time_elapsed":1088909,"internal_node_id":"0.0-100.0"},{"result":117,"points":3,"place":0,"phase":1,"sequence":16,"prices":[117,161,120,147,153,259,144,191,195,149],"times":[1487],"next_num":1,"trial_type":"ticket-choose","trial_index":101,"time_elapsed":1092437,"internal_node_id":"0.0-101.0"},{"result":136,"points":2,"place":1,"phase":1,"sequence":17,"prices":[169,192,174,246,180,195,136,152,238,126],"times":[934,759,656,701,749,717,989],"next_num":7,"trial_type":"ticket-choose","trial_index":102,"time_elapsed":1101437,"internal_node_id":"0.0-102.0"},{"result":154,"points":2,"place":1,"phase":1,"sequence":18,"prices":[170,193,176,245,178,194,154,159,236,126],"times":[988,710,767,708,880,950,988],"next_num":7,"trial_type":"ticket-choose","trial_index":103,"time_elapsed":1111861,"internal_node_id":"0.0-103.0"},{"result":146,"points":2,"place":1,"phase":1,"sequence":19,"prices":[168,191,146,252,183,193,172,153,126,238],"times":[2135,755,931],"next_num":3,"trial_type":"ticket-choose","trial_index":104,"time_elapsed":1118093,"internal_node_id":"0.0-104.0"},{"result":146,"points":2,"place":1,"phase":1,"sequence":20,"prices":[172,191,176,272,179,194,146,152,126,235],"times":[1219,719,852,725,637,742,899],"next_num":7,"trial_type":"ticket-choose","trial_index":105,"time_elapsed":1127197,"internal_node_id":"0.0-105.0"},{"result":135,"points":3,"place":0,"phase":1,"sequence":21,"prices":[221,193,135,188,217,179,196,190,175,159],"times":[2547,827,1077],"next_num":3,"trial_type":"ticket-choose","trial_index":106,"time_elapsed":1134181,"internal_node_id":"0.0-106.0"},{"result":136,"points":3,"place":0,"phase":1,"sequence":22,"prices":[240,188,273,207,250,136,217,170,171,236],"times":[2850,835,693,712,1131,1021],"next_num":6,"trial_type":"ticket-choose","trial_index":107,"time_elapsed":1144525,"internal_node_id":"0.0-107.0"},{"result":157,"points":3,"place":0,"phase":1,"sequence":23,"prices":[157,205,161,175,197,254,165,210,214,192],"times":[1138],"next_num":1,"trial_type":"ticket-choose","trial_index":108,"time_elapsed":1147757,"internal_node_id":"0.0-108.0"},{"result":154,"points":2,"place":1,"phase":1,"sequence":24,"prices":[169,193,154,255,178,194,176,158,239,126],"times":[807,833,971],"next_num":3,"trial_type":"ticket-choose","trial_index":109,"time_elapsed":1152914,"internal_node_id":"0.0-109.0"},{"result":146,"points":1,"place":2,"phase":1,"sequence":25,"prices":[186,146,191,179,152,116,140,201,172,187],"times":[733,1022],"next_num":2,"trial_type":"ticket-choose","trial_index":110,"time_elapsed":1157173,"internal_node_id":"0.0-110.0"},{"result":124,"points":3,"place":0,"phase":1,"sequence":26,"prices":[219,183,227,124,176,161,140,129,171,201],"times":[902,3180,660,911],"next_num":4,"trial_type":"ticket-choose","trial_index":111,"time_elapsed":1165509,"internal_node_id":"0.0-111.0"},{"result":154,"points":2,"place":1,"phase":1,"sequence":27,"prices":[168,192,176,242,183,197,154,156,237,132],"times":[2065,652,693,933,684,677,955],"next_num":7,"trial_type":"ticket-choose","trial_index":112,"time_elapsed":1175325,"internal_node_id":"0.0-112.0"},{"result":155,"points":1,"place":2,"phase":1,"sequence":28,"prices":[155,129,164,189,210,108,187,241,174,275],"times":[1181],"next_num":1,"trial_type":"ticket-choose","trial_index":113,"time_elapsed":1178397,"internal_node_id":"0.0-113.0"},{"result":135,"points":3,"place":0,"phase":1,"sequence":29,"prices":[135,202,150,169,183,225,160,211,220,172],"times":[1064],"next_num":1,"trial_type":"ticket-choose","trial_index":114,"time_elapsed":1181671,"internal_node_id":"0.0-114.0"},{"result":146,"points":2,"place":1,"phase":1,"sequence":30,"prices":[173,191,146,242,178,194,172,152,126,235],"times":[772,882,993],"next_num":3,"trial_type":"ticket-choose","trial_index":115,"time_elapsed":1186846,"internal_node_id":"0.0-115.0"},{"result":154,"points":2,"place":1,"phase":1,"sequence":31,"prices":[170,190,176,251,183,192,154,157,236,131],"times":[800,682,781,845,677,861,1733],"next_num":7,"trial_type":"ticket-choose","trial_index":116,"time_elapsed":1196664,"internal_node_id":"0.0-116.0"},{"result":153,"points":2,"place":1,"phase":1,"sequence":32,"prices":[197,153,181,215,150,155,164,247,177,162],"times":[1053,900],"next_num":2,"trial_type":"ticket-choose","trial_index":117,"time_elapsed":1200766,"internal_node_id":"0.0-117.0"},{"result":146,"points":2,"place":1,"phase":1,"sequence":33,"prices":[170,193,146,268,178,195,172,149,126,241],"times":[6777,604,1075],"next_num":3,"trial_type":"ticket-choose","trial_index":118,"time_elapsed":1211613,"internal_node_id":"0.0-118.0"},{"result":138,"points":1,"place":2,"phase":1,"sequence":34,"prices":[181,138,118,170,190,101,146,169,175,233],"times":[787,830],"next_num":2,"trial_type":"ticket-choose","trial_index":119,"time_elapsed":1215408,"internal_node_id":"0.0-119.0"},{"result":136,"points":2,"place":1,"phase":1,"sequence":35,"prices":[171,192,136,243,182,195,174,154,236,128],"times":[839,632,902],"next_num":3,"trial_type":"ticket-choose","trial_index":120,"time_elapsed":1220357,"internal_node_id":"0.0-120.0"},{"result":157,"points":3,"place":0,"phase":1,"sequence":36,"prices":[157,213,159,187,194,242,161,222,225,189],"times":[1005],"next_num":1,"trial_type":"ticket-choose","trial_index":121,"time_elapsed":1223605,"internal_node_id":"0.0-121.0"},{"result":154,"points":2,"place":1,"phase":1,"sequence":37,"prices":[168,192,154,237,182,196,176,156,235,133],"times":[811,693,845],"next_num":3,"trial_type":"ticket-choose","trial_index":122,"time_elapsed":1228437,"internal_node_id":"0.0-122.0"},{"result":154,"points":2,"place":1,"phase":1,"sequence":38,"prices":[169,191,154,268,183,197,176,155,236,133],"times":[884,673,981],"next_num":3,"trial_type":"ticket-choose","trial_index":123,"time_elapsed":1233669,"internal_node_id":"0.0-123.0"},{"result":156,"points":1,"place":2,"phase":1,"sequence":39,"prices":[156,218,212,216,191,210,275,146,174,152],"times":[925],"next_num":1,"trial_type":"ticket-choose","trial_index":124,"time_elapsed":1236750,"internal_node_id":"0.0-124.0"},{"result":105,"points":3,"place":0,"phase":1,"sequence":40,"prices":[263,165,224,214,105,230,215,185,177,193],"times":[727,652,832,682,1298],"next_num":5,"trial_type":"ticket-choose","trial_index":125,"time_elapsed":1244030,"internal_node_id":"0.0-125.0"},{"result":149,"points":2,"place":1,"phase":1,"sequence":41,"prices":[196,221,149,164,216,167,175,128,176,181],"times":[973,726,973],"next_num":3,"trial_type":"ticket-choose","trial_index":126,"time_elapsed":1249165,"internal_node_id":"0.0-126.0"},{"result":136,"points":2,"place":1,"phase":1,"sequence":42,"prices":[172,194,174,243,182,193,136,150,237,126],"times":[2696,820,613,621,619,728,996],"next_num":7,"trial_type":"ticket-choose","trial_index":127,"time_elapsed":1259717,"internal_node_id":"0.0-127.0"},{"result":146,"points":2,"place":1,"phase":1,"sequence":43,"prices":[168,191,172,240,183,193,146,151,125,238],"times":[1007,870,775,1253,693,654,973],"next_num":7,"trial_type":"ticket-choose","trial_index":128,"time_elapsed":1269322,"internal_node_id":"0.0-128.0"},{"result":142,"points":3,"place":0,"phase":1,"sequence":44,"prices":[142,207,171,182,190,269,180,218,256,188],"times":[979],"next_num":1,"trial_type":"ticket-choose","trial_index":129,"time_elapsed":1272261,"internal_node_id":"0.0-129.0"},{"result":158,"points":1,"place":3,"phase":1,"sequence":45,"prices":[216,206,158,145,224,185,124,149,175,162],"times":[850,787,1101],"next_num":3,"trial_type":"ticket-choose","trial_index":130,"time_elapsed":1277518,"internal_node_id":"0.0-130.0"},{"result":119,"points":3,"place":0,"phase":1,"sequence":46,"prices":[198,119,169,141,195,233,136,208,177,217],"times":[1116,2146],"next_num":2,"trial_type":"ticket-choose","trial_index":131,"time_elapsed":1283078,"internal_node_id":"0.0-131.0"},{"result":143,"points":3,"place":0,"phase":1,"sequence":47,"prices":[143,206,153,194,201,267,168,208,210,196],"times":[1097],"next_num":1,"trial_type":"ticket-choose","trial_index":132,"time_elapsed":1286341,"internal_node_id":"0.0-132.0"},{"result":146,"points":2,"place":1,"phase":1,"sequence":48,"prices":[169,193,146,237,180,196,172,150,129,236],"times":[1279,659,921],"next_num":3,"trial_type":"ticket-choose","trial_index":133,"time_elapsed":1291597,"internal_node_id":"0.0-133.0"},{"result":124,"points":3,"place":0,"phase":1,"sequence":49,"prices":[124,220,136,165,185,234,143,225,228,179],"times":[1282],"next_num":1,"trial_type":"ticket-choose","trial_index":134,"time_elapsed":1294917,"internal_node_id":"0.0-134.0"},{"responses":[{"value":1,"offby":0,"category":"$90 - $120","category_index":0},{"value":3,"offby":0,"category":"$121 - $145","category_index":1},{"value":8,"offby":5,"category":"$146 - $170","category_index":2},{"value":4,"offby":-2,"category":"$171 - $195","category_index":3},{"value":2,"offby":-2,"category":"$196 - $220","category_index":4},{"value":2,"offby":0,"category":"$221 - $245","category_index":5},{"value":0,"offby":-1,"category":"$246 - $270","category_index":6}],"phase":1,"number":1,"trial_type":"bar-choose","trial_index":135,"time_elapsed":1329704,"internal_node_id":"0.0-135.0"},{"special_comment":"No","trial_type":"special_sequence","trial_index":136,"time_elapsed":1338710,"internal_node_id":"0.0-136.0"},{"during":"Nothing","bonus":284,"trial_type":"final","trial_index":137,"time_elapsed":1368378,"internal_node_id":"0.0-137.0"}],"bonus":284}