{"start_time":"2019-04-23 11:23:02","end_time":"2019-04-23 11:32:56","points_phase0":86,"points_phase1":93,"age":45,"gender":"m","tries":1,"during":"Nothing","worker_id":"adsghf","assignment_id":"479992","data":[{"rt":5919,"url":"\/christiane\/tickets5\/utils\/consent.html","trial_type":"html","trial_index":0,"time_elapsed":6026,"internal_node_id":"0.0-0.0"},{"age":45,"gender":"m","trial_type":"age","trial_index":1,"time_elapsed":8435,"internal_node_id":"0.0-1.0"},{"worker_id":"adsghf","trial_type":"workerid","trial_index":2,"time_elapsed":10671,"internal_node_id":"0.0-2.0"},{"tries":1,"trial_type":"instructions_check","trial_index":3,"time_elapsed":47594,"internal_node_id":"0.0-3.0"},{"rt":22625,"url":"\/christiane\/tickets5\/utils\/start.html","trial_type":"html","trial_index":4,"time_elapsed":71239,"internal_node_id":"0.0-4.0"},{"trial_type":"number-animation","trial_index":5,"time_elapsed":170498,"internal_node_id":"0.0-5.0"},{"phase":0,"repeat_num":0,"sequence":0,"avg":178,"response":120,"trial_type":"training_avg","trial_index":6,"time_elapsed":173136,"internal_node_id":"0.0-6.0"},{"trial_type":"number-animation","trial_index":7,"time_elapsed":179210,"internal_node_id":"0.0-7.0"},{"phase":0,"repeat_num":0,"sequence":1,"avg":169,"response":120,"trial_type":"training_avg","trial_index":8,"time_elapsed":181144,"internal_node_id":"0.0-8.0"},{"trial_type":"number-animation","trial_index":9,"time_elapsed":188218,"internal_node_id":"0.0-9.0"},{"phase":0,"repeat_num":0,"sequence":2,"avg":167,"response":120,"trial_type":"training_avg","trial_index":10,"time_elapsed":190749,"internal_node_id":"0.0-10.0"},{"trial_type":"number-animation","trial_index":11,"time_elapsed":196962,"internal_node_id":"0.0-11.0"},{"phase":0,"repeat_num":0,"sequence":3,"avg":215,"response":120,"trial_type":"training_avg","trial_index":12,"time_elapsed":199588,"internal_node_id":"0.0-12.0"},{"trial_type":"number-animation","trial_index":13,"time_elapsed":206105,"internal_node_id":"0.0-13.0"},{"phase":0,"repeat_num":0,"sequence":4,"avg":195,"response":120,"trial_type":"training_avg","trial_index":14,"time_elapsed":208779,"internal_node_id":"0.0-14.0"},{"rt":2096,"url":"\/christiane\/tickets5\/utils\/testing.html","trial_type":"html","trial_index":15,"time_elapsed":211895,"internal_node_id":"0.0-15.0"},{"result":184,"points":8,"place":4,"phase":0,"sequence":-1,"prices":[184,180,224,165,181,199,185,193,218,126],"times":[2756],"next_num":1,"group":0,"trial_type":"ticket-choose","trial_index":16,"time_elapsed":216641,"internal_node_id":"0.0-16.0"},{"rt":68736,"url":"\/christiane\/tickets5\/utils\/testing_after.html","trial_type":"html","trial_index":17,"time_elapsed":286415,"internal_node_id":"0.0-17.0"},{"result":285,"points":1,"place":7,"phase":0,"sequence":0,"prices":[45,285,48,292,264,175,137,147,169,291],"times":[3320,1690],"next_num":2,"group":0,"trial_type":"ticket-choose","trial_index":18,"time_elapsed":293572,"internal_node_id":"0.0-18.0"},{"result":50,"points":20,"place":0,"phase":0,"sequence":1,"prices":[50,193,163,164,226,212,177,95,154,125],"times":[12857],"next_num":1,"group":0,"trial_type":"ticket-choose","trial_index":19,"time_elapsed":308456,"internal_node_id":"0.0-19.0"},{"result":196,"points":13,"place":3,"phase":0,"sequence":2,"prices":[196,121,165,223,215,328,223,135,266,239],"times":[878],"next_num":1,"group":0,"trial_type":"ticket-choose","trial_index":20,"time_elapsed":311093,"internal_node_id":"0.0-20.0"},{"result":265,"points":2,"place":6,"phase":0,"sequence":3,"prices":[265,294,46,169,173,99,136,260,266,266],"times":[790],"next_num":1,"group":0,"trial_type":"ticket-choose","trial_index":21,"time_elapsed":313786,"internal_node_id":"0.0-21.0"},{"result":220,"points":6,"place":8,"phase":0,"sequence":4,"prices":[220,163,209,217,198,271,170,189,97,206],"times":[1084],"next_num":1,"group":0,"trial_type":"ticket-choose","trial_index":22,"time_elapsed":316672,"internal_node_id":"0.0-22.0"},{"result":183,"points":17,"place":1,"phase":0,"sequence":5,"prices":[183,157,203,192,284,360,222,258,245,226],"times":[3530],"next_num":1,"group":0,"trial_type":"ticket-choose","trial_index":23,"time_elapsed":322314,"internal_node_id":"0.0-23.0"},{"result":189,"points":12,"place":4,"phase":0,"sequence":6,"prices":[189,290,207,173,129,190,79,360,205,134],"times":[754],"next_num":1,"group":0,"trial_type":"ticket-choose","trial_index":24,"time_elapsed":325012,"internal_node_id":"0.0-24.0"},{"result":180,"points":8,"place":5,"phase":0,"sequence":7,"prices":[180,162,204,160,215,242,121,79,232,111],"times":[678],"next_num":1,"group":0,"trial_type":"ticket-choose","trial_index":25,"time_elapsed":327618,"internal_node_id":"0.0-25.0"},{"result":219,"points":3,"place":6,"phase":0,"sequence":8,"prices":[219,186,230,65,190,189,134,244,106,250],"times":[857],"next_num":1,"group":0,"trial_type":"ticket-choose","trial_index":26,"time_elapsed":330303,"internal_node_id":"0.0-26.0"},{"result":248,"points":4,"place":8,"phase":0,"sequence":9,"prices":[248,84,301,76,22,168,190,215,148,217],"times":[836],"next_num":1,"group":0,"trial_type":"ticket-choose","trial_index":27,"time_elapsed":332928,"internal_node_id":"0.0-27.0"},{"trial_type":"points-update","trial_index":28,"time_elapsed":338075,"internal_node_id":"0.0-28.0"},{"rt":27267,"url":"\/christiane\/tickets5\/utils\/start2.html","trial_type":"html","trial_index":29,"time_elapsed":366361,"internal_node_id":"0.0-29.0"},{"trial_type":"number-animation","trial_index":30,"time_elapsed":375887,"internal_node_id":"0.0-30.0"},{"phase":1,"repeat_num":0,"sequence":0,"avg":167,"response":120,"trial_type":"training_avg","trial_index":31,"time_elapsed":378196,"internal_node_id":"0.0-31.0"},{"trial_type":"number-animation","trial_index":32,"time_elapsed":384098,"internal_node_id":"0.0-32.0"},{"phase":1,"repeat_num":0,"sequence":1,"avg":195,"response":120,"trial_type":"training_avg","trial_index":33,"time_elapsed":386574,"internal_node_id":"0.0-33.0"},{"trial_type":"number-animation","trial_index":34,"time_elapsed":393123,"internal_node_id":"0.0-34.0"},{"phase":1,"repeat_num":0,"sequence":2,"avg":179,"response":120,"trial_type":"training_avg","trial_index":35,"time_elapsed":395777,"internal_node_id":"0.0-35.0"},{"trial_type":"number-animation","trial_index":36,"time_elapsed":470981,"internal_node_id":"0.0-36.0"},{"phase":1,"repeat_num":0,"sequence":3,"avg":179,"response":120,"trial_type":"training_avg","trial_index":37,"time_elapsed":473591,"internal_node_id":"0.0-37.0"},{"trial_type":"number-animation","trial_index":38,"time_elapsed":479221,"internal_node_id":"0.0-38.0"},{"phase":1,"repeat_num":0,"sequence":4,"avg":185,"response":120,"trial_type":"training_avg","trial_index":39,"time_elapsed":481515,"internal_node_id":"0.0-39.0"},{"rt":1022,"url":"\/christiane\/tickets5\/utils\/testing2.html","trial_type":"html","trial_index":40,"time_elapsed":483565,"internal_node_id":"0.0-40.0"},{"result":185,"points":13,"place":5,"phase":1,"sequence":0,"prices":[185,185,168,178,167,220,203,191,184,184],"times":[282,991],"next_num":2,"group":0,"trial_type":"ticket-choose","trial_index":41,"time_elapsed":486812,"internal_node_id":"0.0-41.0"},{"result":168,"points":8,"place":4,"phase":1,"sequence":1,"prices":[168,147,153,175,177,171,143,159,183,168],"times":[720],"next_num":1,"group":0,"trial_type":"ticket-choose","trial_index":42,"time_elapsed":489235,"internal_node_id":"0.0-42.0"},{"result":176,"points":12,"place":2,"phase":1,"sequence":2,"prices":[176,204,188,149,214,159,189,209,180,185],"times":[584],"next_num":1,"group":0,"trial_type":"ticket-choose","trial_index":43,"time_elapsed":491637,"internal_node_id":"0.0-43.0"},{"result":183,"points":3,"place":8,"phase":1,"sequence":3,"prices":[183,176,149,158,157,169,126,173,167,195],"times":[692],"next_num":1,"group":0,"trial_type":"ticket-choose","trial_index":44,"time_elapsed":494086,"internal_node_id":"0.0-44.0"},{"result":189,"points":5,"place":6,"phase":1,"sequence":4,"prices":[189,165,179,191,188,154,171,179,199,202],"times":[484],"next_num":1,"group":0,"trial_type":"ticket-choose","trial_index":45,"time_elapsed":496420,"internal_node_id":"0.0-45.0"},{"result":173,"points":20,"place":0,"phase":1,"sequence":5,"prices":[173,196,178,197,188,209,203,174,182,183],"times":[486],"next_num":1,"group":0,"trial_type":"ticket-choose","trial_index":46,"time_elapsed":498734,"internal_node_id":"0.0-46.0"},{"result":178,"points":13,"place":3,"phase":1,"sequence":6,"prices":[178,178,192,182,181,171,188,196,177,168],"times":[524],"next_num":1,"group":0,"trial_type":"ticket-choose","trial_index":47,"time_elapsed":500982,"internal_node_id":"0.0-47.0"},{"result":200,"points":0,"place":9,"phase":1,"sequence":7,"prices":[200,176,177,184,181,193,166,185,170,195],"times":[407],"next_num":1,"group":0,"trial_type":"ticket-choose","trial_index":48,"time_elapsed":503180,"internal_node_id":"0.0-48.0"},{"result":189,"points":12,"place":6,"phase":1,"sequence":8,"prices":[189,187,188,176,187,207,179,175,208,198],"times":[378],"next_num":1,"group":0,"trial_type":"ticket-choose","trial_index":49,"time_elapsed":505389,"internal_node_id":"0.0-49.0"},{"result":192,"points":7,"place":5,"phase":1,"sequence":9,"prices":[192,215,217,172,168,184,173,210,150,192],"times":[423],"next_num":1,"group":0,"trial_type":"ticket-choose","trial_index":50,"time_elapsed":507598,"internal_node_id":"0.0-50.0"},{"trial_type":"points-update","trial_index":51,"time_elapsed":514228,"internal_node_id":"0.0-51.0"},{"rt":19673,"responses":"{\"Q0\":\"Strongly Disagree\",\"Q1\":\"Strongly Disagree\",\"Q2\":\"Strongly Disagree\",\"Q3\":\"Strongly Disagree\",\"Q4\":\"Moderately Disagree\",\"Q5\":\"Moderately Disagree\",\"Q6\":\"Slightly Disagree\",\"Q7\":\"Slightly Disagree\",\"Q8\":\"Slightly Disagree\",\"Q9\":\"Slightly Agree\",\"Q10\":\"Moderately Agree\",\"Q11\":\"Moderately Agree\",\"Q12\":\"Moderately Agree\",\"Q13\":\"Slightly Agree\",\"Q14\":\"Slightly Disagree\"}","trial_type":"survey-multi-choice","trial_index":52,"time_elapsed":534973,"internal_node_id":"0.0-52.0"},{"rt":7274,"responses":"{\"Q0\":\"Moderately Unlikely\",\"Q1\":\"Moderately Unlikely\",\"Q2\":\"Somewhat Unlikely\",\"Q3\":\"Not Sure\",\"Q4\":\"Moderately Likely\",\"Q5\":\"Moderately Unlikely\"}","trial_type":"survey-multi-choice","trial_index":53,"time_elapsed":543293,"internal_node_id":"0.0-53.0"},{"choices":[180,140,220],"trial_type":"simplerisk","trial_index":54,"time_elapsed":555146,"internal_node_id":"0.0-54.0"},{"trial_type":"riskchoose","trial_index":55,"time_elapsed":565004,"internal_node_id":"0.0-55.0"},{"during":"Nothing","bonus":36,"trial_type":"final","trial_index":56,"time_elapsed":592008,"internal_node_id":"0.0-56.0"}],"training_sort":0,"bonus":18}