{"start_time":"2018-06-30 11:46:23","end_time":"2018-06-30 11:49:15","points_phase0":0,"points_phase1":0,"age":78,"gender":"m","tries":1,"during":"Nothing","worker_id":"asdfghjkl","assignment_id":"117115","data":[{"rt":22224,"url":"\/tickets2\/utils\/consent.html","trial_type":"html","trial_index":0,"time_elapsed":22261,"internal_node_id":"0.0-0.0"},{"age":78,"gender":"m","trial_type":"age","trial_index":1,"time_elapsed":24689,"internal_node_id":"0.0-1.0"},{"worker_id":"asdfghjkl","trial_type":"workerid","trial_index":2,"time_elapsed":27179,"internal_node_id":"0.0-2.0"},{"tries":1,"trial_type":"instructions_check","trial_index":3,"time_elapsed":29940,"internal_node_id":"0.0-3.0"},{"rt":1144,"url":"\/tickets2\/utils\/start.html","trial_type":"html","trial_index":4,"time_elapsed":32097,"internal_node_id":"0.0-4.0"},{"trial_type":"number-animation","trial_index":5,"time_elapsed":38135,"internal_node_id":"0.0-5.0"},{"phase":0,"repeat_num":0,"sequence":0,"avg":168,"response":120,"trial_type":"training_avg","trial_index":6,"time_elapsed":40869,"internal_node_id":"0.0-6.0"},{"trial_type":"number-animation","trial_index":7,"time_elapsed":46748,"internal_node_id":"0.0-7.0"},{"phase":0,"repeat_num":0,"sequence":1,"avg":173,"response":120,"trial_type":"training_avg","trial_index":8,"time_elapsed":49337,"internal_node_id":"0.0-8.0"},{"trial_type":"number-animation","trial_index":9,"time_elapsed":55093,"internal_node_id":"0.0-9.0"},{"phase":0,"repeat_num":0,"sequence":2,"avg":179,"response":120,"trial_type":"training_avg","trial_index":10,"time_elapsed":57306,"internal_node_id":"0.0-10.0"},{"trial_type":"number-animation","trial_index":11,"time_elapsed":63231,"internal_node_id":"0.0-11.0"},{"phase":0,"repeat_num":0,"sequence":3,"avg":185,"response":120,"trial_type":"training_avg","trial_index":12,"time_elapsed":65222,"internal_node_id":"0.0-12.0"},{"trial_type":"number-animation","trial_index":13,"time_elapsed":70715,"internal_node_id":"0.0-13.0"},{"phase":0,"repeat_num":0,"sequence":4,"avg":175,"response":120,"trial_type":"training_avg","trial_index":14,"time_elapsed":72739,"internal_node_id":"0.0-14.0"},{"passed":false,"responses":[{"value":0,"offby":-1,"category":"$120 - $137","category_index":0},{"value":0,"offby":-119,"category":"$138 - $154","category_index":1},{"value":0,"offby":-407,"category":"$155 - $171","category_index":2},{"value":0,"offby":-274,"category":"$172 - $188","category_index":3},{"value":0,"offby":-135,"category":"$189 - $205","category_index":4},{"value":0,"offby":-49,"category":"$206 - $222","category_index":5},{"value":0,"offby":-13,"category":"$223 - $240","category_index":6}],"phase":0,"number":0,"repeat_num":0,"max_val":998,"trial_type":"bar-choose","trial_index":15,"time_elapsed":78086,"internal_node_id":"0.0-15.0"},{"trial_type":"number-animation","trial_index":16,"time_elapsed":84874,"internal_node_id":"0.0-16.0"},{"phase":0,"repeat_num":1,"sequence":0,"avg":177,"response":120,"trial_type":"training_avg","trial_index":17,"time_elapsed":87409,"internal_node_id":"0.0-17.0"},{"trial_type":"number-animation","trial_index":18,"time_elapsed":92928,"internal_node_id":"0.0-18.0"},{"phase":0,"repeat_num":1,"sequence":1,"avg":173,"response":120,"trial_type":"training_avg","trial_index":19,"time_elapsed":95296,"internal_node_id":"0.0-19.0"},{"trial_type":"number-animation","trial_index":20,"time_elapsed":100803,"internal_node_id":"0.0-20.0"},{"phase":0,"repeat_num":1,"sequence":2,"avg":169,"response":120,"trial_type":"training_avg","trial_index":21,"time_elapsed":103344,"internal_node_id":"0.0-21.0"},{"trial_type":"number-animation","trial_index":22,"time_elapsed":109056,"internal_node_id":"0.0-22.0"},{"phase":0,"repeat_num":1,"sequence":3,"avg":178,"response":120,"trial_type":"training_avg","trial_index":23,"time_elapsed":111361,"internal_node_id":"0.0-23.0"},{"trial_type":"number-animation","trial_index":24,"time_elapsed":117086,"internal_node_id":"0.0-24.0"},{"phase":0,"repeat_num":1,"sequence":4,"avg":172,"response":120,"trial_type":"training_avg","trial_index":25,"time_elapsed":119746,"internal_node_id":"0.0-25.0"},{"passed":true,"responses":[{"value":34,"offby":33,"category":"$120 - $137","category_index":0},{"value":136,"offby":17,"category":"$138 - $154","category_index":1},{"value":394,"offby":-13,"category":"$155 - $171","category_index":2},{"value":271,"offby":-3,"category":"$172 - $188","category_index":3},{"value":103,"offby":-32,"category":"$189 - $205","category_index":4},{"value":60,"offby":11,"category":"$206 - $222","category_index":5},{"value":0,"offby":-13,"category":"$223 - $240","category_index":6}],"phase":0,"number":0,"repeat_num":1,"max_val":998,"trial_type":"bar-choose","trial_index":26,"time_elapsed":140484,"internal_node_id":"0.0-26.0"},{"repeat_num":2,"result":"passed","trial_type":"number-animation","trial_index":27,"time_elapsed":141486,"internal_node_id":"0.0-27.0"},{"repeat_num":2,"result":"passed","trial_type":"training_avg","trial_index":28,"time_elapsed":142486,"internal_node_id":"0.0-28.0"},{"repeat_num":2,"result":"passed","trial_type":"number-animation","trial_index":29,"time_elapsed":143488,"internal_node_id":"0.0-29.0"},{"repeat_num":2,"result":"passed","trial_type":"training_avg","trial_index":30,"time_elapsed":144489,"internal_node_id":"0.0-30.0"},{"repeat_num":2,"result":"passed","trial_type":"number-animation","trial_index":31,"time_elapsed":145492,"internal_node_id":"0.0-31.0"},{"repeat_num":2,"result":"passed","trial_type":"training_avg","trial_index":32,"time_elapsed":146494,"internal_node_id":"0.0-32.0"},{"repeat_num":2,"result":"passed","trial_type":"number-animation","trial_index":33,"time_elapsed":147495,"internal_node_id":"0.0-33.0"},{"repeat_num":2,"result":"passed","trial_type":"training_avg","trial_index":34,"time_elapsed":148496,"internal_node_id":"0.0-34.0"},{"repeat_num":2,"result":"passed","trial_type":"number-animation","trial_index":35,"time_elapsed":149497,"internal_node_id":"0.0-35.0"},{"repeat_num":2,"result":"passed","trial_type":"training_avg","trial_index":36,"time_elapsed":150499,"internal_node_id":"0.0-36.0"},{"repeat_num":2,"result":"passed","trial_type":"bar-choose","trial_index":37,"time_elapsed":151500,"internal_node_id":"0.0-37.0"},{"rt":3154,"url":"\/tickets2\/utils\/testing.html","trial_type":"html","trial_index":38,"time_elapsed":155675,"internal_node_id":"0.0-38.0"},{"special_comment":"sda","trial_type":"special_sequence","trial_index":39,"time_elapsed":158315,"internal_node_id":"0.0-39.0"},{"during":"Nothing","bonus":0,"trial_type":"final","trial_index":40,"time_elapsed":169857,"internal_node_id":"0.0-40.0"}],"training_sort":998,"bonus":0}