{"start_time":"2018-04-13 10:35:43","end_time":"2018-04-13 10:39:02","points_phase0":62,"points_phase1":0,"age":23,"gender":"m","tries":1,"during":"Nothing","worker_id":"asdfgf","assignment_id":"182801","data":[{"rt":2974,"url":"\/tickets2\/utils\/consent.html","trial_type":"html","trial_index":0,"time_elapsed":3021,"internal_node_id":"0.0-0.0"},{"age":23,"gender":"m","trial_type":"age","trial_index":1,"time_elapsed":5304,"internal_node_id":"0.0-1.0"},{"worker_id":"asdfgf","trial_type":"workerid","trial_index":2,"time_elapsed":7785,"internal_node_id":"0.0-2.0"},{"tries":1,"trial_type":"instructions_check","trial_index":3,"time_elapsed":10715,"internal_node_id":"0.0-3.0"},{"rt":823,"url":"\/tickets2\/utils\/start.html","trial_type":"html","trial_index":4,"time_elapsed":12549,"internal_node_id":"0.0-4.0"},{"trial_type":"number-animation","trial_index":5,"time_elapsed":18786,"internal_node_id":"0.0-5.0"},{"phase":0,"sequence":0,"avg":186,"response":120,"trial_type":"training_avg","trial_index":6,"time_elapsed":21666,"internal_node_id":"0.0-6.0"},{"trial_type":"number-animation","trial_index":7,"time_elapsed":26957,"internal_node_id":"0.0-7.0"},{"phase":0,"sequence":1,"avg":174,"response":120,"trial_type":"training_avg","trial_index":8,"time_elapsed":29112,"internal_node_id":"0.0-8.0"},{"trial_type":"number-animation","trial_index":9,"time_elapsed":34709,"internal_node_id":"0.0-9.0"},{"phase":0,"sequence":2,"avg":168,"response":120,"trial_type":"training_avg","trial_index":10,"time_elapsed":36713,"internal_node_id":"0.0-10.0"},{"trial_type":"number-animation","trial_index":11,"time_elapsed":42308,"internal_node_id":"0.0-11.0"},{"phase":0,"sequence":3,"avg":182,"response":120,"trial_type":"training_avg","trial_index":12,"time_elapsed":44249,"internal_node_id":"0.0-12.0"},{"trial_type":"number-animation","trial_index":13,"time_elapsed":49749,"internal_node_id":"0.0-13.0"},{"phase":0,"sequence":4,"avg":182,"response":120,"trial_type":"training_avg","trial_index":14,"time_elapsed":52189,"internal_node_id":"0.0-14.0"},{"responses":[{"value":0,"offby":-2,"category":"$120 - $137","category_index":0},{"value":0,"offby":-8,"category":"$138 - $154","category_index":1},{"value":0,"offby":-23,"category":"$155 - $171","category_index":2},{"value":0,"offby":-34,"category":"$172 - $188","category_index":3},{"value":0,"offby":-23,"category":"$189 - $205","category_index":4},{"value":0,"offby":-8,"category":"$206 - $222","category_index":5},{"value":0,"offby":-2,"category":"$223 - $240","category_index":6}],"phase":0,"number":0,"trial_type":"bar-choose","trial_index":15,"time_elapsed":55993,"internal_node_id":"0.0-15.0"},{"rt":913,"url":"\/tickets2\/utils\/testing.html","trial_type":"html","trial_index":16,"time_elapsed":57921,"internal_node_id":"0.0-16.0"},{"result":180,"points":11,"place":2,"phase":0,"sequence":-1,"prices":[184,180,224,165,181,199,185,193,218,126],"times":[522,711],"next_num":2,"trial_type":"ticket-choose","trial_index":17,"time_elapsed":63488,"internal_node_id":"0.0-17.0"},{"rt":40835,"url":"\/tickets2\/utils\/testing_after.html","trial_type":"html","trial_index":18,"time_elapsed":105346,"internal_node_id":"0.0-18.0"},{"result":167,"points":19,"place":3,"phase":0,"sequence":0,"prices":[159,167,181,192,177,189,163,166,190,185],"times":[771,1297],"next_num":2,"trial_type":"ticket-choose","trial_index":19,"time_elapsed":111897,"internal_node_id":"0.0-19.0"},{"result":131,"points":25,"place":0,"phase":0,"sequence":1,"prices":[175,177,197,178,184,131,190,165,178,181],"times":[1351,521,563,560,558,938],"next_num":6,"trial_type":"ticket-choose","trial_index":20,"time_elapsed":120637,"internal_node_id":"0.0-20.0"},{"trial_type":"points-update","trial_index":21,"time_elapsed":124945,"internal_node_id":"0.0-21.0"},{"responses":[{"value":0,"offby":-2,"category":"$120 - $137","category_index":0},{"value":0,"offby":-8,"category":"$138 - $154","category_index":1},{"value":0,"offby":-23,"category":"$155 - $171","category_index":2},{"value":0,"offby":-34,"category":"$172 - $188","category_index":3},{"value":0,"offby":-23,"category":"$189 - $205","category_index":4},{"value":0,"offby":-8,"category":"$206 - $222","category_index":5},{"value":0,"offby":-2,"category":"$223 - $240","category_index":6}],"phase":0,"number":1,"trial_type":"bar-choose","trial_index":22,"time_elapsed":128578,"internal_node_id":"0.0-22.0"},{"rt":43670,"url":"\/tickets2\/utils\/mid_test.html","trial_type":"html","trial_index":23,"time_elapsed":173265,"internal_node_id":"0.0-23.0"},{"result":166,"points":11,"place":2,"phase":0,"sequence":2,"prices":[166,183,183,190,135,179,178,180,191,158],"times":[902],"next_num":1,"trial_type":"ticket-choose","trial_index":24,"time_elapsed":175977,"internal_node_id":"0.0-24.0"},{"result":201,"points":7,"place":8,"phase":0,"sequence":3,"prices":[201,168,168,214,185,176,177,191,175,175],"times":[928],"next_num":1,"trial_type":"ticket-choose","trial_index":25,"time_elapsed":178574,"internal_node_id":"0.0-25.0"},{"responses":[{"value":0,"offby":-2,"category":"$120 - $137","category_index":0},{"value":0,"offby":-8,"category":"$138 - $154","category_index":1},{"value":0,"offby":-23,"category":"$155 - $171","category_index":2},{"value":0,"offby":-34,"category":"$172 - $188","category_index":3},{"value":0,"offby":-23,"category":"$189 - $205","category_index":4},{"value":0,"offby":-8,"category":"$206 - $222","category_index":5},{"value":0,"offby":-2,"category":"$223 - $240","category_index":6}],"phase":0,"number":2,"trial_type":"bar-choose","trial_index":26,"time_elapsed":181605,"internal_node_id":"0.0-26.0"},{"special_comment":"asd","trial_type":"special_sequence","trial_index":27,"time_elapsed":184964,"internal_node_id":"0.0-27.0"},{"during":"Nothing","bonus":6,"trial_type":"final","trial_index":28,"time_elapsed":197544,"internal_node_id":"0.0-28.0"}],"bonus":6}