{"start_time":"2019-04-23 11:45:05","end_time":"2019-04-23 11:46:45","points_phase0":0,"points_phase1":116,"age":0,"gender":"m","tries":1,"during":"Nothing","worker_id":"NOT_SET","assignment_id":"235298","data":[{"result":333,"points":0,"place":9,"phase":1,"sequence":0,"prices":[333,258,8,128,132,94,205,170,118,191],"times":[1991],"next_num":1,"group":0,"trial_type":"ticket-choose","trial_index":0,"time_elapsed":3015,"internal_node_id":"0.0-0.0"},{"result":198,"points":11,"place":5,"phase":1,"sequence":1,"prices":[198,208,121,138,226,332,125,256,89,158],"times":[980],"next_num":1,"group":0,"trial_type":"ticket-choose","trial_index":1,"time_elapsed":5968,"internal_node_id":"0.0-1.0"},{"result":89,"points":20,"place":1,"phase":1,"sequence":2,"prices":[89,300,94,274,87,180,103,146,159,132],"times":[674],"next_num":1,"group":0,"trial_type":"ticket-choose","trial_index":2,"time_elapsed":8390,"internal_node_id":"0.0-2.0"},{"result":87,"points":17,"place":1,"phase":1,"sequence":3,"prices":[87,153,47,355,230,92,146,260,220,230],"times":[467],"next_num":1,"group":0,"trial_type":"ticket-choose","trial_index":3,"time_elapsed":10851,"internal_node_id":"0.0-3.0"},{"result":187,"points":13,"place":4,"phase":1,"sequence":4,"prices":[187,153,236,181,260,212,216,134,285,176],"times":[406],"next_num":1,"group":0,"trial_type":"ticket-choose","trial_index":4,"time_elapsed":13230,"internal_node_id":"0.0-4.0"},{"result":167,"points":5,"place":5,"phase":1,"sequence":5,"prices":[167,148,128,0,21,67,187,192,224,187],"times":[416],"next_num":1,"group":0,"trial_type":"ticket-choose","trial_index":5,"time_elapsed":15685,"internal_node_id":"0.0-5.0"},{"result":67,"points":20,"place":0,"phase":1,"sequence":6,"prices":[67,276,106,229,162,104,245,141,311,166],"times":[704],"next_num":1,"group":0,"trial_type":"ticket-choose","trial_index":6,"time_elapsed":18338,"internal_node_id":"0.0-6.0"},{"result":157,"points":14,"place":4,"phase":1,"sequence":7,"prices":[157,71,208,103,176,185,213,348,150,108],"times":[710],"next_num":1,"group":0,"trial_type":"ticket-choose","trial_index":7,"time_elapsed":20948,"internal_node_id":"0.0-7.0"},{"result":299,"points":0,"place":8,"phase":1,"sequence":8,"prices":[299,207,222,190,190,247,226,301,221,195],"times":[532],"next_num":1,"group":0,"trial_type":"ticket-choose","trial_index":8,"time_elapsed":23306,"internal_node_id":"0.0-8.0"},{"result":106,"points":16,"place":1,"phase":1,"sequence":9,"prices":[106,210,48,134,169,187,238,308,265,272],"times":[540],"next_num":1,"group":0,"trial_type":"ticket-choose","trial_index":9,"time_elapsed":25856,"internal_node_id":"0.0-9.0"},{"trial_type":"points-update","trial_index":10,"time_elapsed":35296,"internal_node_id":"0.0-10.0"},{"rt":19037,"responses":"{\"Q0\":\"Slightly Agree\",\"Q1\":\"Strongly Disagree\",\"Q2\":\"Moderately Disagree\",\"Q3\":\"Slightly Disagree\",\"Q4\":\"Slightly Agree\",\"Q5\":\"Slightly Agree\",\"Q6\":\"Moderately Agree\",\"Q7\":\"Strongly Agree\",\"Q8\":\"Moderately Disagree\",\"Q9\":\"Slightly Disagree\",\"Q10\":\"Slightly Disagree\",\"Q11\":\"Slightly Disagree\",\"Q12\":\"Moderately Agree\",\"Q13\":\"Moderately Disagree\",\"Q14\":\"Strongly Disagree\"}","trial_type":"survey-multi-choice","trial_index":11,"time_elapsed":55417,"internal_node_id":"0.0-11.0"},{"rt":6343,"responses":"{\"Q0\":\"Extremely Unlikely\",\"Q1\":\"Extremely Unlikely\",\"Q2\":\"Moderately Unlikely\",\"Q3\":\"Somewhat Likely\",\"Q4\":\"Somewhat Likely\",\"Q5\":\"Moderately Unlikely\"}","trial_type":"survey-multi-choice","trial_index":12,"time_elapsed":62821,"internal_node_id":"0.0-12.0"},{"choices":[140,220,140],"trial_type":"simplerisk","trial_index":13,"time_elapsed":78154,"internal_node_id":"0.0-13.0"},{"trial_type":"riskchoose","trial_index":14,"time_elapsed":84791,"internal_node_id":"0.0-14.0"},{"during":"Nothing","bonus":34,"trial_type":"final","trial_index":15,"time_elapsed":98334,"internal_node_id":"0.0-15.0"}],"training_sort":0,"bonus":34}