{"start_time":"2018-04-06 22:20:40","end_time":"2018-04-06 22:23:53","points_phase0":81,"points_phase1":0,"age":78,"gender":"m","tries":1,"during":"Nothing","worker_id":"sdfghj","assignment_id":"664460","data":[{"rt":1537,"url":"\/tickets2\/utils\/consent.html","trial_type":"html","trial_index":0,"time_elapsed":1578,"internal_node_id":"0.0-0.0"},{"age":78,"gender":"m","trial_type":"age","trial_index":1,"time_elapsed":3882,"internal_node_id":"0.0-1.0"},{"worker_id":"sdfghj","trial_type":"workerid","trial_index":2,"time_elapsed":6385,"internal_node_id":"0.0-2.0"},{"tries":1,"trial_type":"instructions_check","trial_index":3,"time_elapsed":9565,"internal_node_id":"0.0-3.0"},{"rt":998,"url":"\/tickets2\/utils\/start.html","trial_type":"html","trial_index":4,"time_elapsed":11586,"internal_node_id":"0.0-4.0"},{"trial_type":"number-animation","trial_index":5,"time_elapsed":17544,"internal_node_id":"0.0-5.0"},{"phase":0,"sequence":0,"avg":187,"response":120,"trial_type":"training_avg","trial_index":6,"time_elapsed":19929,"internal_node_id":"0.0-6.0"},{"trial_type":"number-animation","trial_index":7,"time_elapsed":25487,"internal_node_id":"0.0-7.0"},{"phase":0,"sequence":1,"avg":186,"response":120,"trial_type":"training_avg","trial_index":8,"time_elapsed":27710,"internal_node_id":"0.0-8.0"},{"trial_type":"number-animation","trial_index":9,"time_elapsed":33484,"internal_node_id":"0.0-9.0"},{"phase":0,"sequence":2,"avg":179,"response":120,"trial_type":"training_avg","trial_index":10,"time_elapsed":35467,"internal_node_id":"0.0-10.0"},{"trial_type":"number-animation","trial_index":11,"time_elapsed":60196,"internal_node_id":"0.0-11.0"},{"phase":0,"sequence":3,"avg":175,"response":120,"trial_type":"training_avg","trial_index":12,"time_elapsed":65314,"internal_node_id":"0.0-12.0"},{"trial_type":"number-animation","trial_index":13,"time_elapsed":70870,"internal_node_id":"0.0-13.0"},{"phase":0,"sequence":4,"avg":187,"response":120,"trial_type":"training_avg","trial_index":14,"time_elapsed":137440,"internal_node_id":"0.0-14.0"},{"responses":[{"value":0,"offby":-2,"category":"$120 - $137","category_index":0},{"value":0,"offby":-8,"category":"$138 - $154","category_index":1},{"value":0,"offby":-23,"category":"$155 - $171","category_index":2},{"value":0,"offby":-34,"category":"$172 - $188","category_index":3},{"value":0,"offby":-23,"category":"$189 - $205","category_index":4},{"value":0,"offby":-8,"category":"$206 - $222","category_index":5},{"value":0,"offby":-2,"category":"$223 - $240","category_index":6}],"phase":0,"number":0,"trial_type":"bar-choose","trial_index":15,"time_elapsed":140976,"internal_node_id":"0.0-15.0"},{"rt":904,"url":"\/tickets2\/utils\/testing.html","trial_type":"html","trial_index":16,"time_elapsed":142898,"internal_node_id":"0.0-16.0"},{"result":184,"points":10,"place":4,"phase":0,"sequence":-1,"prices":[184,180,224,165,181,199,185,193,218,126],"times":[951],"next_num":1,"trial_type":"ticket-choose","trial_index":17,"time_elapsed":145951,"internal_node_id":"0.0-17.0"},{"rt":908,"url":"\/tickets2\/utils\/testing_after.html","trial_type":"html","trial_index":18,"time_elapsed":147880,"internal_node_id":"0.0-18.0"},{"result":156,"points":19,"place":3,"phase":0,"sequence":0,"prices":[156,195,192,201,198,142,171,151,146,163],"times":[849],"next_num":1,"trial_type":"ticket-choose","trial_index":19,"time_elapsed":152260,"internal_node_id":"0.0-19.0"},{"result":176,"points":15,"place":3,"phase":0,"sequence":1,"prices":[176,196,158,134,201,220,204,197,163,238],"times":[3315],"next_num":1,"trial_type":"ticket-choose","trial_index":20,"time_elapsed":157717,"internal_node_id":"0.0-20.0"},{"trial_type":"points-update","trial_index":21,"time_elapsed":161143,"internal_node_id":"0.0-21.0"},{"responses":[{"value":0,"offby":-2,"category":"$120 - $137","category_index":0},{"value":0,"offby":-8,"category":"$138 - $154","category_index":1},{"value":0,"offby":-23,"category":"$155 - $171","category_index":2},{"value":0,"offby":-34,"category":"$172 - $188","category_index":3},{"value":0,"offby":-23,"category":"$189 - $205","category_index":4},{"value":0,"offby":-8,"category":"$206 - $222","category_index":5},{"value":0,"offby":-2,"category":"$223 - $240","category_index":6}],"phase":0,"number":1,"trial_type":"bar-choose","trial_index":22,"time_elapsed":164130,"internal_node_id":"0.0-22.0"},{"result":168,"points":23,"place":2,"phase":0,"sequence":2,"prices":[168,172,191,165,163,176,172,190,181,217],"times":[655],"next_num":1,"trial_type":"ticket-choose","trial_index":23,"time_elapsed":166687,"internal_node_id":"0.0-23.0"},{"result":139,"points":24,"place":1,"phase":0,"sequence":3,"prices":[139,209,136,208,162,217,139,188,184,165],"times":[1673],"next_num":1,"trial_type":"ticket-choose","trial_index":24,"time_elapsed":170981,"internal_node_id":"0.0-24.0"},{"responses":[{"value":0,"offby":-2,"category":"$120 - $137","category_index":0},{"value":0,"offby":-8,"category":"$138 - $154","category_index":1},{"value":0,"offby":-23,"category":"$155 - $171","category_index":2},{"value":0,"offby":-34,"category":"$172 - $188","category_index":3},{"value":0,"offby":-23,"category":"$189 - $205","category_index":4},{"value":0,"offby":-8,"category":"$206 - $222","category_index":5},{"value":0,"offby":-2,"category":"$223 - $240","category_index":6}],"phase":0,"number":2,"trial_type":"bar-choose","trial_index":25,"time_elapsed":174740,"internal_node_id":"0.0-25.0"},{"special_comment":"ghj","trial_type":"special_sequence","trial_index":26,"time_elapsed":178269,"internal_node_id":"0.0-26.0"},{"during":"Nothing","bonus":8,"trial_type":"final","trial_index":27,"time_elapsed":191854,"internal_node_id":"0.0-27.0"}],"bonus":8}