{"start_time":"2019-02-27 23:21:53","end_time":"2019-02-27 23:31:46","points_phase0":0,"points_phase1":null,"age":23,"gender":"m","tries":1,"during":"Nothing","worker_id":"sdgf","assignment_id":"166969","data":[{"rt":1358,"url":"\/christiane\/tickets3\/utils\/consent.html","trial_type":"html","trial_index":0,"time_elapsed":1408,"internal_node_id":"0.0-0.0"},{"age":23,"gender":"m","trial_type":"age","trial_index":1,"time_elapsed":3631,"internal_node_id":"0.0-1.0"},{"worker_id":"sdgf","trial_type":"workerid","trial_index":2,"time_elapsed":6099,"internal_node_id":"0.0-2.0"},{"tries":1,"trial_type":"instructions_check","trial_index":3,"time_elapsed":14021,"internal_node_id":"0.0-3.0"},{"rt":824,"url":"\/christiane\/tickets3\/utils\/start.html","trial_type":"html","trial_index":4,"time_elapsed":15867,"internal_node_id":"0.0-4.0"},{"trial_type":"number-animation","trial_index":5,"time_elapsed":22229,"internal_node_id":"0.0-5.0"},{"phase":0,"repeat_num":0,"sequence":0,"avg":191,"response":120,"trial_type":"training_avg","trial_index":6,"time_elapsed":24645,"internal_node_id":"0.0-6.0"},{"passed":true,"responses":[{"value":2,"offby":2,"category":"$100 - $120","category_index":0},{"value":6,"offby":4,"category":"$120 - $140","category_index":1},{"value":10,"offby":-4,"category":"$140 - $160","category_index":2},{"value":32,"offby":-2,"category":"$160 - $180","category_index":3},{"value":32,"offby":-2,"category":"$180 - $200","category_index":4},{"value":10,"offby":-4,"category":"$200 - $220","category_index":5},{"value":6,"offby":4,"category":"$220 - $240","category_index":6},{"value":2,"offby":2,"category":"$240 - $260","category_index":7}],"phase":0,"number":0,"repeat_num":0,"max_val":100,"trial_type":"bar-choose","trial_index":7,"time_elapsed":40025,"internal_node_id":"0.0-7.0"},{"repeat_num":1,"result":"passed","trial_type":"number-animation","trial_index":8,"time_elapsed":41027,"internal_node_id":"0.0-8.0"},{"repeat_num":1,"result":"passed","trial_type":"training_avg","trial_index":9,"time_elapsed":42029,"internal_node_id":"0.0-9.0"},{"repeat_num":1,"result":"passed","trial_type":"bar-choose","trial_index":10,"time_elapsed":43030,"internal_node_id":"0.0-10.0"},{"repeat_num":2,"result":"passed","trial_type":"number-animation","trial_index":11,"time_elapsed":44032,"internal_node_id":"0.0-11.0"},{"repeat_num":2,"result":"passed","trial_type":"training_avg","trial_index":12,"time_elapsed":45033,"internal_node_id":"0.0-12.0"},{"repeat_num":2,"result":"passed","trial_type":"bar-choose","trial_index":13,"time_elapsed":46035,"internal_node_id":"0.0-13.0"},{"rt":9653,"url":"\/christiane\/tickets3\/utils\/testing.html","trial_type":"html","trial_index":14,"time_elapsed":56985,"internal_node_id":"0.0-14.0"},{"result":126,"points":20,"place":0,"phase":0,"sequence":-1,"prices":[184,180,224,165,181,199,185,193,218,126],"times":[1737,509,478,483,482,514,456,467,476,1075],"next_num":11,"trial_type":"ticket-choose","trial_index":15,"time_elapsed":67664,"internal_node_id":"0.0-15.0"},{"rt":272960,"url":"\/christiane\/tickets3\/utils\/testing_after.html","trial_type":"html","trial_index":16,"time_elapsed":341642,"internal_node_id":"0.0-16.0"},{"result":183,"points":8,"place":3,"phase":0,"sequence":0,"prices":[149,207,182,176,183],"times":[1251,370,392,446,1307],"next_num":5,"trial_type":"ticket-choose","trial_index":17,"time_elapsed":348635,"internal_node_id":"0.0-17.0"},{"trial_type":"points-update","trial_index":18,"time_elapsed":401045,"internal_node_id":"0.0-18.0"},{"responses":[{"value":0,"offby":0,"category":"$100 - $120","category_index":0},{"value":0,"offby":-2,"category":"$120 - $140","category_index":1},{"value":0,"offby":-14,"category":"$140 - $160","category_index":2},{"value":0,"offby":-34,"category":"$160 - $180","category_index":3},{"value":0,"offby":-34,"category":"$180 - $200","category_index":4},{"value":0,"offby":-14,"category":"$200 - $220","category_index":5},{"value":0,"offby":-2,"category":"$220 - $240","category_index":6},{"value":0,"offby":0,"category":"$240 - $260","category_index":7}],"phase":0,"number":1,"repeat_num":0,"max_val":100,"trial_type":"bar-choose","trial_index":19,"time_elapsed":429847,"internal_node_id":"0.0-19.0"},{"rt":3050,"url":"\/christiane\/tickets3\/utils\/mid_test.html","trial_type":"html","trial_index":20,"time_elapsed":433911,"internal_node_id":"0.0-20.0"},{"result":209,"points":0,"place":9,"phase":0,"sequence":0,"prices":[186,147,175,209,184,192,176,180,171,173],"times":[1274,298,271,313],"next_num":4,"trial_type":"ticket-choose","trial_index":21,"time_elapsed":438748,"internal_node_id":"0.0-21.0"},{"trial_type":"points-update","trial_index":22,"time_elapsed":440811,"internal_node_id":"0.0-22.0"},{"responses":[{"value":0,"offby":0,"category":"$100 - $120","category_index":0},{"value":0,"offby":-2,"category":"$120 - $140","category_index":1},{"value":0,"offby":-14,"category":"$140 - $160","category_index":2},{"value":0,"offby":-34,"category":"$160 - $180","category_index":3},{"value":0,"offby":-34,"category":"$180 - $200","category_index":4},{"value":0,"offby":-14,"category":"$200 - $220","category_index":5},{"value":0,"offby":-2,"category":"$220 - $240","category_index":6},{"value":0,"offby":0,"category":"$240 - $260","category_index":7}],"phase":0,"number":1,"repeat_num":0,"max_val":100,"trial_type":"bar-choose","trial_index":23,"time_elapsed":443958,"internal_node_id":"0.0-23.0"},{"rt":825,"url":"\/christiane\/tickets3\/utils\/mid_test.html","trial_type":"html","trial_index":24,"time_elapsed":445796,"internal_node_id":"0.0-24.0"},{"result":195,"points":7,"place":15,"phase":0,"sequence":0,"prices":[195,150,182,192,191,179,148,211,208,157,163,175,219,154,150,151,208,191,191,164],"times":[1724],"next_num":1,"trial_type":"ticket-choose","trial_index":25,"time_elapsed":449529,"internal_node_id":"0.0-25.0"},{"trial_type":"points-update","trial_index":26,"time_elapsed":451523,"internal_node_id":"0.0-26.0"},{"responses":[{"value":0,"offby":0,"category":"$100 - $120","category_index":0},{"value":0,"offby":-2,"category":"$120 - $140","category_index":1},{"value":0,"offby":-14,"category":"$140 - $160","category_index":2},{"value":0,"offby":-34,"category":"$160 - $180","category_index":3},{"value":0,"offby":-34,"category":"$180 - $200","category_index":4},{"value":0,"offby":-14,"category":"$200 - $220","category_index":5},{"value":0,"offby":-2,"category":"$220 - $240","category_index":6},{"value":0,"offby":0,"category":"$240 - $260","category_index":7}],"phase":0,"number":1,"repeat_num":0,"max_val":100,"trial_type":"bar-choose","trial_index":27,"time_elapsed":459221,"internal_node_id":"0.0-27.0"},{"rt":593,"url":"\/christiane\/tickets3\/utils\/mid_test.html","trial_type":"html","trial_index":28,"time_elapsed":460837,"internal_node_id":"0.0-28.0"},{"result":171,"points":13,"place":2,"phase":0,"sequence":0,"prices":[171,178,166,162,188],"times":[905],"next_num":1,"trial_type":"ticket-choose","trial_index":29,"time_elapsed":463536,"internal_node_id":"0.0-29.0"},{"trial_type":"points-update","trial_index":30,"time_elapsed":465303,"internal_node_id":"0.0-30.0"},{"responses":[{"value":0,"offby":0,"category":"$100 - $120","category_index":0},{"value":0,"offby":-2,"category":"$120 - $140","category_index":1},{"value":0,"offby":-14,"category":"$140 - $160","category_index":2},{"value":0,"offby":-34,"category":"$160 - $180","category_index":3},{"value":0,"offby":-34,"category":"$180 - $200","category_index":4},{"value":0,"offby":-14,"category":"$200 - $220","category_index":5},{"value":0,"offby":-2,"category":"$220 - $240","category_index":6},{"value":0,"offby":0,"category":"$240 - $260","category_index":7}],"phase":0,"number":1,"repeat_num":0,"max_val":100,"trial_type":"bar-choose","trial_index":31,"time_elapsed":469408,"internal_node_id":"0.0-31.0"},{"rt":763,"url":"\/christiane\/tickets3\/utils\/mid_test.html","trial_type":"html","trial_index":32,"time_elapsed":471183,"internal_node_id":"0.0-32.0"},{"result":169,"points":14,"place":5,"phase":0,"sequence":0,"prices":[169,201,156,192,174,184,216,183,175,168,185,173,176,217,146,189,155,170,150,191],"times":[767],"next_num":1,"trial_type":"ticket-choose","trial_index":33,"time_elapsed":474194,"internal_node_id":"0.0-33.0"},{"trial_type":"points-update","trial_index":34,"time_elapsed":475945,"internal_node_id":"0.0-34.0"},{"responses":[{"value":0,"offby":0,"category":"$100 - $120","category_index":0},{"value":0,"offby":-2,"category":"$120 - $140","category_index":1},{"value":0,"offby":-14,"category":"$140 - $160","category_index":2},{"value":0,"offby":-34,"category":"$160 - $180","category_index":3},{"value":0,"offby":-34,"category":"$180 - $200","category_index":4},{"value":0,"offby":-14,"category":"$200 - $220","category_index":5},{"value":0,"offby":-2,"category":"$220 - $240","category_index":6},{"value":0,"offby":0,"category":"$240 - $260","category_index":7}],"phase":0,"number":1,"repeat_num":0,"max_val":100,"trial_type":"bar-choose","trial_index":35,"time_elapsed":479309,"internal_node_id":"0.0-35.0"},{"rt":548,"url":"\/christiane\/tickets3\/utils\/mid_test.html","trial_type":"html","trial_index":36,"time_elapsed":480868,"internal_node_id":"0.0-36.0"},{"result":146,"points":19,"place":1,"phase":0,"sequence":0,"prices":[146,143,171,209,173,218,201,166,160,154],"times":[761],"next_num":1,"trial_type":"ticket-choose","trial_index":37,"time_elapsed":483516,"internal_node_id":"0.0-37.0"},{"trial_type":"points-update","trial_index":38,"time_elapsed":486058,"internal_node_id":"0.0-38.0"},{"responses":[{"value":0,"offby":0,"category":"$100 - $120","category_index":0},{"value":0,"offby":-2,"category":"$120 - $140","category_index":1},{"value":0,"offby":-14,"category":"$140 - $160","category_index":2},{"value":0,"offby":-34,"category":"$160 - $180","category_index":3},{"value":0,"offby":-34,"category":"$180 - $200","category_index":4},{"value":0,"offby":-14,"category":"$200 - $220","category_index":5},{"value":0,"offby":-2,"category":"$220 - $240","category_index":6},{"value":0,"offby":0,"category":"$240 - $260","category_index":7}],"phase":0,"number":1,"repeat_num":0,"max_val":100,"trial_type":"bar-choose","trial_index":39,"time_elapsed":488985,"internal_node_id":"0.0-39.0"},{"rt":1696,"url":"\/christiane\/tickets3\/utils\/mid_test.html","trial_type":"html","trial_index":40,"time_elapsed":491697,"internal_node_id":"0.0-40.0"},{"responses":[{"value":0,"offby":0,"category":"$100 - $120","category_index":0},{"value":0,"offby":-2,"category":"$120 - $140","category_index":1},{"value":0,"offby":-14,"category":"$140 - $160","category_index":2},{"value":0,"offby":-34,"category":"$160 - $180","category_index":3},{"value":0,"offby":-34,"category":"$180 - $200","category_index":4},{"value":0,"offby":-14,"category":"$200 - $220","category_index":5},{"value":0,"offby":-2,"category":"$220 - $240","category_index":6},{"value":0,"offby":0,"category":"$240 - $260","category_index":7}],"phase":0,"number":2,"repeat_num":0,"max_val":100,"trial_type":"bar-choose","trial_index":41,"time_elapsed":494634,"internal_node_id":"0.0-41.0"},{"result":140,"trial_type":"risk-check","trial_index":42,"time_elapsed":576630,"internal_node_id":"0.0-42.0"},{"special_comment":"cghjk","trial_type":"special_sequence","trial_index":43,"time_elapsed":579768,"internal_node_id":"0.0-43.0"},{"during":"Nothing","bonus":0,"trial_type":"final","trial_index":44,"time_elapsed":591624,"internal_node_id":"0.0-44.0"}],"training_sort":100,"bonus":0}